key_resp.keys,key_resp.rt,practice_taps.keys,practice_taps.rt,keyresp.keys,keyresp.rt,practice_stims_loop.thisRepN,practice_stims_loop.thisTrialN,practice_stims_loop.thisN,practice_stims_loop.thisIndex,practice_stims_loop.ran,sndfile,type,tempo,cond,version,delay,dur,Participant Initials,"If you are a MTurk worker, what is your MTurk worker ID?","If you are not an MTurk worker, please provide your email address",Are you wearing headphones?,What are the headphone make and model?,"How many years of musical training, if any, do you have?",Do you have any hearing problems? Please describe,What is your sex (f/m/decline)?,What is your age?,What is your handedness (R/L/ambi)?,Are you currently in a secure and quiet room without a possible interruption?,session,date,expName,psychopyVersion,OS,frameRate,instructions_prompt.keys,instructions_prompt.rt,block1_taps.keys,block1_taps.rt,key_resp_2.keys,key_resp_2.rt,trials.thisRepN,trials.thisTrialN,trials.thisN,trials.thisIndex,trials.ran,key_resp2.keys,key_resp2.rt,block2_taps.keys,block2_taps.rt,key_resp_3.keys,key_resp_3.rt,trials_2.thisRepN,trials_2.thisTrialN,trials_2.thisN,trials_2.thisIndex,trials_2.ran,key_resp_4.keys,key_resp_4.rt
space,10.08807,"[""space"",""space"",""space"",""space"",""space"",""space"",""space"",""space"",""space"",""space"",""space"",""space"",""space"",""space"",""space"",""space"",""space"",""space"",""space"",""space""]","[1.201065000030212,1.9226999999955297,2.680240000016056,3.4846400000387803,4.202035000082105,4.981805000104941,5.682744999998249,6.440150000038557,7.244780000066385,8.008990000002086,8.72004000004381,9.50686000008136,10.240275000105612,10.99207999999635,11.761240000021644,12.512445000000298,13.282170000020415,14.033135000034235,14.796650000032969,15.56992000003811]",space,1.08799,0.0,0.0,0.0,0.0,1.0,block_1/strong_n_81_2.wav,no,n,strong,81.0,1.560205308,16.72288105,,,,Yes,SONY MDR-P180,30+,no,f,53,R,yes,1,2020-08-08_23h03.30.895,kura-A1,2020.1.2,Linux x86_64,60,,,,,,,,,,,,,,,,,,,,,,,,
,,"[""space"",""space"",""space"",""space"",""space"",""space"",""space"",""space"",""space"",""space"",""space"",""space"",""space"",""space"",""space"",""space"",""space"",""space"",""space"",""space"",""space""]","[0.3047800000058487,1.0929649999598041,1.5786999999545515,2.0076000000117347,2.4852999999420717,3.0343400000128895,3.5834699999541044,4.164334999979474,4.657579999999143,5.102474999963306,5.523934999946505,6.0094249999383464,6.502429999993183,6.971395000000484,7.435814999975264,7.936665000044741,8.475059999967925,8.976204999955371,9.501554999966174,10.002714999951422,10.504474999965169]",space,0.635775,0.0,1.0,1.0,3.0,1.0,block_2/weak_t_119_2.wav,timbre,t,weak,119.0,2.180699762,12.4495433,,,,Yes,SONY MDR-P180,30+,no,f,53,R,yes,1,2020-08-08_23h03.30.895,kura-A1,2020.1.2,Linux x86_64,60,,,,,,,,,,,,,,,,,,,,,,,,
,,"[""space"",""space"",""space"",""space"",""space"",""space"",""space"",""space"",""space"",""space"",""space"",""space"",""space"",""space"",""space"",""space"",""space"",""space"",""space"",""space"",""space"",""space"",""space"",""space""]","[0.25156999996397644,0.7195699999574572,1.180060000042431,1.624900000053458,2.2301600000355393,2.7071449999930337,3.2801050000125542,3.917424999992363,4.538775000022724,5.15960500005167,6.035894999979064,6.683790000039153,7.335444999975152,7.836729999980889,8.423934999969788,8.872124999994412,9.409760000067763,9.943599999998696,10.405204999959096,10.865615000016987,11.48679999995511,12.155440000002272,12.88863499998115,13.58914499997627]",space,0.6268,0.0,2.0,2.0,1.0,1.0,block_2/none_t_119_1.wav,timbre,t,none,119.0,1.172164666,14.53370662,,,,Yes,SONY MDR-P180,30+,no,f,53,R,yes,1,2020-08-08_23h03.30.895,kura-A1,2020.1.2,Linux x86_64,60,,,,,,,,,,,,,,,,,,,,,,,,
,,"[""space"",""space"",""space"",""space"",""space"",""space"",""space"",""space"",""space"",""space"",""space"",""space"",""space"",""space"",""space"",""space"",""space"",""space""]","[0.2683899999829009,1.0045449999161065,1.7934299999615178,2.3903599999612197,2.947399999946356,3.4886449999175966,3.9602650000015274,4.38746999995783,4.8164749999996275,5.280049999943003,5.754784999997355,6.22469999990426,6.7334599999012426,7.170515000005253,7.648444999940693,8.166194999939762,8.634489999967627,9.111269999993965]",space,0.78956,0.0,3.0,3.0,2.0,1.0,block_1/weak_n_119_1.wav,no,n,weak,119.0,1.75153664,11.06591306,,,,Yes,SONY MDR-P180,30+,no,f,53,R,yes,1,2020-08-08_23h03.30.895,kura-A1,2020.1.2,Linux x86_64,60,,,,,,,,,,,,,,,,,,,,,,,,
,,,,,,,,,,,block_1/strong_n_72_1.wav,no,n,strong,72.0,1.207870441,16.92877747,,,,Yes,SONY MDR-P180,30+,no,f,53,R,yes,1,2020-08-08_23h03.30.895,kura-A1,2020.1.2,Linux x86_64,60,space,6.527075,"[""space"",""space"",""space"",""space"",""space"",""space"",""space"",""space"",""space"",""space"",""space"",""space"",""space"",""space"",""space"",""space"",""space"",""space"",""space"",""space"",""space""]","[0.25574000005144626,0.9518900000257418,1.6728349999757484,2.472829999984242,3.2661999999545515,4.047230000025593,4.86109000002034,5.648924999986775,6.477545000030659,7.284295000019483,8.0711799999699,8.8544750000583,9.696009999956004,10.47695499996189,11.297009999980219,12.117775000049733,12.93129500001669,13.735660000005737,14.564465000061318,15.36089999997057,16.165804999996908]",space,0.802845,0.0,0.0,0.0,33.0,1.0,,,,,,,,,,,,,
,,,,,,,,,,,block_1/none_n_72_2.wav,no,n,none,72.0,1.052198767,23.70630308,,,,Yes,SONY MDR-P180,30+,no,f,53,R,yes,1,2020-08-08_23h03.30.895,kura-A1,2020.1.2,Linux x86_64,60,,,"[""space"",""space"",""space"",""space"",""space"",""space"",""space"",""space"",""space"",""space"",""space"",""space"",""space"",""space"",""space"",""space"",""space"",""space"",""space"",""space"",""space"",""space"",""space"",""space"",""space"",""space"",""space"",""space"",""space"",""space"",""space"",""space"",""space"",""space""]","[0.2579999999143183,1.0063999999547377,1.6110949999419972,2.1604649999644607,3.236754999961704,4.081245000008494,4.870289999991655,5.597854999941774,6.482829999993555,7.197004999965429,7.960059999953955,8.773334999918006,9.556744999950752,10.302569999941625,11.035969999968074,11.664669999969192,12.358034999924712,12.915694999974221,13.591544999973848,14.335650000022724,15.114324999973178,15.8138349999208,16.50742999999784,17.15157999994699,17.868309999932535,18.49719499994535,19.06375999993179,19.508369999937713,20.065934999962337,20.533904999960214,21.019314999924973,21.560714999912307,22.173564999946393,22.75572499993723]",space,0.5717,0.0,1.0,1.0,16.0,1.0,,,,,,,,,,,,,
,,,,,,,,,,,block_1/weak_n_105_2.wav,no,n,weak,105.0,1.25756433,14.19910628,,,,Yes,SONY MDR-P180,30+,no,f,53,R,yes,1,2020-08-08_23h03.30.895,kura-A1,2020.1.2,Linux x86_64,60,,,"[""space"",""space"",""space"",""space"",""space"",""space"",""space"",""space"",""space"",""space"",""space"",""space"",""space"",""space"",""space"",""space"",""space"",""space"",""space"",""space""]","[0.28900999994948506,0.9570349999703467,1.8658849999774247,2.4900699999416247,3.2439099999610335,4.087874999968335,4.662139999913052,5.266089999931864,5.766899999929592,6.268474999931641,6.834269999992102,7.60601999994833,8.315444999956526,8.975424999953248,9.700695000006817,10.265629999921657,10.799354999908246,11.371389999985695,12.04855999990832,12.686129999929108]",space,0.328935,0.0,2.0,2.0,26.0,1.0,,,,,,,,,,,,,
,,,,,,,,,,,block_1/medium_n_92_2.wav,no,n,medium,92.0,1.321097132,12.85819464,,,,Yes,SONY MDR-P180,30+,no,f,53,R,yes,1,2020-08-08_23h03.30.895,kura-A1,2020.1.2,Linux x86_64,60,,,"[""space"",""space"",""space"",""space"",""space"",""space"",""space"",""space"",""space"",""space"",""space"",""space"",""space"",""space"",""space"",""space"",""space"",""space"",""space""]","[0.25296999991405755,0.9785050000064075,1.5107650000136346,2.0836399999679998,2.697094999952242,3.3261799999745563,3.9104899999219924,4.552135000005364,5.117144999909215,5.674339999910444,6.286779999965802,6.924084999947809,7.513124999939464,8.166659999988042,8.795174999977462,9.400459999917075,10.052885000011884,10.697954999981448,11.302849999978207]",space,0.485795,0.0,3.0,3.0,1.0,1.0,,,,,,,,,,,,,
,,,,,,,,,,,block_1/weak_n_81_2.wav,no,n,weak,81.0,1.567957537,13.4515403,,,,Yes,SONY MDR-P180,30+,no,f,53,R,yes,1,2020-08-08_23h03.30.895,kura-A1,2020.1.2,Linux x86_64,60,,,"[""space"",""space"",""space"",""space"",""space"",""space"",""space"",""space"",""space"",""space"",""space"",""space"",""space"",""space"",""space"",""space"",""space"",""space"",""space"",""space""]","[0.23775500000920147,1.010109999915585,1.6472300000023097,2.28414000000339,2.8581799999810755,3.4536599999992177,4.0347299999557436,4.616059999912977,5.236685000010766,5.794859999907203,6.359074999927543,6.901324999984354,7.513474999926984,8.120899999979883,8.73926499998197,9.344159999978729,9.901450000004843,10.476664999965578,11.08762999996543,11.663635000004433]",space,0.541245,0.0,4.0,4.0,32.0,1.0,,,,,,,,,,,,,
,,,,,,,,,,,block_1/none_n_81_2.wav,no,n,none,81.0,1.043160571,20.19454379,,,,Yes,SONY MDR-P180,30+,no,f,53,R,yes,1,2020-08-08_23h03.30.895,kura-A1,2020.1.2,Linux x86_64,60,,,"[""space"",""space"",""space"",""space"",""space"",""space"",""space"",""space"",""space"",""space"",""space"",""space"",""space"",""space"",""space"",""space"",""space"",""space"",""space"",""space"",""space"",""space"",""space"",""space"",""space"",""space"",""space"",""space"",""space"",""space"",""space"",""space"",""space"",""space"",""space"",""space"",""space"",""space"",""space"",""space""]","[0.2612700000172481,0.9221749999560416,1.5110799999674782,2.0280100000090897,2.697595000034198,3.175195000017993,3.58742999995593,4.088409999967553,4.622319999965839,5.1631999999517575,5.720439999946393,6.2214149999199435,6.626404999988154,7.024139999994077,7.509229999966919,7.970424999948591,8.407164999982342,8.845229999977164,9.25848999992013,9.657834999961779,10.084694999968633,10.554554999922402,10.993675000034273,11.429340000031516,11.905754999956116,12.366819999995641,12.932374999974854,13.449829999939539,13.895290000014938,14.36418999999296,14.808744999929331,15.215224999934435,15.622134999954142,16.049759999965318,16.55038999998942,17.020019999938086,17.59363499993924,18.02994499995839,18.463344999938272,18.952120000030845]",space,0.58146,0.0,5.0,5.0,28.0,1.0,,,,,,,,,,,,,
,,,,,,,,,,,block_1/weak_n_119_2.wav,no,n,weak,119.0,2.480463378,12.4427763,,,,Yes,SONY MDR-P180,30+,no,f,53,R,yes,1,2020-08-08_23h03.30.895,kura-A1,2020.1.2,Linux x86_64,60,,,"[""space"",""space"",""space"",""space"",""space"",""space"",""space"",""space"",""space"",""space"",""space"",""space"",""space"",""space"",""space"",""space"",""space"",""space"",""space"",""space"",""space"",""space""]","[0.22045500006061047,0.8695099999895319,1.2710350000998005,1.6716749999905005,2.1062099999981,2.550355000072159,3.060080000082962,3.576655000098981,4.054280000040308,4.524335000081919,5.01597499998752,5.5172200000379235,6.0112600000575185,6.483450000057928,6.951435000053607,7.386510000098497,7.839879999984987,8.304470000090078,8.762235000031069,9.215640000067651,9.668485000031069,10.186190000036731]",space,0.4776,0.0,6.0,6.0,36.0,1.0,,,,,,,,,,,,,
,,,,,,,,,,,block_1/medium_n_119_2.wav,no,n,medium,119.0,1.29591098,10.35291778,,,,Yes,SONY MDR-P180,30+,no,f,53,R,yes,1,2020-08-08_23h03.30.895,kura-A1,2020.1.2,Linux x86_64,60,,,"[""space"",""space"",""space"",""space"",""space"",""space"",""space"",""space"",""space"",""space"",""space"",""space"",""space"",""space"",""space"",""space"",""space"",""space"",""space"",""space"",""space"",""space""]","[0.24557499994989485,0.7786949999863282,1.3207199999596924,1.6762399999424815,2.090609999955632,2.615295000025071,2.980435000034049,3.386599999968894,3.727074999944307,4.03711499995552,4.418270000023767,4.86378999997396,5.280290000024252,5.765004999935627,6.2159499999834225,6.620434999931604,7.051609999965876,7.439185000024736,7.903655000030994,8.370824999990873,8.790550000034273,9.252459999988787]",space,0.518705,0.0,7.0,7.0,21.0,1.0,,,,,,,,,,,,,
,,,,,,,,,,,block_1/strong_n_105_2.wav,no,n,strong,105.0,2.465472491,15.61086932,,,,Yes,SONY MDR-P180,30+,no,f,53,R,yes,1,2020-08-08_23h03.30.895,kura-A1,2020.1.2,Linux x86_64,60,,,"[""space"",""space"",""space"",""space"",""space"",""space"",""space"",""space"",""space"",""space"",""space"",""space"",""space"",""space"",""space"",""space"",""space"",""space"",""space"",""space"",""space""]","[0.42622500006109476,1.1113449999829754,1.6372400000691414,2.281195000046864,2.934030000003986,3.6109550000401214,4.279979999992065,4.91203000000678,5.580004999996163,6.238684999989346,6.916540000005625,7.554740000050515,8.198480000020936,8.858250000048429,9.539525000029244,10.196195000084117,10.865409999969415,11.478450000053272,12.17930499999784,12.839580000028946,13.4853900000453]",space,0.339895,0.0,8.0,8.0,9.0,1.0,,,,,,,,,,,,,
,,,,,,,,,,,block_1/strong_n_81_1.wav,no,n,strong,81.0,1.003745174,15.96537783,,,,Yes,SONY MDR-P180,30+,no,f,53,R,yes,1,2020-08-08_23h03.30.895,kura-A1,2020.1.2,Linux x86_64,60,,,"[""space"",""space"",""space"",""space"",""space"",""space"",""space"",""space"",""space"",""space"",""space"",""space"",""space"",""space"",""space"",""space"",""space"",""space"",""space"",""space"",""space""]","[0.5083950000116602,1.2262649999465793,1.9104150000493973,2.6197900000261143,3.3519300000043586,4.069015000015497,4.833145000040531,5.558665000018664,6.35504499997478,7.096595000009984,7.836439999984577,8.657044999999925,9.365935000008903,10.091849999967963,10.815449999994598,11.6455249999417,12.377244999981485,13.158135000034235,13.947169999941252,14.647329999948852,15.388264999957755]",space,0.693125,0.0,9.0,9.0,12.0,1.0,,,,,,,,,,,,,
,,,,,,,,,,,block_1/strong_n_92_1.wav,no,n,strong,92.0,1.355123487,13.84328675,,,,Yes,SONY MDR-P180,30+,no,f,53,R,yes,1,2020-08-08_23h03.30.895,kura-A1,2020.1.2,Linux x86_64,60,,,"[""space"",""space"",""space"",""space"",""space"",""space"",""space"",""space"",""space"",""space"",""space"",""space"",""space"",""space"",""space"",""space"",""space"",""space"",""space"",""space"",""space""]","[0.24114499997813255,1.0772100000176579,1.6666350000305101,2.319314999971539,2.9161999999778345,3.5289000000339,4.1609300000127405,4.755804999964312,5.3472149999579415,6.015750000020489,6.586344999959692,7.255594999995083,7.860080000013113,8.457204999984242,9.10628499998711,9.70788000000175,10.336754999938421,10.965064999996684,11.548880000016652,12.183309999993071,12.77174500003457]",space,0.72584,0.0,10.0,10.0,37.0,1.0,,,,,,,,,,,,,
,,,,,,,,,,,block_1/strong_n_72_2.wav,no,n,strong,72.0,1.592838259,18.92930084,,,,Yes,SONY MDR-P180,30+,no,f,53,R,yes,1,2020-08-08_23h03.30.895,kura-A1,2020.1.2,Linux x86_64,60,,,"[""space"",""space"",""space"",""space"",""space"",""space"",""space"",""space"",""space"",""space"",""space"",""space"",""space"",""space"",""space"",""space"",""space"",""space"",""space"",""space"",""space""]","[0.22100500005763024,0.9862000000430271,1.646569999982603,2.6278000000165775,3.4640549999894574,4.380215000011958,5.280430000042543,6.173030000063591,7.1015400000615045,7.983155000023544,8.923730000038631,9.78379000001587,10.710309999994934,11.61279500008095,12.477315000025555,13.37471500004176,14.246170000056736,15.099765000049956,16.023200000054203,16.94205499999225,17.848240000079386]",space,0.555805,0.0,11.0,11.0,30.0,1.0,,,,,,,,,,,,,
,,,,,,,,,,,block_1/strong_n_119_2.wav,no,n,strong,119.0,2.088876798,11.35100832,,,,Yes,SONY MDR-P180,30+,no,f,53,R,yes,1,2020-08-08_23h03.30.895,kura-A1,2020.1.2,Linux x86_64,60,,,"[""space"",""space"",""space"",""space"",""space"",""space"",""space"",""space"",""space"",""space"",""space"",""space"",""space"",""space"",""space"",""space"",""space"",""space"",""space"",""space"",""space""]","[0.31828999996650964,0.792674999916926,1.170670000021346,1.5887050000019372,2.04914000001736,2.502254999941215,2.991664999979548,3.442724999971688,3.918249999987893,4.3791699999710545,4.8414349999511614,5.29722499998752,5.792514999979176,6.240824999986216,6.734049999970011,7.186184999998659,7.663805000018328,8.137675000005402,8.626354999956675,9.095244999974966,9.548744999920018]",space,0.6392,0.0,12.0,12.0,17.0,1.0,,,,,,,,,,,,,
,,,,,,,,,,,block_1/medium_n_105_1.wav,no,n,medium,105.0,2.470231961,15.66819115,,,,Yes,SONY MDR-P180,30+,no,f,53,R,yes,1,2020-08-08_23h03.30.895,kura-A1,2020.1.2,Linux x86_64,60,,,"[""space"",""space"",""space"",""space"",""space"",""space"",""space"",""space"",""space"",""space"",""space"",""space"",""space"",""space"",""space"",""space"",""space"",""space"",""space"",""space""]","[0.23580000002402812,1.0204750000266358,1.7509899999713525,2.4193100000265986,3.0079250000417233,3.6209299999754876,4.233974999981001,4.846314999973401,5.467595000052825,6.056585000013001,6.677995000034571,7.234614999964833,7.871999999973923,8.556895000045188,9.289665000047535,10.046035000006668,10.739195000031032,11.407619999954477,12.109010000014678,12.865474999998696]",space,0.65907,0.0,13.0,13.0,7.0,1.0,,,,,,,,,,,,,
,,,,,,,,,,,block_1/none_n_105_1.wav,no,n,none,105.0,1.562974393,15.68542337,,,,Yes,SONY MDR-P180,30+,no,f,53,R,yes,1,2020-08-08_23h03.30.895,kura-A1,2020.1.2,Linux x86_64,60,,,"[""space"",""space"",""space"",""space"",""space"",""space"",""space"",""space"",""space"",""space"",""space"",""space"",""space"",""space"",""space"",""space"",""space"",""space"",""space"",""space"",""space"",""space"",""space"",""space"",""space"",""space"",""space"",""space"",""space"",""space"",""space""]","[0.234349999926053,1.0268849999411032,1.5762000000104308,2.2134349999250844,2.6104049999266863,3.09574000001885,3.509899999946356,4.018234999966808,4.551519999979064,4.957234999979846,5.353819999960251,5.83137499995064,6.308889999985695,6.762899999972433,7.222910000011325,7.669424999970943,8.065925000002608,8.47129000001587,8.916714999941178,9.369964999961667,9.82503499998711,10.292589999968186,10.712994999950752,11.19024000002537,11.646270000026561,12.0169599999208,12.447574999998324,12.883335000020452,13.304684999980964,13.726469999994151,14.195379999931902]",space,0.28753,0.0,14.0,14.0,0.0,1.0,,,,,,,,,,,,,
,,,,,,,,,,,block_1/medium_n_81_1.wav,no,n,medium,81.0,1.755173496,15.75716896,,,,Yes,SONY MDR-P180,30+,no,f,53,R,yes,1,2020-08-08_23h03.30.895,kura-A1,2020.1.2,Linux x86_64,60,,,"[""space"",""space"",""space"",""space"",""space"",""space"",""space"",""space"",""space"",""space"",""space"",""space"",""space"",""space"",""space"",""space"",""space"",""space"",""space"",""space""]","[0.25712999992538244,1.0865200000116602,1.8547549999784678,2.5750799999805167,3.2606399999931455,3.9096300000092015,4.630424999981187,5.275189999956638,6.031710000010207,6.67711499996949,7.305485000018962,8.05406499991659,8.8108699999284,9.543799999984913,10.269174999906681,10.921789999934845,11.598944999976084,12.339004999957979,12.968419999931939,13.63285499997437]",space,0.358145,0.0,15.0,15.0,31.0,1.0,,,,,,,,,,,,,
,,,,,,,,,,,block_1/none_n_119_2.wav,no,n,none,119.0,2.128313718,13.68559263,,,,Yes,SONY MDR-P180,30+,no,f,53,R,yes,1,2020-08-08_23h03.30.895,kura-A1,2020.1.2,Linux x86_64,60,,,"[""space"",""space"",""space"",""space"",""space"",""space"",""space"",""space"",""space"",""space"",""space"",""space"",""space"",""space"",""space"",""space"",""space"",""space"",""space"",""space"",""space"",""space"",""space"",""space"",""space"",""space"",""space""]","[0.2217149999924004,0.7553250000346452,1.144925000029616,1.6385900001041591,2.075745000038296,2.5244100000709295,2.918070000014268,3.314740000059828,3.7770250000758097,4.229725000099279,4.675150000024587,5.119780000066385,5.509355000103824,5.869110000086948,6.283170000067912,6.734225000021979,7.171485000057146,7.624040000024252,8.044855000101961,8.483334999997169,8.872590000042692,9.324705000035465,9.758100000093691,10.225934999994934,10.693240000051446,11.130390000063926,11.535605000099167]",space,0.510445,0.0,16.0,16.0,25.0,1.0,,,,,,,,,,,,,
,,,,,,,,,,,block_1/none_n_105_2.wav,no,n,none,105.0,1.949697166,16.59064955,,,,Yes,SONY MDR-P180,30+,no,f,53,R,yes,1,2020-08-08_23h03.30.895,kura-A1,2020.1.2,Linux x86_64,60,,,"[""space"",""space"",""space"",""space"",""space"",""space"",""space"",""space"",""space"",""space"",""space"",""space"",""space"",""space"",""space"",""space"",""space"",""space"",""space"",""space"",""space"",""space"",""space"",""space"",""space"",""space"",""space"",""space"",""space"",""space"",""space""]","[0.23454500001389533,0.7089900000719354,1.1055950000882149,1.6152299999957904,2.055404999991879,2.4495750000933185,2.966990000102669,3.4836850001011044,3.9932150000240654,4.438525000005029,4.907945000100881,5.513130000093952,6.189515000092797,6.682965000043623,7.184255000087433,7.740850000060163,8.258565000025555,8.727275000070222,9.212464999989606,9.665730000007898,10.19870000006631,10.651855000061914,11.049025000073016,11.45482000010088,11.947980000055395,12.425150000024587,12.881550000049174,13.371415000059642,13.817050000070594,14.27065500000026,14.707815000088885]",space,6.934695,0.0,17.0,17.0,4.0,1.0,,,,,,,,,,,,,
,,,,,,,,,,,block_1/weak_n_92_2.wav,no,n,weak,92.0,1.763778337,14.00087584,,,,Yes,SONY MDR-P180,30+,no,f,53,R,yes,1,2020-08-08_23h03.30.895,kura-A1,2020.1.2,Linux x86_64,60,,,"[""space"",""space"",""space"",""space"",""space"",""space"",""space"",""space"",""space"",""space"",""space"",""space"",""space"",""space"",""space"",""space"",""space"",""space"",""space"",""space""]","[0.22756000002846122,1.080089999944903,1.638414999935776,2.217869999934919,2.85820000001695,3.4997549999970943,4.072264999966137,4.645714999991469,5.331260000006296,5.882344999932684,6.46867500001099,7.089909999980591,7.670904999948107,8.292009999975562,8.922619999968447,9.534080000012182,10.09265000000596,10.711430000024848,11.333029999979772,11.96972499997355]",space,0.76792,0.0,18.0,18.0,6.0,1.0,,,,,,,,,,,,,
,,,,,,,,,,,block_1/strong_n_119_1.wav,no,n,strong,119.0,2.241065743,12.1104535,,,,Yes,SONY MDR-P180,30+,no,f,53,R,yes,1,2020-08-08_23h03.30.895,kura-A1,2020.1.2,Linux x86_64,60,,,"[""space"",""space"",""space"",""space"",""space"",""space"",""space"",""space"",""space"",""space"",""space"",""space"",""space"",""space"",""space"",""space"",""space"",""space"",""space"",""space""]","[0.2681200000224635,1.0250499999383464,1.4390099999727681,1.9076299999142066,2.4645399999571964,2.949889999930747,3.4763899999670684,3.9937749999808148,4.516844999976456,5.00254000001587,5.535395000013523,6.036785000003874,6.538249999983236,7.063009999925271,7.536409999942407,8.041205000015907,8.622454999946058,9.115950000006706,9.641345000010915,10.13376499991864]",space,0.69614,0.0,19.0,19.0,19.0,1.0,,,,,,,,,,,,,
,,,,,,,,,,,block_1/medium_n_81_2.wav,no,n,medium,81.0,2.424750646,16.12729033,,,,Yes,SONY MDR-P180,30+,no,f,53,R,yes,1,2020-08-08_23h03.30.895,kura-A1,2020.1.2,Linux x86_64,60,,,"[""space"",""space"",""space"",""space"",""space"",""space"",""space"",""space"",""space"",""space"",""space"",""space"",""space"",""space"",""space"",""space"",""space"",""space"",""space"",""space""]","[0.21266499999910593,0.761545000015758,1.478579999995418,2.226204999955371,2.951505000004545,3.6045699999667704,4.297409999999218,5.006479999981821,5.738780000014231,6.471705000032671,7.140570000046864,7.825494999997318,8.51004500000272,9.219795000040904,9.920279999962077,10.612734999973327,11.322159999981523,12.02292999997735,12.731604999979027,13.408270000014454]",space,0.50282,0.0,20.0,20.0,34.0,1.0,,,,,,,,,,,,,
,,,,,,,,,,,block_1/weak_n_72_1.wav,no,n,weak,72.0,1.347131367,16.2574715,,,,Yes,SONY MDR-P180,30+,no,f,53,R,yes,1,2020-08-08_23h03.30.895,kura-A1,2020.1.2,Linux x86_64,60,,,"[""space"",""space"",""space"",""space"",""space"",""space"",""space"",""space"",""space"",""space"",""space"",""space"",""space"",""space"",""space"",""space"",""space"",""space"",""space"",""space""]","[0.36395999998785555,1.0715799999888986,1.9319799999939278,2.6972700000042096,3.5101049999939278,4.19391499995254,4.93577500001993,5.667929999995977,6.416880000033416,7.173745000036433,7.970480000018142,8.663584999972954,9.44438999996055,10.242590000038035,10.981964999926277,11.706589999957941,12.423734999960288,13.100250000017695,13.784834999940358,14.541989999939688]",space,0.35255,0.0,21.0,21.0,15.0,1.0,,,,,,,,,,,,,
,,,,,,,,,,,block_1/none_n_92_2.wav,no,n,none,92.0,1.514588051,14.14982615,,,,Yes,SONY MDR-P180,30+,no,f,53,R,yes,1,2020-08-08_23h03.30.895,kura-A1,2020.1.2,Linux x86_64,60,,,"[""space"",""space"",""space"",""space"",""space"",""space"",""space"",""space"",""space"",""space"",""space"",""space"",""space"",""space"",""space"",""space"",""space"",""space"",""space"",""space"",""space"",""space"",""space""]","[0.2590100000379607,0.9199700000463054,1.6377100000390783,2.2263350000139326,2.9509900000412017,3.5637050000950694,4.048795000067912,4.621615000069141,5.114860000088811,5.632370000006631,6.216205000062473,6.733650000067428,7.303970000008121,7.85343500005547,8.437735000043176,8.966995000024326,9.45999500004109,9.992825000081211,10.559755000052974,11.067185000050813,11.611865000100806,12.19745000009425,12.770800000056624]",space,0.619265,0.0,22.0,22.0,23.0,1.0,,,,,,,,,,,,,
,,,,,,,,,,,block_1/medium_n_119_1.wav,no,n,medium,119.0,1.649869951,11.21667267,,,,Yes,SONY MDR-P180,30+,no,f,53,R,yes,1,2020-08-08_23h03.30.895,kura-A1,2020.1.2,Linux x86_64,60,,,"[""space"",""space"",""space"",""space"",""space"",""space"",""space"",""space"",""space"",""space"",""space"",""space"",""space"",""space"",""space"",""space"",""space"",""space"",""space"",""space""]","[0.28497000003699213,1.1501899999566376,1.5548000000417233,1.9387550000101328,2.3499399999855086,2.8107099999906495,3.2885150000220165,3.793019999982789,4.33851000003051,4.823800000012852,5.3325999999651685,5.817750000045635,6.287054999964312,6.796714999945834,7.28937000001315,7.798425000044517,8.307499999995343,8.79335000005085,9.290189999970607,9.827969999983907]",space,0.68673,0.0,23.0,23.0,24.0,1.0,,,,,,,,,,,,,
,,,,,,,,,,,block_1/medium_n_72_1.wav,no,n,medium,72.0,1.188923945,17.15940014,,,,Yes,SONY MDR-P180,30+,no,f,53,R,yes,1,2020-08-08_23h03.30.895,kura-A1,2020.1.2,Linux x86_64,60,,,"[""space"",""space"",""space"",""space"",""space"",""space"",""space"",""space"",""space"",""space"",""space"",""space"",""space"",""space"",""space"",""space"",""space"",""space"",""space"",""space""]","[0.23813000007066876,1.2544550000457093,1.9670150000602007,2.763715000008233,3.5365100000053644,4.4214800000190735,5.113605000078678,5.935285000014119,6.818910000030883,7.655585000058636,8.404310000012629,9.177340000052936,9.9748799999943,10.827250000089407,11.63890000001993,12.332250000094064,13.144830000004731,13.951650000060908,14.803500000038184,15.582825000048615]",space,0.42042,0.0,24.0,24.0,10.0,1.0,,,,,,,,,,,,,
,,,,,,,,,,,block_1/none_n_92_1.wav,no,n,none,92.0,1.720415177,18.30862379,,,,Yes,SONY MDR-P180,30+,no,f,53,R,yes,1,2020-08-08_23h03.30.895,kura-A1,2020.1.2,Linux x86_64,60,,,"[""space"",""space"",""space"",""space"",""space"",""space"",""space"",""space"",""space"",""space"",""space"",""space"",""space"",""space"",""space"",""space"",""space"",""space"",""space"",""space"",""space"",""space""]","[0.23453500005416572,1.0468249999685213,1.8050400000065565,2.592079999973066,3.4089249999960884,4.306725000031292,5.1343650000635535,5.866984999971464,6.671594999963418,7.4686450000153854,8.203990000067279,8.938730000052601,9.602584999985993,10.343424999970011,11.116374999983236,11.920995000051335,12.701645000022836,13.484675000072457,14.295445000054315,14.908135000034235,15.560560000012629,16.261855000047944]",space,0.474145,0.0,25.0,25.0,20.0,1.0,,,,,,,,,,,,,
,,,,,,,,,,,block_1/medium_n_72_2.wav,no,n,medium,72.0,1.502389402,18.53467965,,,,Yes,SONY MDR-P180,30+,no,f,53,R,yes,1,2020-08-08_23h03.30.895,kura-A1,2020.1.2,Linux x86_64,60,,,"[""space"",""space"",""space"",""space"",""space"",""space"",""space"",""space"",""space"",""space"",""space"",""space"",""space"",""space"",""space"",""space"",""space"",""space"",""space"",""space""]","[0.24053000006824732,0.741344999987632,1.5715799999888986,2.518815000075847,3.4828599999891594,4.394730000058189,5.263210000004619,6.152240000083111,7.013925000093877,7.905400000046939,8.76706500002183,9.642735000001267,10.567520000040531,11.380450000055134,12.336175000062212,13.17261500004679,14.026080000097863,14.910455000004731,15.810800000093877,16.6473700000206]",space,0.545735,0.0,26.0,26.0,14.0,1.0,,,,,,,,,,,,,
,,,,,,,,,,,block_1/weak_n_72_2.wav,no,n,weak,72.0,2.426446225,22.38744396,,,,Yes,SONY MDR-P180,30+,no,f,53,R,yes,1,2020-08-08_23h03.30.895,kura-A1,2020.1.2,Linux x86_64,60,,,"[""space"",""space"",""space"",""space"",""space"",""space"",""space"",""space"",""space"",""space"",""space"",""space"",""space"",""space"",""space"",""space"",""space"",""space"",""space"",""space""]","[0.22875499993097037,0.8087999999988824,2.039574999944307,3.125209999969229,4.134129999903962,5.06610999989789,6.199334999895655,7.106439999886788,8.104299999889918,9.14710499998182,10.22605499997735,11.19695499993395,12.232209999929182,13.292589999968186,14.336549999890849,15.373459999915212,16.465449999901466,17.43861499999184,18.466074999887496,19.5025649999734]",space,0.372095,0.0,27.0,27.0,11.0,1.0,,,,,,,,,,,,,
,,,,,,,,,,,block_1/medium_n_105_2.wav,no,n,medium,105.0,2.100494097,12.22140113,,,,Yes,SONY MDR-P180,30+,no,f,53,R,yes,1,2020-08-08_23h03.30.895,kura-A1,2020.1.2,Linux x86_64,60,,,"[""space"",""space"",""space"",""space"",""space"",""space"",""space"",""space"",""space"",""space"",""space"",""space"",""space"",""space"",""space"",""space"",""space"",""space"",""space"",""space""]","[0.24454500002320856,1.0496850000927225,1.6382500000763685,2.1562300000805408,2.5769150000996888,3.0616200000513345,3.5877500000642613,4.080279999994673,4.6137750000925735,5.106375000090338,5.6232350000645965,6.166195000056177,6.641830000095069,7.168040000018664,7.669745000079274,8.210120000061579,8.750950000016019,9.423700000043027,9.881015000049956,10.38167000003159]",space,0.77826,0.0,28.0,28.0,3.0,1.0,,,,,,,,,,,,,
,,,,,,,,,,,block_1/weak_n_119_1.wav,no,n,weak,119.0,2.415285966,11.72966238,,,,Yes,SONY MDR-P180,30+,no,f,53,R,yes,1,2020-08-08_23h03.30.895,kura-A1,2020.1.2,Linux x86_64,60,,,"[""space"",""space"",""space"",""space"",""space"",""space"",""space"",""space"",""space"",""space"",""space"",""space"",""space"",""space"",""space"",""space"",""space"",""space"",""space"",""space""]","[0.2594100000569597,0.9687600000761449,1.4132800000952557,1.8048950000666082,2.2887200000695884,2.8137200000928715,3.3087999999988824,3.7678950000554323,4.228824999998324,4.737765000085346,5.231465000077151,5.716415000031702,6.202005000086501,6.686495000030845,7.100925000035204,7.568635000032373,8.126490000053309,8.595885000075214,9.056345000048168,9.550235000089742]",space,0.42506,0.0,29.0,29.0,38.0,1.0,,,,,,,,,,,,,
,,,,,,,,,,,block_1/strong_n_81_2.wav,no,n,strong,81.0,1.452361164,16.6150369,,,,Yes,SONY MDR-P180,30+,no,f,53,R,yes,1,2020-08-08_23h03.30.895,kura-A1,2020.1.2,Linux x86_64,60,,,"[""space"",""space"",""space"",""space"",""space"",""space"",""space"",""space"",""space"",""space"",""space"",""space"",""space"",""space"",""space"",""space"",""space"",""space"",""space"",""space"",""space""]","[0.6426800000481308,1.337705000070855,1.9886000000406057,2.7127849999815226,3.445835000020452,4.244655000045896,4.963330000056885,5.732275000074878,6.472965000080876,7.2303150000516325,8.011620000004768,8.767950000008568,9.49945000000298,10.280759999994189,10.998405000078492,11.770559999975376,12.566875000018626,13.316300000064075,14.051270000054501,14.797325000050478,15.605689999996684]",space,0.51133,0.0,30.0,30.0,8.0,1.0,,,,,,,,,,,,,
,,,,,,,,,,,block_1/strong_n_92_2.wav,no,n,strong,92.0,2.185421936,15.68737205,,,,Yes,SONY MDR-P180,30+,no,f,53,R,yes,1,2020-08-08_23h03.30.895,kura-A1,2020.1.2,Linux x86_64,60,,,"[""space"",""space"",""space"",""space"",""space"",""space"",""space"",""space"",""space"",""space"",""space"",""space"",""space"",""space"",""space"",""space"",""space"",""space"",""space"",""space"",""space""]","[0.2546899999724701,0.7798349999357015,1.2411899999715388,1.9905049999943003,2.714724999968894,3.4094399999594316,4.078234999906272,4.762499999953434,5.486299999989569,6.187264999956824,6.927885000011884,7.628764999913983,8.305189999984577,8.975284999934956,9.691559999948367,10.384054999914952,11.094819999998435,11.779764999984764,12.46469499997329,13.155809999909252,13.88511999999173]",space,0.41045,0.0,31.0,31.0,39.0,1.0,,,,,,,,,,,,,
,,,,,,,,,,,block_1/weak_n_105_1.wav,no,n,weak,105.0,1.735757625,11.75240162,,,,Yes,SONY MDR-P180,30+,no,f,53,R,yes,1,2020-08-08_23h03.30.895,kura-A1,2020.1.2,Linux x86_64,60,,,"[""space"",""space"",""space"",""space"",""space"",""space"",""space"",""space"",""space"",""space"",""space"",""space"",""space"",""space"",""space"",""space"",""space"",""space"",""space"",""space"",""space"",""space""]","[0.26848500000778586,0.7201499999500811,1.1482049999758601,1.5219250000081956,1.9748100000433624,2.4442950000520796,2.970065000001341,3.4262549999402836,3.9266099999658763,4.394974999944679,4.862919999985024,5.371090000029653,5.904704999993555,6.358030000003055,6.819344999967143,7.320175000000745,7.805939999991097,8.290939999977127,8.783859999966808,9.276459999964572,9.761855000047944,10.242689999984577]",space,0.46902,0.0,32.0,32.0,27.0,1.0,,,,,,,,,,,,,
,,,,,,,,,,,block_1/strong_n_105_1.wav,no,n,strong,105.0,1.182925411,14.58124741,,,,Yes,SONY MDR-P180,30+,no,f,53,R,yes,1,2020-08-08_23h03.30.895,kura-A1,2020.1.2,Linux x86_64,60,,,"[""space"",""space"",""space"",""space"",""space"",""space"",""space"",""space"",""space"",""space"",""space"",""space"",""space"",""space"",""space"",""space"",""space"",""space"",""space"",""space"",""space""]","[0.4447849999414757,1.0823500000406057,1.6471349999774247,2.2916549999499694,2.9689950000029057,3.6383350000251085,4.346600000048056,4.999055000022054,5.676585000008345,6.369169999961741,7.038365000043996,7.707135000033304,8.391904999967664,9.060910000000149,9.724384999950416,10.430330000002868,11.1117249999661,11.796454999945126,12.46909999998752,13.149839999969117,13.801110000000335]",space,0.602295,0.0,33.0,33.0,13.0,1.0,,,,,,,,,,,,,
,,,,,,,,,,,block_1/weak_n_92_1.wav,no,n,weak,92.0,2.164314711,15.90903126,,,,Yes,SONY MDR-P180,30+,no,f,53,R,yes,1,2020-08-08_23h03.30.895,kura-A1,2020.1.2,Linux x86_64,60,,,"[""space"",""space"",""space"",""space"",""space"",""space"",""space"",""space"",""space"",""space"",""space"",""space"",""space"",""space"",""space"",""space"",""space"",""space"",""space"",""space"",""space""]","[0.2544950000010431,1.114534999942407,1.9117550000082701,2.285715000005439,2.891704999958165,3.5264149999711663,4.21965999994427,4.816809999989346,5.501154999947175,6.162544999970123,6.855409999960102,7.536005000001751,8.225370000000112,8.861960000009276,9.514830000000075,10.184009999968112,10.804854999994859,11.473944999976084,12.118704999913462,12.803725000005215,13.536359999910928]",space,0.560615,0.0,34.0,34.0,2.0,1.0,,,,,,,,,,,,,
,,,,,,,,,,,block_1/medium_n_92_1.wav,no,n,medium,92.0,2.383742627,17.50115759,,,,Yes,SONY MDR-P180,30+,no,f,53,R,yes,1,2020-08-08_23h03.30.895,kura-A1,2020.1.2,Linux x86_64,60,,,"[""space"",""space"",""space"",""space"",""space"",""space"",""space"",""space"",""space"",""space"",""space"",""space"",""space"",""space"",""space"",""space"",""space"",""space"",""space"",""space""]","[0.228705000015907,0.685520000057295,1.1267099999822676,2.1146899999585003,3.047645000042394,3.9158550000283867,4.680649999994785,5.285595000023022,6.066304999985732,6.823345000040717,7.644124999991618,8.420834999997169,9.256389999995008,10.018000000040047,10.81475500005763,11.662344999960624,12.464509999961592,13.182649999973364,14.01781500002835,14.790290000033565]",space,0.371645,0.0,35.0,35.0,5.0,1.0,,,,,,,,,,,,,
,,,,,,,,,,,block_1/none_n_72_1.wav,no,n,none,72.0,1.339316998,21.90480453,,,,Yes,SONY MDR-P180,30+,no,f,53,R,yes,1,2020-08-08_23h03.30.895,kura-A1,2020.1.2,Linux x86_64,60,,,"[""space"",""space"",""space"",""space"",""space"",""space"",""space"",""space"",""space"",""space"",""space"",""space"",""space"",""space"",""space"",""space"",""space"",""space"",""space"",""space"",""space"",""space"",""space"",""space"",""space"",""space"",""space"",""space"",""space"",""space"",""space"",""space"",""space"",""space"",""space"",""space"",""space"",""space"",""space"",""space"",""space"",""space""]","[0.2681350000202656,0.8653700000140816,1.3424850000301376,2.02249500004109,2.584525000071153,3.0538500000257045,3.578525000018999,4.015780000016093,4.453555000014603,4.914675000007264,5.367705000098795,5.76499000005424,6.202795000048354,6.712295000092126,7.221030000015162,7.641940000001341,8.127435000031255,8.572780000045896,9.058045000070706,9.54342500003986,10.027920000022277,10.529055000049993,11.022945000091568,11.524130000034347,12.120900000096299,12.665265000076033,13.187250000075437,13.712355000083335,14.2134350000415,14.691020000027493,15.137905000010505,15.597300000023097,16.11444500007201,16.674875000026077,17.142995000001974,17.627360000042245,18.166375000029802,18.67977000004612,19.20172500004992,19.66513500001747,20.167090000002645,20.634530000039376]",space,0.38603,0.0,36.0,36.0,18.0,1.0,,,,,,,,,,,,,
,,,,,,,,,,,block_1/weak_n_81_1.wav,no,n,weak,81.0,1.583230306,14.42368382,,,,Yes,SONY MDR-P180,30+,no,f,53,R,yes,1,2020-08-08_23h03.30.895,kura-A1,2020.1.2,Linux x86_64,60,,,"[""space"",""space"",""space"",""space"",""space"",""space"",""space"",""space"",""space"",""space"",""space"",""space"",""space"",""space"",""space"",""space"",""space"",""space"",""space"",""space"",""space"",""space""]","[0.2526450000004843,0.7298449999652803,1.1866699999663979,1.7395249999826774,2.457345000002533,3.0251749999588355,3.6503100000554696,4.3117899999488145,4.9966199999907985,5.610744999954477,6.166934999986552,6.834980000043288,7.5283650000346825,8.148969999980181,8.772875000024214,9.367884999956004,10.012130000046454,10.688955000019632,11.270340000046417,11.90741500002332,12.535965000046417,13.124945000046864]",space,0.3519,0.0,37.0,37.0,35.0,1.0,,,,,,,,,,,,,
,,,,,,,,,,,block_1/none_n_119_1.wav,no,n,none,119.0,2.383659144,14.54474758,,,,Yes,SONY MDR-P180,30+,no,f,53,R,yes,1,2020-08-08_23h03.30.895,kura-A1,2020.1.2,Linux x86_64,60,,,"[""space"",""space"",""space"",""space"",""space"",""space"",""space"",""space"",""space"",""space"",""space"",""space"",""space"",""space"",""space"",""space"",""space"",""space"",""space"",""space"",""space"",""space"",""space"",""space"",""space"",""space"",""space"",""space""]","[0.2510149999288842,0.8235449999338016,1.2536299999337643,1.5939950000029057,1.991814999957569,2.4288649999070913,2.8985399999655783,3.351670000003651,3.7487249999539927,4.14649999991525,4.561849999940023,4.997319999965839,5.426139999995939,5.848074999987148,6.300959999905899,6.721474999911152,7.135374999954365,7.5723399999551475,7.986849999986589,8.400094999931753,8.822184999939054,9.27452999993693,9.694810000015423,10.180199999944307,10.633990000002086,11.10278999991715,11.572534999926575,12.013079999946058]",space,0.40269,0.0,38.0,38.0,22.0,1.0,,,,,,,,,,,,,
,,,,,,,,,,,block_1/none_n_81_1.wav,no,n,none,81.0,1.16825706,17.43084209,,,,Yes,SONY MDR-P180,30+,no,f,53,R,yes,1,2020-08-08_23h03.30.895,kura-A1,2020.1.2,Linux x86_64,60,,,"[""space"",""space"",""space"",""space"",""space"",""space"",""space"",""space"",""space"",""space"",""space"",""space"",""space"",""space"",""space"",""space"",""space"",""space"",""space"",""space"",""space"",""space"",""space"",""space"",""space"",""space"",""space"",""space"",""space""]","[0.23430999997071922,0.7523100000107661,1.173244999954477,1.8050100000109524,2.40734000003431,3.052559999981895,3.769014999968931,4.59066999994684,5.2303850000025705,5.8549999999813735,6.507925000041723,7.129399999976158,7.702604999998584,8.323214999982156,8.888949999934994,9.37370999995619,9.9412800000282,10.463959999964572,10.972940000006929,11.465964999981225,12.023505000048317,12.620224999962375,13.217844999977387,13.77417999994941,14.319000000017695,14.857160000014119,15.374089999939315,15.874485000036657,16.367889999994077]",space,0.37094,0.0,39.0,39.0,29.0,1.0,,,,,,,,,,,,,
,,,,,,,,,,,block_2/weak_t_92_1.wav,timbre,t,weak,92.0,1.077881565,14.47407204,,,,Yes,SONY MDR-P180,30+,no,f,53,R,yes,1,2020-08-08_23h03.30.895,kura-A1,2020.1.2,Linux x86_64,60,,,,,,,,,,,,space,10.52826,"[""space"",""space"",""space"",""space"",""space"",""space"",""space"",""space"",""space"",""space"",""space"",""space"",""space"",""space"",""space"",""space"",""space"",""space"",""space"",""space""]","[0.3181099999928847,0.9061050000600517,1.4394249999895692,2.3159250000026077,2.912914999993518,3.543390000006184,4.411410000058822,5.247525000013411,5.844369999947958,6.473360000061803,7.085665000020526,7.786764999968,8.51182500005234,9.213250000029802,9.761780000058934,10.422580000013113,11.112324999994598,11.784420000039972,12.42104000004474,13.082844999968074]",space,0.58166,0.0,0.0,0.0,33.0,1.0,,
,,,,,,,,,,,block_2/strong_t_92_2.wav,timbre,t,strong,92.0,2.142189268,15.39026183,,,,Yes,SONY MDR-P180,30+,no,f,53,R,yes,1,2020-08-08_23h03.30.895,kura-A1,2020.1.2,Linux x86_64,60,,,,,,,,,,,,,,"[""space"",""space"",""space"",""space"",""space"",""space"",""space"",""space"",""space"",""space"",""space"",""space"",""space"",""space"",""space"",""space"",""space"",""space"",""space"",""space"",""space""]","[0.268804999999702,0.7295300000114366,1.446765000000596,2.1077949999598786,2.776534999953583,3.4416999999666587,4.138749999925494,4.823179999948479,5.4682599999941885,6.176699999952689,6.861129999975674,7.518654999905266,8.215854999958538,8.871999999973923,9.556824999977835,10.230024999938905,10.866869999910705,11.535470000002533,12.221009999979287,12.931404999922961,13.622540000011213]",space,0.81407,0.0,1.0,1.0,3.0,1.0,,
,,,,,,,,,,,block_2/strong_t_72_2.wav,timbre,t,strong,72.0,2.404328943,17.8229684,,,,Yes,SONY MDR-P180,30+,no,f,53,R,yes,1,2020-08-08_23h03.30.895,kura-A1,2020.1.2,Linux x86_64,60,,,,,,,,,,,,,,"[""space"",""space"",""space"",""space"",""space"",""space"",""space"",""space"",""space"",""space"",""space"",""space"",""space"",""space"",""space"",""space"",""space"",""space"",""space"",""space"",""space""]","[0.3110349999042228,0.9363749999320135,1.5450849999906495,2.3575449999189004,3.1624299999093637,3.9360149999847636,4.772359999944456,5.564204999944195,6.389104999951087,7.137569999904372,7.910769999958575,8.683704999973997,9.511954999994487,10.284944999963045,11.089534999919124,11.885924999951385,12.666284999926575,13.483524999930523,14.260844999924302,15.049479999928735,15.845384999993257]",space,0.485375,0.0,2.0,2.0,6.0,1.0,,
,,,,,,,,,,,block_2/strong_t_119_1.wav,timbre,t,strong,119.0,1.599889289,11.56710017,,,,Yes,SONY MDR-P180,30+,no,f,53,R,yes,1,2020-08-08_23h03.30.895,kura-A1,2020.1.2,Linux x86_64,60,,,,,,,,,,,,,,"[""space"",""space"",""space"",""space"",""space"",""space"",""space"",""space"",""space"",""space"",""space"",""space"",""space"",""space"",""space"",""space"",""space"",""space"",""space"",""space"",""space""]","[0.4018449999857694,0.8867050000699237,1.2663000000175089,1.7107400000095367,2.2065300000831485,2.724570000078529,3.2255049999803305,3.7099500000476837,4.211454999982379,4.6858300000894815,5.170389999984764,5.681809999980032,6.18894000002183,6.717694999999367,7.218445000005886,7.6865100000286475,8.177435000077821,8.672245000023395,9.17992000002414,9.680980000062846,10.1756550000282]",space,0.48017,0.0,3.0,3.0,27.0,1.0,,
,,,,,,,,,,,block_2/strong_t_105_2.wav,timbre,t,strong,105.0,1.902812304,12.72943362,,,,Yes,SONY MDR-P180,30+,no,f,53,R,yes,1,2020-08-08_23h03.30.895,kura-A1,2020.1.2,Linux x86_64,60,,,,,,,,,,,,,,"[""space"",""space"",""space"",""space"",""space"",""space"",""space"",""space"",""space"",""space"",""space"",""space"",""space"",""space"",""space"",""space"",""space"",""space"",""space"",""space"",""space""]","[0.23662499990314245,0.7942999999504536,1.2386899999110028,1.764394999947399,2.2815999999875203,2.7906199999852106,3.3721199999563396,3.920864999992773,4.495299999951385,4.996404999983497,5.560094999964349,6.116709999972954,6.650384999928065,7.191259999992326,7.7646949999034405,8.30523999989964,8.894235000014305,9.411609999951907,9.976324999937788,10.533519999939017,11.066954999929294]",space,0.5061,0.0,4.0,4.0,22.0,1.0,,
,,,,,,,,,,,block_2/none_t_119_2.wav,timbre,t,none,119.0,1.129624063,11.70173291,,,,Yes,SONY MDR-P180,30+,no,f,53,R,yes,1,2020-08-08_23h03.30.895,kura-A1,2020.1.2,Linux x86_64,60,,,,,,,,,,,,,,"[""space"",""space"",""space"",""space"",""space"",""space"",""space"",""space"",""space"",""space"",""space"",""space"",""space"",""space"",""space"",""space"",""space""]","[0.3197100000688806,0.9364700000733137,1.649805000051856,2.273494999972172,2.7800099999876693,3.2974900000263005,3.99756500008516,4.71468500001356,5.359739999985322,6.020254999981262,6.617949999985285,7.279255000059493,8.02738500002306,8.712200000067241,9.45367499999702,10.025720000034198,10.766490000067279]",space,0.619305,0.0,5.0,5.0,35.0,1.0,,
,,,,,,,,,,,block_2/weak_t_81_2.wav,timbre,t,weak,81.0,1.659662472,15.06274637,,,,Yes,SONY MDR-P180,30+,no,f,53,R,yes,1,2020-08-08_23h03.30.895,kura-A1,2020.1.2,Linux x86_64,60,,,,,,,,,,,,,,"[""space"",""space"",""space"",""space"",""space"",""space"",""space"",""space"",""space"",""space"",""space"",""space"",""space"",""space"",""space"",""space"",""space"",""space"",""space"",""space""]","[0.23632499994710088,0.7860949999885634,1.2624649999197572,1.8558999999659136,2.59257500001695,3.2255749999312684,3.8828799999319017,4.63087499991525,5.380750000011176,6.065424999920651,6.820814999984577,7.603009999962524,8.254794999957085,8.940074999933131,9.657664999947883,10.34932999999728,11.01825999992434,11.687019999953918,12.388109999941662,13.116685000015423]",space,0.46222,0.0,6.0,6.0,5.0,1.0,,
,,,,,,,,,,,block_2/strong_t_81_2.wav,timbre,t,strong,81.0,1.682183604,15.83846478,,,,Yes,SONY MDR-P180,30+,no,f,53,R,yes,1,2020-08-08_23h03.30.895,kura-A1,2020.1.2,Linux x86_64,60,,,,,,,,,,,,,,"[""space"",""space"",""space"",""space"",""space"",""space"",""space"",""space"",""space"",""space"",""space"",""space"",""space"",""space"",""space"",""space"",""space"",""space"",""space"",""space"",""space""]","[0.23776499996893108,0.9377249999670312,1.6074550000485033,2.292245000018738,2.961375000071712,3.7102949999971315,4.40300000004936,5.151435000007041,5.8447650000452995,6.617665000027046,7.325704999966547,8.042630000039935,8.759530000039376,9.443845000001602,10.153080000076443,10.877504999982193,11.646360000013374,12.331265000044368,13.076809999998659,13.777454999973997,14.486320000025444]",space,0.339005,0.0,7.0,7.0,26.0,1.0,,
,,,,,,,,,,,block_2/none_t_81_1.wav,timbre,t,none,81.0,1.797175978,16.13359321,,,,Yes,SONY MDR-P180,30+,no,f,53,R,yes,1,2020-08-08_23h03.30.895,kura-A1,2020.1.2,Linux x86_64,60,,,,,,,,,,,,,,"[""space"",""space"",""space"",""space"",""space"",""space"",""space"",""space"",""space"",""space"",""space"",""space"",""space"",""space"",""space"",""space"",""space"",""space"",""space"",""space"",""space"",""space"",""space"",""space"",""space"",""space"",""space"",""space""]","[0.2423800000688061,0.7354699999559671,1.1976049999939278,1.6215899999951944,2.1258650000672787,2.5800700000254437,3.0658350000157952,3.5831600000383332,4.2280200000386685,4.696850000065751,5.198190000024624,5.651190000004135,6.116039999993518,6.583760000066832,7.085049999994226,7.586565000005066,8.093564999988303,8.610790000064299,9.09065999998711,9.580829999991693,10.145774999982677,10.72742000001017,11.212324999971315,11.82524499995634,12.527379999984987,13.067984999972396,13.56834500003606,14.18914999999106]",space,0.4032,0.0,8.0,8.0,11.0,1.0,,
,,,,,,,,,,,block_2/none_t_92_1.wav,timbre,t,none,92.0,2.07216362,14.90350149,,,,Yes,SONY MDR-P180,30+,no,f,53,R,yes,1,2020-08-08_23h03.30.895,kura-A1,2020.1.2,Linux x86_64,60,,,,,,,,,,,,,,"[""space"",""space"",""space"",""space"",""space"",""space"",""space"",""space"",""space"",""space"",""space"",""space"",""space"",""space"",""space"",""space"",""space"",""space"",""space"",""space"",""space"",""space""]","[0.2854100000113249,1.02527999994345,1.6785300000337884,2.243529999977909,2.87437500001397,3.501300000003539,4.078839999972843,4.639815000002272,5.22011500003282,5.833274999982677,6.422484999988228,6.98781500000041,7.561080000014044,8.181420000037178,8.755449999938719,9.30692000000272,10.037254999973811,10.61742000002414,11.166414999985136,11.65171999996528,12.180489999940619,12.654504999984056]",space,0.522105,0.0,9.0,9.0,15.0,1.0,,
,,,,,,,,,,,block_2/strong_t_72_1.wav,timbre,t,strong,72.0,1.104397067,17.67881884,,,,Yes,SONY MDR-P180,30+,no,f,53,R,yes,1,2020-08-08_23h03.30.895,kura-A1,2020.1.2,Linux x86_64,60,,,,,,,,,,,,,,"[""space"",""space"",""space"",""space"",""space"",""space"",""space"",""space"",""space"",""space"",""space"",""space"",""space"",""space"",""space"",""space"",""space"",""space"",""space"",""space"",""space""]","[0.6942049999488518,1.4588699999731034,2.2313849999336526,3.044244999997318,3.843754999921657,4.701329999952577,5.5061749999877065,6.319024999975227,7.164004999911413,7.969900000025518,8.80547999998089,9.63382999994792,10.461974999983795,11.245004999917,12.135329999960959,12.916214999975637,13.752649999922141,14.569054999970831,15.434249999932945,16.19891999999527,17.051370000001043]",space,0.67587,0.0,10.0,10.0,9.0,1.0,,
,,,,,,,,,,,block_2/weak_t_105_2.wav,timbre,t,weak,105.0,2.1216156,16.06451809,,,,Yes,SONY MDR-P180,30+,no,f,53,R,yes,1,2020-08-08_23h03.30.895,kura-A1,2020.1.2,Linux x86_64,60,,,,,,,,,,,,,,"[""space"",""space"",""space"",""space"",""space"",""space"",""space"",""space"",""space"",""space"",""space"",""space"",""space"",""space"",""space"",""space"",""space"",""space"",""space"",""space""]","[0.2546900000888854,0.9148699999786913,1.90589000005275,2.7162000000244007,3.3368650000775233,3.901480000000447,4.678659999975935,5.423999999999069,6.235955000040121,7.25171500002034,7.870259999996051,8.48230999999214,9.135430000023916,9.828020000015385,10.466870000003837,11.206185000017285,11.86308999999892,12.576025000074878,13.340339999995194,14.129124999977648]",space,0.540105,0.0,11.0,11.0,2.0,1.0,,
,,,,,,,,,,,block_2/none_t_105_2.wav,timbre,t,none,105.0,1.468449628,14.54844963,,,,Yes,SONY MDR-P180,30+,no,f,53,R,yes,1,2020-08-08_23h03.30.895,kura-A1,2020.1.2,Linux x86_64,60,,,,,,,,,,,,,,"[""space"",""space"",""space"",""space"",""space"",""space"",""space"",""space"",""space"",""space"",""space"",""space"",""space"",""space"",""space"",""space"",""space"",""space"",""space"",""space"",""space"",""space"",""space""]","[0.26825999992433935,0.758544999989681,1.3001849999418482,1.906044999952428,2.598230000003241,3.2664099999237806,3.82667500001844,4.42828999995254,4.969559999997728,5.527224999968894,6.092014999943785,6.656789999920875,7.270434999954887,7.887174999923445,8.521865000016987,9.06952000001911,9.561914999969304,10.088370000012219,10.628269999986514,11.178244999959134,11.713295000023209,12.260284999967553,12.794274999992922]",space,0.539095,0.0,12.0,12.0,14.0,1.0,,
,,,,,,,,,,,block_2/weak_t_72_2.wav,timbre,t,weak,72.0,2.280914128,17.55202524,,,,Yes,SONY MDR-P180,30+,no,f,53,R,yes,1,2020-08-08_23h03.30.895,kura-A1,2020.1.2,Linux x86_64,60,,,,,,,,,,,,,,"[""space"",""space"",""space"",""space"",""space"",""space"",""space"",""space"",""space"",""space"",""space"",""space"",""space"",""space"",""space"",""space"",""space"",""space"",""space"",""space"",""space""]","[0.2514400000218302,0.761875000083819,1.287415000027977,1.9312449999852106,2.943930000066757,3.91620000009425,4.579009999986738,5.317890000063926,6.099260000046343,6.934895000071265,7.788065000087954,8.664130000048317,9.309055000077933,10.066160000045784,10.838970000040717,11.571830000029877,12.376634999993257,13.1408250000095,14.00164999999106,14.758529999991879,15.579505000030622]",space,0.494765,0.0,13.0,13.0,25.0,1.0,,
,,,,,,,,,,,block_2/strong_t_92_1.wav,timbre,t,strong,92.0,2.398655974,13.52958568,,,,Yes,SONY MDR-P180,30+,no,f,53,R,yes,1,2020-08-08_23h03.30.895,kura-A1,2020.1.2,Linux x86_64,60,,,,,,,,,,,,,,"[""space"",""space"",""space"",""space"",""space"",""space"",""space"",""space"",""space"",""space"",""space"",""space"",""space"",""space"",""space"",""space"",""space"",""space"",""space"",""space""]","[0.3082449999637902,1.0364650000119582,1.5901249999878928,2.1955299999099225,2.7846999999601394,3.375649999943562,3.9227399999508634,4.495039999950677,5.096260000020266,5.649394999956712,6.238374999957159,6.787529999972321,7.377194999950007,7.958274999982677,8.555044999928214,9.1239849999547,9.71684499992989,10.258919999934733,10.846759999985807,11.412009999970905]",space,0.553685,0.0,14.0,14.0,1.0,1.0,,
,,,,,,,,,,,block_2/none_t_72_1.wav,timbre,t,none,72.0,1.393664986,20.37801873,,,,Yes,SONY MDR-P180,30+,no,f,53,R,yes,1,2020-08-08_23h03.30.895,kura-A1,2020.1.2,Linux x86_64,60,,,,,,,,,,,,,,"[""space"",""space"",""space"",""space"",""space"",""space"",""space"",""space"",""space"",""space"",""space"",""space"",""space"",""space"",""space"",""space"",""space"",""space"",""space"",""space"",""space"",""space"",""space"",""space"",""space"",""space"",""space"",""space"",""space"",""space"",""space"",""space"",""space"",""space""]","[0.27323000004980713,0.9824000000953674,1.658530000015162,2.4900100000668317,3.3158650000113994,3.9530150000937283,4.470140000106767,5.013030000030994,5.5145400000037625,6.015480000060052,6.533085000002757,7.120200000004843,7.765040000085719,8.265845000045374,8.7269100000849,9.2687900000019,9.802410000003874,10.334280000068247,10.8283250000095,11.353110000025481,11.8219950000057,12.450915000052191,12.952270000008866,13.469385000062175,13.994300000020303,14.495580000104383,15.02882500004489,15.605340000009164,16.167075000004843,16.731680000084452,17.328925000037998,17.854230000055395,18.39620499999728,18.95213000010699]",space,0.62081,0.0,15.0,15.0,23.0,1.0,,
,,,,,,,,,,,block_2/medium_t_119_1.wav,timbre,t,medium,119.0,2.133191859,13.15799912,,,,Yes,SONY MDR-P180,30+,no,f,53,R,yes,1,2020-08-08_23h03.30.895,kura-A1,2020.1.2,Linux x86_64,60,,,,,,,,,,,,,,"[""space"",""space"",""space"",""space"",""space"",""space"",""space"",""space"",""space"",""space"",""space"",""space"",""space"",""space"",""space"",""space"",""space"",""space"",""space""]","[0.2581149999750778,1.198149999952875,2.1139849999453872,2.6787149999290705,3.179699999978766,3.777364999987185,4.391010000021197,4.915395000018179,5.464489999925718,6.005424999981187,6.5336249999236315,7.088069999939762,7.628810000023805,8.16148999996949,8.688729999936186,9.256425000028685,9.745914999977686,10.27168000000529,10.803689999971539]",space,0.281235,0.0,16.0,16.0,34.0,1.0,,
,,,,,,,,,,,block_2/strong_t_105_1.wav,timbre,t,strong,105.0,2.348438476,14.79111421,,,,Yes,SONY MDR-P180,30+,no,f,53,R,yes,1,2020-08-08_23h03.30.895,kura-A1,2020.1.2,Linux x86_64,60,,,,,,,,,,,,,,"[""space"",""space"",""space"",""space"",""space"",""space"",""space"",""space"",""space"",""space"",""space"",""space"",""space"",""space"",""space"",""space"",""space"",""space"",""space"",""space""]","[0.4348649999592453,1.2545099999988452,1.8278500000014901,2.4805999998934567,3.0868149999296293,3.754629999981262,4.394959999946877,5.085129999904893,5.66526999999769,6.33462499990128,6.9873549999902025,7.6239999999525025,8.277114999946207,8.930519999936223,9.57476999994833,10.204444999922998,10.977849999908358,11.533944999915548,12.163474999950267,12.816454999963753]",space,0.786165,0.0,17.0,17.0,20.0,1.0,,
,,,,,,,,,,,block_2/weak_t_119_2.wav,timbre,t,weak,119.0,2.381776461,12.65062,,,,Yes,SONY MDR-P180,30+,no,f,53,R,yes,1,2020-08-08_23h03.30.895,kura-A1,2020.1.2,Linux x86_64,60,,,,,,,,,,,,,,"[""space"",""space"",""space"",""space"",""space"",""space"",""space"",""space"",""space"",""space"",""space"",""space"",""space"",""space"",""space"",""space"",""space"",""space"",""space"",""space"",""space""]","[0.23468999995384365,0.9105050000362098,1.547539999941364,2.024600000004284,2.590184999979101,3.1089350000256673,3.6479299999773502,4.212754999985918,4.682539999950677,5.087455000029877,5.525084999972023,6.010815000045113,6.479550000047311,6.967839999939315,7.457844999968074,7.936845000018366,8.45513499993831,8.945199999958277,9.474784999969415,10.019575000042096,10.512379999971017]",space,0.268045,0.0,18.0,18.0,13.0,1.0,,
,,,,,,,,,,,block_2/medium_t_92_2.wav,timbre,t,medium,92.0,2.383848972,15.42820271,,,,Yes,SONY MDR-P180,30+,no,f,53,R,yes,1,2020-08-08_23h03.30.895,kura-A1,2020.1.2,Linux x86_64,60,,,,,,,,,,,,,,"[""space"",""space"",""space"",""space"",""space"",""space"",""space"",""space"",""space"",""space"",""space"",""space"",""space"",""space"",""space"",""space"",""space"",""space"",""space"",""space""]","[0.23560999997425824,0.9917750000022352,1.6884399999398738,2.3297549999551848,2.999239999917336,3.5882699999492615,4.185034999973141,4.878649999969639,5.58082499995362,6.249249999993481,6.972719999961555,7.641134999925271,8.262104999972507,8.946849999949336,9.6077449999284,10.27680499991402,10.827004999970086,11.49574499996379,12.092070000013337,12.776620000018738]",space,0.3192,0.0,19.0,19.0,32.0,1.0,,
,,,,,,,,,,,block_2/none_t_92_2.wav,timbre,t,none,92.0,1.981316359,18.5242642,,,,Yes,SONY MDR-P180,30+,no,f,53,R,yes,1,2020-08-08_23h03.30.895,kura-A1,2020.1.2,Linux x86_64,60,,,,,,,,,,,,,,"[""space"",""space"",""space"",""space"",""space"",""space"",""space"",""space"",""space"",""space"",""space"",""space"",""space"",""space"",""space"",""space"",""space"",""space"",""space"",""space"",""space"",""space"",""space"",""space"",""space"",""space"",""space"",""space"",""space"",""space""]","[0.26143499999307096,0.8531199999852106,1.5433650000486523,2.1397450000513345,2.7931350000435486,3.3600200000219047,3.8113150000572205,4.2805650000227615,4.869534999947064,5.514960000058636,6.082449999987148,6.605040000053123,7.114984999992885,7.663560000015423,8.276414999971166,8.865244999993593,9.407869999995455,9.908605000004172,10.416555000003427,11.00569500005804,11.530610000016168,12.103559999959543,12.615334999980405,13.050560000003316,13.567505000042729,14.156154999975115,14.787544999970123,15.374455000041053,15.851434999960475,16.368490000022575]",space,0.522535,0.0,20.0,20.0,18.0,1.0,,
,,,,,,,,,,,block_2/weak_t_92_2.wav,timbre,t,weak,92.0,1.897128492,17.06302418,,,,Yes,SONY MDR-P180,30+,no,f,53,R,yes,1,2020-08-08_23h03.30.895,kura-A1,2020.1.2,Linux x86_64,60,,,,,,,,,,,,,,"[""space"",""space"",""space"",""space"",""space"",""space"",""space"",""space"",""space"",""space"",""space"",""space"",""space"",""space"",""space"",""space"",""space"",""space"",""space"",""space"",""space""]","[0.23766999994404614,0.7948150000302121,1.371419999981299,2.212279999977909,3.0332649999763817,3.8540600000414997,4.61811999999918,5.415174999972805,6.2355850000167266,6.992330000037327,7.836780000012368,8.59465999994427,9.318725000019185,10.092214999953285,10.84430999995675,11.63685499993153,12.474124999949709,13.216069999965839,13.65151999995578,14.035269999993034,14.757894999929704]",space,1.907,0.0,21.0,21.0,37.0,1.0,,
,,,,,,,,,,,block_2/medium_t_105_1.wav,timbre,t,medium,105.0,1.073604292,13.26340021,,,,Yes,SONY MDR-P180,30+,no,f,53,R,yes,1,2020-08-08_23h03.30.895,kura-A1,2020.1.2,Linux x86_64,60,,,,,,,,,,,,,,"[""space"",""space"",""space"",""space"",""space"",""space"",""space"",""space"",""space"",""space"",""space"",""space"",""space"",""space"",""space"",""space"",""space"",""space"",""space"",""space"",""space""]","[0.3737449999898672,0.9547099999617785,1.4486699999542907,2.038899999926798,2.5624799999641255,3.103004999924451,3.64477499993518,4.186454999959096,4.807469999999739,5.397094999905676,6.008824999909848,6.605704999994487,7.218469999963418,7.823344999924302,8.488169999909587,9.209919999935664,9.909734999993816,10.499039999907836,11.161314999917522,11.729809999931604,12.418354999972507]",space,0.58902,0.0,22.0,22.0,16.0,1.0,,
,,,,,,,,,,,block_2/medium_t_72_1.wav,timbre,t,medium,72.0,1.800053144,19.08504181,,,,Yes,SONY MDR-P180,30+,no,f,53,R,yes,1,2020-08-08_23h03.30.895,kura-A1,2020.1.2,Linux x86_64,60,,,,,,,,,,,,,,"[""space"",""space"",""space"",""space"",""space"",""space"",""space"",""space"",""space"",""space"",""space"",""space"",""space"",""space"",""space"",""space"",""space"",""space"",""space"",""space""]","[0.2573500000871718,0.774585000006482,1.7722100000828505,2.6574750000145286,3.5322950000409037,4.384859999991022,5.39750500000082,6.316970000043511,7.184905000030994,8.07431500009261,8.951980000012554,9.804074999992736,10.744290000060573,11.73291500005871,12.600670000072569,13.533485000021756,14.353770000045188,15.18378500000108,16.011015000054613,16.84243499999866]",space,0.306225,0.0,23.0,23.0,24.0,1.0,,
,,,,,,,,,,,block_2/medium_t_105_2.wav,timbre,t,medium,105.0,1.583239388,12.36101717,,,,Yes,SONY MDR-P180,30+,no,f,53,R,yes,1,2020-08-08_23h03.30.895,kura-A1,2020.1.2,Linux x86_64,60,,,,,,,,,,,,,,"[""space"",""space"",""space"",""space"",""space"",""space"",""space"",""space"",""space"",""space"",""space"",""space"",""space"",""space"",""space"",""space"",""space"",""space"",""space"",""space""]","[0.36834000004455447,1.0569300000788644,1.6060200000647455,2.1230250000953674,2.6797800000058487,3.2377350000897422,3.7779650000156835,4.336080000037327,4.916640000068583,5.497520000091754,6.118745000101626,6.659504999988712,7.193010000046343,7.725550000090152,8.299274999997579,8.83163999998942,9.413200000068173,9.961485000094399,10.566910000052303,11.11143000004813]",space,0.6045,0.0,24.0,24.0,19.0,1.0,,
,,,,,,,,,,,block_2/weak_t_119_1.wav,timbre,t,weak,119.0,2.44047477,12.74986253,,,,Yes,SONY MDR-P180,30+,no,f,53,R,yes,1,2020-08-08_23h03.30.895,kura-A1,2020.1.2,Linux x86_64,60,,,,,,,,,,,,,,"[""space"",""space"",""space"",""space"",""space"",""space"",""space"",""space"",""space"",""space"",""space"",""space"",""space"",""space"",""space"",""space"",""space"",""space"",""space"",""space"",""space"",""space"",""space"",""space""]","[0.285619999980554,1.0972100000362843,1.7409599999664351,2.283100000000559,2.736380000016652,3.159029999980703,3.4824200000148267,3.879579999949783,4.301020000013523,4.714210000005551,5.130215000011958,5.6215200000442564,6.066415000008419,6.5195999999996275,6.968020000029355,7.386079999967478,7.774955000029877,8.180715000024065,8.60523500002455,8.999410000047646,9.412989999982528,9.809980000020005,10.22652000002563,10.629345000023022]",space,0.3393,0.0,25.0,25.0,12.0,1.0,,
,,,,,,,,,,,block_2/weak_t_81_1.wav,timbre,t,weak,81.0,1.591601339,16.65690746,,,,Yes,SONY MDR-P180,30+,no,f,53,R,yes,1,2020-08-08_23h03.30.895,kura-A1,2020.1.2,Linux x86_64,60,,,,,,,,,,,,,,"[""space"",""space"",""space"",""space"",""space"",""space"",""space"",""space"",""space"",""space"",""space"",""space"",""space"",""space"",""space"",""space"",""space"",""space"",""space"",""space""]","[0.2436949999537319,0.9438150000059977,1.8387199999997392,2.4656050000339746,3.1342700000386685,3.763219999964349,4.52058999997098,5.353494999930263,6.210220000008121,7.04703499993775,7.842459999956191,8.505385000025854,9.390385000035167,10.153305000043474,10.8135150000453,11.466714999987744,12.41466499993112,13.259439999936149,14.07214499998372,14.903120000031777]",space,0.31236,0.0,26.0,26.0,8.0,1.0,,
,,,,,,,,,,,block_2/medium_t_92_1.wav,timbre,t,medium,92.0,1.649670592,15.35429644,,,,Yes,SONY MDR-P180,30+,no,f,53,R,yes,1,2020-08-08_23h03.30.895,kura-A1,2020.1.2,Linux x86_64,60,,,,,,,,,,,,,,"[""space"",""space"",""space"",""space"",""space"",""space"",""space"",""space"",""space"",""space"",""space"",""space"",""space"",""space"",""space"",""space"",""space"",""space"",""space""]","[0.2477999998955056,0.9716599999228492,1.9837149999802932,2.7084150000009686,3.459904999937862,4.177915000007488,4.955034999991767,5.592214999953285,6.308914999943227,7.01805999991484,7.719914999906905,8.491549999918789,9.143754999968223,9.796849999926053,10.53745499998331,11.23817499994766,11.915384999942034,12.648709999979474,13.384044999955222]",space,0.276615,0.0,27.0,27.0,36.0,1.0,,
,,,,,,,,,,,block_2/strong_t_81_1.wav,timbre,t,strong,81.0,1.294160312,15.54953446,,,,Yes,SONY MDR-P180,30+,no,f,53,R,yes,1,2020-08-08_23h03.30.895,kura-A1,2020.1.2,Linux x86_64,60,,,,,,,,,,,,,,"[""space"",""space"",""space"",""space"",""space"",""space"",""space"",""space"",""space"",""space"",""space"",""space"",""space"",""space"",""space"",""space"",""space"",""space"",""space"",""space"",""space""]","[0.5409349999390543,1.0573350000195205,1.8389149999711663,2.4912849999964237,3.192060000030324,3.943940000026487,4.665804999996908,5.438639999949373,6.083394999965094,6.833929999964312,7.540724999969825,8.226004999945872,8.935545000014827,9.667840000009164,10.409630000009201,11.068919999990612,11.801654999959283,12.551514999940991,13.259510000003502,14.00186499999836,14.692894999985583]",space,1.062425,0.0,28.0,28.0,30.0,1.0,,
,,,,,,,,,,,block_2/none_t_119_1.wav,timbre,t,none,119.0,1.241510023,14.60305197,,,,Yes,SONY MDR-P180,30+,no,f,53,R,yes,1,2020-08-08_23h03.30.895,kura-A1,2020.1.2,Linux x86_64,60,,,,,,,,,,,,,,"[""space"",""space"",""space"",""space"",""space"",""space"",""space"",""space"",""space"",""space"",""space"",""space"",""space"",""space"",""space"",""space"",""space"",""space"",""space"",""space"",""space"",""space"",""space"",""space"",""space""]","[0.26335000002291054,0.7963250000029802,1.4575849999673665,2.1100200000219047,2.73156999994535,3.3926799999317154,3.869554999982938,4.37058500002604,4.947539999964647,5.564600000041537,6.1373299999395385,6.633445000043139,7.108314999961294,7.569795000017621,8.094210000010207,8.622280000010505,9.112354999990202,9.591185000026599,10.092364999931306,10.593755000038072,11.061634999932721,11.562604999984615,12.09687499993015,12.621214999933727,13.153595000039786]",space,0.579785,0.0,29.0,29.0,39.0,1.0,,
,,,,,,,,,,,block_2/none_t_72_2.wav,timbre,t,none,72.0,2.345629585,20.60318061,,,,Yes,SONY MDR-P180,30+,no,f,53,R,yes,1,2020-08-08_23h03.30.895,kura-A1,2020.1.2,Linux x86_64,60,,,,,,,,,,,,,,"[""space"",""space"",""space"",""space"",""space"",""space"",""space"",""space"",""space"",""space"",""space"",""space"",""space"",""space"",""space"",""space"",""space"",""space"",""space"",""space"",""space"",""space"",""space"",""space""]","[0.404685000074096,1.1086700001033023,1.6894350000657141,2.29245000006631,3.0989850000478327,4.047455000109039,4.8793900000164285,5.553410000051372,6.215730000054464,7.134825000073761,7.89558000001125,8.723795000114478,9.5767900000792,10.477605000021867,11.505680000060238,12.158195000025444,12.88324500003364,13.608310000039637,14.459905000054277,15.448715000064112,16.240740000037476,16.914590000058524,17.54361500008963,18.220300000044517]",space,0.33531,0.0,30.0,30.0,21.0,1.0,,
,,,,,,,,,,,block_2/none_t_105_1.wav,timbre,t,none,105.0,2.049885048,16.17201657,,,,Yes,SONY MDR-P180,30+,no,f,53,R,yes,1,2020-08-08_23h03.30.895,kura-A1,2020.1.2,Linux x86_64,60,,,,,,,,,,,,,,"[""space"",""space"",""space"",""space"",""space"",""space"",""space"",""space"",""space"",""space"",""space"",""space"",""space"",""space"",""space"",""space"",""space"",""space"",""space"",""space"",""space"",""space"",""space"",""space"",""space""]","[0.25826000003144145,0.9035950000397861,1.3969100000103936,1.905960000003688,2.3991199999582022,3.1089950000168756,3.6896249999990687,4.286049999995157,4.867384999990463,5.400454999995418,5.956834999960847,6.516539999982342,7.07144500000868,7.7032299999846146,8.289469999959692,8.878634999971837,9.475360000040382,10.152505000005476,10.733645000029355,11.362250000005588,11.975444999989122,12.556209999951534,13.133094999939203,13.80140500003472,14.338920000009239]",space,0.53811,0.0,31.0,31.0,17.0,1.0,,
,,,,,,,,,,,block_2/weak_t_105_1.wav,timbre,t,weak,105.0,2.340100097,14.83112051,,,,Yes,SONY MDR-P180,30+,no,f,53,R,yes,1,2020-08-08_23h03.30.895,kura-A1,2020.1.2,Linux x86_64,60,,,,,,,,,,,,,,"[""space"",""space"",""space"",""space"",""space"",""space"",""space"",""space"",""space"",""space"",""space"",""space"",""space"",""space"",""space"",""space"",""space"",""space"",""space"",""space""]","[0.25549500004854053,0.8533100000349805,1.3933550000656396,1.8628150000004098,2.774790000054054,3.336680000065826,4.045320000033826,4.634130000020377,5.239210000028834,5.8365800000028685,6.45764500007499,7.078790000057779,7.739829999976791,8.344920000061393,9.013069999986328,9.697965000057593,10.366855000029318,10.972405000007711,11.58484500006307,12.23112500004936]",space,0.33544,0.0,32.0,32.0,0.0,1.0,,
,,,,,,,,,,,block_2/medium_t_81_1.wav,timbre,t,medium,81.0,1.868021577,16.02697849,,,,Yes,SONY MDR-P180,30+,no,f,53,R,yes,1,2020-08-08_23h03.30.895,kura-A1,2020.1.2,Linux x86_64,60,,,,,,,,,,,,,,"[""space"",""space"",""space"",""space"",""space"",""space"",""space"",""space"",""space"",""space"",""space"",""space"",""space"",""space"",""space"",""space"",""space"",""space"",""space""]","[0.25101500004529953,1.3481649999739602,2.156124999979511,2.869079999974929,3.5539300000527874,4.231099999975413,4.947679999982938,5.7366750000510365,6.462075000046752,7.194344999967143,7.97507000004407,8.707430000067689,9.507180000073276,10.228839999996126,10.930000000051223,11.647334999986924,12.37135999999009,13.099025000003166,13.804770000046119]",space,0.45257,0.0,33.0,33.0,4.0,1.0,,
,,,,,,,,,,,block_2/strong_t_119_2.wav,timbre,t,strong,119.0,1.752168489,11.36699842,,,,Yes,SONY MDR-P180,30+,no,f,53,R,yes,1,2020-08-08_23h03.30.895,kura-A1,2020.1.2,Linux x86_64,60,,,,,,,,,,,,,,"[""space"",""space"",""space"",""space"",""space"",""space"",""space"",""space"",""space"",""space"",""space"",""space"",""space"",""space"",""space"",""space"",""space"",""space"",""space"",""space"",""space""]","[0.3352449999656528,0.7949500000104308,1.175885000033304,1.6290700000245124,2.0904149999842048,2.575410000048578,3.045920000062324,3.525969999958761,4.0235950000351295,4.495725000044331,4.980145000037737,5.498250000062399,5.982405000017025,6.450459999963641,6.935285000014119,7.427595000015572,7.920550000038929,8.38890999997966,8.875215000007302,9.375780000002123,9.845235000015236]",space,0.60267,0.0,34.0,34.0,31.0,1.0,,
,,,,,,,,,,,block_2/none_t_81_2.wav,timbre,t,none,81.0,2.376288721,21.12975811,,,,Yes,SONY MDR-P180,30+,no,f,53,R,yes,1,2020-08-08_23h03.30.895,kura-A1,2020.1.2,Linux x86_64,60,,,,,,,,,,,,,,"[""space"",""space"",""space"",""space"",""space"",""space"",""space"",""space"",""space"",""space"",""space"",""space"",""space"",""space"",""space"",""space"",""space"",""space"",""space"",""space"",""space"",""space"",""space""]","[0.24205500003881752,1.125525000039488,1.8900000000139698,2.808489999966696,3.9704749999800697,4.946849999949336,5.748855000012554,6.592884999932721,7.564744999981485,8.388174999970943,9.286594999954104,10.098619999946095,10.872334999963641,11.756180000025779,12.53152499999851,13.301315000047907,14.057954999967478,14.758999999961816,15.589324999949895,16.2802349999547,16.933405000017956,17.602130000013858,18.36337499995716]",space,0.3616,0.0,35.0,35.0,10.0,1.0,,
,,,,,,,,,,,block_2/weak_t_72_1.wav,timbre,t,weak,72.0,1.161723604,18.236871,,,,Yes,SONY MDR-P180,30+,no,f,53,R,yes,1,2020-08-08_23h03.30.895,kura-A1,2020.1.2,Linux x86_64,60,,,,,,,,,,,,,,"[""space"",""space"",""space"",""space"",""space"",""space"",""space"",""space"",""space"",""space"",""space"",""space"",""space"",""space"",""space"",""space"",""space"",""space"",""space"",""space""]","[0.30783000006340444,1.0966450000414625,2.2059900000458583,3.0085350000299513,3.8452200000174344,4.802055000094697,5.727110000094399,6.5553550000768155,7.296400000108406,8.14824500004761,9.042775000096299,9.846100000082515,10.72312000009697,11.591670000110753,12.523225000011735,13.3673350000754,14.092520000063814,14.864975000033155,15.63925000000745,16.491284999996424]",space,0.497765,0.0,36.0,36.0,29.0,1.0,,
,,,,,,,,,,,block_2/medium_t_119_2.wav,timbre,t,medium,119.0,1.931946566,12.84791029,,,,Yes,SONY MDR-P180,30+,no,f,53,R,yes,1,2020-08-08_23h03.30.895,kura-A1,2020.1.2,Linux x86_64,60,,,,,,,,,,,,,,"[""space"",""space"",""space"",""space"",""space"",""space"",""space"",""space"",""space"",""space"",""space"",""space"",""space"",""space"",""space"",""space"",""space"",""space"",""space"",""space""]","[0.2680199999595061,0.8361449999501929,1.4148349999450147,1.9157399999676272,2.512559999944642,3.1177599999355152,3.6596750000026077,4.183749999967404,4.748554999940097,5.346829999936745,5.983000000007451,6.555739999981597,7.168259999947622,7.725845000008121,8.283335000043735,8.755624999990687,9.269575000042096,9.77856000000611,10.304310000035912,10.820724999997765]",space,0.60704,0.0,37.0,37.0,38.0,1.0,,
,,,,,,,,,,,block_2/medium_t_81_2.wav,timbre,t,medium,81.0,1.338539444,16.50597709,,,,Yes,SONY MDR-P180,30+,no,f,53,R,yes,1,2020-08-08_23h03.30.895,kura-A1,2020.1.2,Linux x86_64,60,,,,,,,,,,,,,,"[""space"",""space"",""space"",""space"",""space"",""space"",""space"",""space"",""space"",""space"",""space"",""space"",""space"",""space"",""space"",""space"",""space"",""space"",""space"",""space""]","[0.27038500003982335,0.7646250000689179,1.2650350000476465,2.0779200000688434,2.9247550000436604,3.751219999976456,4.540305000031367,5.347070000017993,6.1094649999868125,6.900604999973439,7.6788200000301,8.490845000022091,9.2400899999775,10.03714500006754,10.816965000005439,11.614390000002459,12.434220000053756,13.250025000073947,13.972760000033304,14.786850000033155]",space,0.45713,0.0,38.0,38.0,7.0,1.0,,
,,,,,,,,,,,block_2/medium_t_72_2.wav,timbre,t,medium,72.0,1.613581299,18.7474135,,,,Yes,SONY MDR-P180,30+,no,f,53,R,yes,1,2020-08-08_23h03.30.895,kura-A1,2020.1.2,Linux x86_64,60,,,,,,,,,,,,,,"[""space"",""space"",""space"",""space"",""space"",""space"",""space"",""space"",""space"",""space"",""space"",""space"",""space"",""space"",""space"",""space"",""space"",""space"",""space"",""space""]","[0.32372500002384186,0.7536199999740347,1.688395000062883,2.574430000036955,3.4260050000157207,4.295189999975264,5.167974999989383,6.032175000058487,6.897130000055768,7.845020000007935,8.772875000024214,9.641620000009425,10.530875000054948,11.383060000021942,12.276135000051,13.11667999997735,14.020870000007562,14.961050000041723,15.894154999987222,16.725865000043996]",space,0.491265,0.0,39.0,39.0,28.0,1.0,,
,,,,,,,,,,,,,,,,,,,,,Yes,SONY MDR-P180,30+,no,f,53,R,yes,1,2020-08-08_23h03.30.895,kura-A1,2020.1.2,Linux x86_64,60,,,,,,,,,,,,,,,,,,,,,,,space,8.99269
