key_resp.keys,key_resp.rt,practice_taps.keys,practice_taps.rt,keyresp.keys,keyresp.rt,practice_stims_loop.thisRepN,practice_stims_loop.thisTrialN,practice_stims_loop.thisN,practice_stims_loop.thisIndex,practice_stims_loop.ran,sndfile,type,tempo,cond,version,delay,dur,Participant Initials,"If you are a MTurk worker, what is your MTurk worker ID?'",Are you wearing headphones?,What are the headphone make and model?,"How many years of musical training, if any, do you have?",Do you have any hearing problems? Please describe,What is your sex (f/m/decline)?,What is your age?,What is your handedness (R/L/ambi)?,Are you currently in a secure and quiet room without a possible interruption?,session,date,expName,psychopyVersion,OS,frameRate,instructions_prompt.keys,instructions_prompt.rt,block1_taps.keys,block1_taps.rt,key_resp_2.keys,key_resp_2.rt,trials.thisRepN,trials.thisTrialN,trials.thisN,trials.thisIndex,trials.ran,key_resp2.keys,key_resp2.rt,block2_taps.keys,block2_taps.rt,key_resp_3.keys,key_resp_3.rt,trials_2.thisRepN,trials_2.thisTrialN,trials_2.thisN,trials_2.thisIndex,trials_2.ran,key_resp_4.keys,key_resp_4.rt,"If you are not an MTurk worker, please provide your email address"
space,6.64462,"[""space"",""space"",""space"",""space"",""space"",""space"",""space"",""space"",""space"",""space"",""space"",""space"",""space"",""space"",""space"",""space"",""space"",""space"",""space"",""space"",""space""]","[0.22066500002983958,0.6837400000076741,1.103940000059083,1.5717899999581277,2.072909999988042,2.574295000056736,3.0754749999614432,3.608254999970086,4.125570000032894,4.60332999995444,5.064239999977872,5.5736249999608845,6.082784999976866,6.560275000054389,7.0371199999935925,7.570184999960475,8.071209999965504,8.565575000015087,9.082004999974743,9.590839999960735,10.084494999959134]",space,0.91908,0.0,0.0,0.0,3.0,1.0,block_2/strong_t_119_4.wav,timbre,t,strong,119.0,2.380207574,12.24809873,,,yes,,30,no,f,53,R,yes,1,2020-08-08_23h32.56.541,kura-A2,2020.1.2,Linux x86_64,60,,,,,,,,,,,,,,,,,,,,,,,,,
,,"[""space"",""space"",""space"",""space"",""space"",""space"",""space"",""space"",""space"",""space"",""space"",""space"",""space"",""space"",""space"",""space"",""space"",""space"",""space"",""space""]","[0.2895499999867752,0.8064500000327826,1.4880450000055134,2.2323249999899417,3.0244699999457225,3.9294750000117347,4.814310000045225,5.659800000023097,6.487285000039265,7.2850199999520555,8.065519999945536,8.925084999995306,9.724565000040457,10.610035000019707,11.466905000037514,12.224184999940917,13.124145000008866,13.93750999995973,14.79819999996107,15.638965000049211]",space,0.83124,0.0,1.0,1.0,2.0,1.0,block_1/weak_n_72_4.wav,no,n,weak,72.0,1.922330121,17.89675189,,,yes,,30,no,f,53,R,yes,1,2020-08-08_23h32.56.541,kura-A2,2020.1.2,Linux x86_64,60,,,,,,,,,,,,,,,,,,,,,,,,,
,,"[""space"",""space"",""space"",""space"",""space"",""space"",""space"",""space"",""space"",""space"",""space"",""space"",""space"",""space"",""space"",""space"",""space"",""space"",""space"",""space""]","[0.25389999989420176,0.9791399999521673,1.5542849999619648,2.1406449999194592,2.7069599999813363,3.271409999928437,3.8761299999896437,4.444894999964163,5.022649999940768,5.597879999899305,6.199945000000298,6.7732549998909235,7.36243499990087,7.903284999891184,8.47137499996461,9.073034999892116,9.624279999989085,10.227814999991097,10.832314999890514,11.413604999892414]",space,0.45805,0.0,2.0,2.0,0.0,1.0,block_1/medium_n_105_3.wav,no,n,medium,105.0,1.683245346,13.36533151,,,yes,,30,no,f,53,R,yes,1,2020-08-08_23h32.56.541,kura-A2,2020.1.2,Linux x86_64,60,,,,,,,,,,,,,,,,,,,,,,,,,
,,"[""space"",""space"",""space"",""space"",""space"",""space"",""space"",""space"",""space"",""space"",""space"",""space"",""space"",""space"",""space"",""space"",""space"",""space"",""space""]","[0.2513549999566749,1.060440000030212,1.9445899999700487,2.4400649999734014,2.8759749999735504,3.344829999958165,3.8536199999507517,4.363359999959357,4.872485000058077,5.357685000053607,5.858505000011064,6.375944999977946,6.87672499998007,7.410034999949858,7.927185000036843,8.484330000006594,9.009085000026971,9.550520000047982,10.05176499998197]",space,0.438585,0.0,3.0,3.0,1.0,1.0,block_2/medium_t_119_4.wav,timbre,t,medium,119.0,2.073396767,11.89421309,,,yes,,30,no,f,53,R,yes,1,2020-08-08_23h32.56.541,kura-A2,2020.1.2,Linux x86_64,60,,,,,,,,,,,,,,,,,,,,,,,,,
,,,,,,,,,,,block_1/strong_n_119_4.wav,no,n,strong,119.0,1.980480326,12.048825,,,yes,,30,no,f,53,R,yes,1,2020-08-08_23h32.56.541,kura-A2,2020.1.2,Linux x86_64,60,space,3.755125,"[""space"",""space"",""space"",""space"",""space"",""space"",""space"",""space"",""space"",""space"",""space"",""space"",""space"",""space"",""space"",""space"",""space"",""space"",""space"",""space"",""space""]","[0.38424000004306436,0.8855899999616668,1.2535850000567734,1.7123000000137836,2.2450699999462813,2.7461500000208616,3.2154099999461323,3.7255750000476837,4.243855000007898,4.766655000043102,5.263859999948181,5.75351499998942,6.248855000012554,6.7555799999972805,7.272785000037402,7.785885000019334,8.275550000020303,8.77601000003051,9.301959999953397,9.762914999970235,10.295629999949597]",space,0.5385,0.0,0.0,0.0,23.0,1.0,,,,,,,,,,,,,,
,,,,,,,,,,,block_1/strong_n_72_4.wav,no,n,strong,72.0,1.599228342,16.96784512,,,yes,,30,no,f,53,R,yes,1,2020-08-08_23h32.56.541,kura-A2,2020.1.2,Linux x86_64,60,,,"[""space"",""space"",""space"",""space"",""space"",""space"",""space"",""space"",""space"",""space"",""space"",""space"",""space"",""space"",""space"",""space"",""space"",""space"",""space"",""space"",""space""]","[0.25245000002905726,0.8417050000280142,1.462775000021793,2.291609999956563,3.0412500000093132,3.837489999947138,4.6450000000186265,5.46371000004001,6.25082499999553,7.018064999952912,7.82054500002414,8.62491500005126,9.397604999947362,10.202874999959022,10.982839999953285,11.82007000001613,12.624779999954626,13.405045000021346,14.18593499995768,15.022965000011027,15.77238999994006]",space,0.385235,0.0,1.0,1.0,35.0,1.0,,,,,,,,,,,,,,
,,,,,,,,,,,block_1/weak_n_105_4.wav,no,n,weak,105.0,1.436012468,12.20911904,,,yes,,30,no,f,53,R,yes,1,2020-08-08_23h32.56.541,kura-A2,2020.1.2,Linux x86_64,60,,,"[""space"",""space"",""space"",""space"",""space"",""space"",""space"",""space"",""space"",""space"",""space"",""space"",""space"",""space"",""space"",""space"",""space"",""space"",""space"",""space"",""space""]","[0.2290400000056252,0.8192699999781325,1.4629499999573454,2.022224999964237,2.673560000024736,3.1981150000356138,3.726479999953881,4.288034999975935,4.829264999949373,5.31422499998007,5.871395000023767,6.366215000045486,6.8900099999736995,7.407280000043102,7.956424999982119,8.409239999949932,8.942754999967292,9.483980000019073,10.032834999961779,10.517980000004172,11.01926500000991]",space,0.426565,0.0,2.0,2.0,28.0,1.0,,,,,,,,,,,,,,
,,,,,,,,,,,block_1/strong_n_119_3.wav,no,n,strong,119.0,1.213627968,10.9792062,,,yes,,30,no,f,53,R,yes,1,2020-08-08_23h32.56.541,kura-A2,2020.1.2,Linux x86_64,60,,,"[""space"",""space"",""space"",""space"",""space"",""space"",""space"",""space"",""space"",""space"",""space"",""space"",""space"",""space"",""space"",""space"",""space"",""space"",""space"",""space"",""space""]","[0.5033500000135973,0.9030949999578297,1.2982949999859557,1.7591849999735132,2.2062000000150874,2.6822399999946356,3.166590000037104,3.667479999945499,4.160894999979064,4.64647999999579,5.155930000008084,5.632600000011735,6.134225000045262,6.611400000052527,7.097064999979921,7.5821999999461696,8.083020000020042,8.576215000008233,9.101849999977276,9.562380000017583,10.025694999960251]",space,0.61715,0.0,3.0,3.0,16.0,1.0,,,,,,,,,,,,,,
,,,,,,,,,,,block_1/medium_n_92_3.wav,no,n,medium,92.0,1.602440637,13.28810957,,,yes,,30,no,f,53,R,yes,1,2020-08-08_23h32.56.541,kura-A2,2020.1.2,Linux x86_64,60,,,"[""space"",""space"",""space"",""space"",""space"",""space"",""space"",""space"",""space"",""space"",""space"",""space"",""space"",""space"",""space"",""space"",""space"",""space"",""space"",""space""]","[0.2468250000383705,0.7193350000306964,1.1868249999824911,1.7503149999538437,2.3627949999645352,2.8912400000263005,3.5007400000467896,4.138204999966547,4.760974999982864,5.38070500001777,6.033305000048131,6.617005000007339,7.210844999994151,7.847859999979846,8.437810000032187,9.04143500002101,9.6311299999943,10.25268999999389,10.83273999998346,11.421854999964125]",space,0.93346,0.0,4.0,4.0,2.0,1.0,,,,,,,,,,,,,,
,,,,,,,,,,,block_1/weak_n_119_3.wav,no,n,weak,119.0,2.459758036,10.81612992,,,yes,,30,no,f,53,R,yes,1,2020-08-08_23h32.56.541,kura-A2,2020.1.2,Linux x86_64,60,,,"[""space"",""space"",""space"",""space"",""space"",""space"",""space"",""space"",""space"",""space"",""space"",""space"",""space"",""space"",""space"",""space"",""space"",""space"",""space"",""space""]","[0.22097999998368323,0.9377000000094995,1.326839999994263,1.703704999992624,2.12210999999661,2.5430349999805912,2.973615000024438,3.394040000042878,3.859375,4.220169999985956,4.678059999947436,5.078800000017509,5.508239999995567,5.9538249999750406,6.382005000021309,6.810429999954067,7.231529999990016,7.691325000021607,8.128284999984317,8.599234999972396]",space,0.370115,0.0,5.0,5.0,37.0,1.0,,,,,,,,,,,,,,
,,,,,,,,,,,block_1/none_n_119_4.wav,no,n,none,119.0,2.009432028,15.37111003,,,yes,,30,no,f,53,R,yes,1,2020-08-08_23h32.56.541,kura-A2,2020.1.2,Linux x86_64,60,,,"[""space"",""space"",""space"",""space"",""space"",""space"",""space"",""space"",""space"",""space"",""space"",""space"",""space"",""space"",""space"",""space"",""space"",""space"",""space"",""space"",""space"",""space"",""space"",""space"",""space"",""space"",""space""]","[0.23436000000219792,0.7474650000222027,1.2642100000521168,1.9241500000935048,2.5443750000558794,3.3407800000859424,4.009430000092834,4.65445000003092,5.4102399999974295,5.886610000045039,6.467520000063814,6.897095000022091,7.3655049999943,7.80258000001777,8.248780000023544,8.678285000030883,9.105764999985695,9.635305000003427,10.004075000062585,10.465689999982715,10.887285000062548,11.29210000007879,11.755720000015572,12.223670000093989,12.574770000064746,12.928105000057258,13.396940000005998]",space,0.335825,0.0,6.0,6.0,20.0,1.0,,,,,,,,,,,,,,
,,,,,,,,,,,block_1/none_n_105_4.wav,no,n,none,105.0,1.493653366,16.97025201,,,yes,,30,no,f,53,R,yes,1,2020-08-08_23h32.56.541,kura-A2,2020.1.2,Linux x86_64,60,,,"[""space"",""space"",""space"",""space"",""space"",""space"",""space"",""space"",""space"",""space"",""space"",""space"",""space"",""space"",""space"",""space"",""space"",""space"",""space"",""space"",""space"",""space"",""space"",""space"",""space"",""space"",""space"",""space"",""space""]","[0.33621999993920326,1.053044999949634,1.530129999970086,2.1058150000171736,2.612055000034161,3.129270000034012,3.638565000030212,4.251380000030622,4.840324999997392,5.340789999929257,5.797099999967031,6.248254999984056,6.782849999959581,7.267039999947883,7.784589999937452,8.307174999965355,8.912535000010394,9.39008499996271,9.827169999945909,10.399979999987409,10.976705000037327,11.521790000027977,12.056194999953732,12.580734999966808,13.098815000033937,13.655305000022054,14.318094999995083,14.857349999947473,15.446504999999888]",space,0.588135,0.0,7.0,7.0,14.0,1.0,,,,,,,,,,,,,,
,,,,,,,,,,,block_1/none_n_81_3.wav,no,n,none,81.0,1.098648096,17.74277508,,,yes,,30,no,f,53,R,yes,1,2020-08-08_23h32.56.541,kura-A2,2020.1.2,Linux x86_64,60,,,"[""space"",""space"",""space"",""space"",""space"",""space"",""space"",""space"",""space"",""space"",""space"",""space"",""space"",""space"",""space"",""space"",""space"",""space"",""space"",""space"",""space"",""space"",""space"",""space"",""space"",""space"",""space"",""space""]","[0.2799949999898672,0.956415000022389,1.5135199999203905,1.998535000020638,2.6995800000149757,3.2483899999642745,3.9609700000146404,4.58679500001017,5.207109999959357,5.9090350000187755,6.600555000011809,7.269510000012815,7.906190000008792,8.387869999976829,9.044289999990724,9.6336799999699,10.278494999976829,10.93125499994494,11.578615000005811,12.189054999966174,12.874124999972992,13.58300500002224,14.203555000014603,14.792639999999665,15.357524999999441,15.906469999928959,16.4001350000035,16.95858999993652]",space,0.506745,0.0,8.0,8.0,29.0,1.0,,,,,,,,,,,,,,
,,,,,,,,,,,block_1/strong_n_105_4.wav,no,n,strong,105.0,1.30585928,13.14087062,,,yes,,30,no,f,53,R,yes,1,2020-08-08_23h32.56.541,kura-A2,2020.1.2,Linux x86_64,60,,,"[""space"",""space"",""space"",""space"",""space"",""space"",""space"",""space"",""space"",""space"",""space"",""space"",""space"",""space"",""space"",""space"",""space"",""space"",""space"",""space"",""space""]","[0.34418999997433275,0.9495650000171736,1.4539899999508634,1.9993500000564381,2.5733450000407174,3.1688800000119954,3.76543499995023,4.378460000036284,4.962444999953732,5.596984999952838,6.2416400000220165,6.8225600000005215,7.38730000006035,7.99214500002563,8.573154999990948,9.189104999997653,9.814834999968298,10.391709999996237,10.99297999998089,11.606524999951944,12.195975000038743]",space,0.31902,0.0,9.0,9.0,3.0,1.0,,,,,,,,,,,,,,
,,,,,,,,,,,block_1/strong_n_72_3.wav,no,n,strong,72.0,2.03136762,17.09667374,,,yes,,30,no,f,53,R,yes,1,2020-08-08_23h32.56.541,kura-A2,2020.1.2,Linux x86_64,60,,,"[""space"",""space"",""space"",""space"",""space"",""space"",""space"",""space"",""space"",""space"",""space"",""space"",""space"",""space"",""space"",""space"",""space"",""space"",""space"",""space"",""space""]","[0.2511149999918416,0.9422450000420213,1.6705800000345334,2.407759999972768,3.1746200000634417,3.907179999980144,4.677954999962822,5.458590000052936,6.222795000066981,6.995424999971874,7.759429999976419,8.56414000003133,9.339580000028946,10.101484999991953,10.850380000076257,11.598854999989271,12.404130000039004,13.17648999998346,13.965459999977611,14.825030000065453,15.58933500002604]",space,0.431955,0.0,10.0,10.0,32.0,1.0,,,,,,,,,,,,,,
,,,,,,,,,,,block_1/medium_n_105_4.wav,no,n,medium,105.0,1.402482856,15.80924023,,,yes,,30,no,f,53,R,yes,1,2020-08-08_23h32.56.541,kura-A2,2020.1.2,Linux x86_64,60,,,"[""space"",""space"",""space"",""space"",""space"",""space"",""space"",""space"",""space"",""space"",""space"",""space"",""space"",""space"",""space"",""space"",""space"",""space"",""space"",""space""]","[0.28531499998643994,0.8089749999344349,1.4541399999288842,2.330599999986589,3.135370000032708,3.788769999984652,4.600109999999404,5.365214999997988,6.21016499993857,6.983600000035949,7.685444999951869,8.447464999975637,9.222034999984317,9.848464999930002,10.56472499994561,11.281624999945052,11.934845000039786,12.651164999930188,13.43160499993246,14.093059999984689]",space,0.5189,0.0,11.0,11.0,12.0,1.0,,,,,,,,,,,,,,
,,,,,,,,,,,block_1/none_n_81_4.wav,no,n,none,81.0,2.242955119,22.19488256,,,yes,,30,no,f,53,R,yes,1,2020-08-08_23h32.56.541,kura-A2,2020.1.2,Linux x86_64,60,,,"[""space"",""space"",""space"",""space"",""space"",""space"",""space"",""space"",""space"",""space"",""space"",""space"",""space"",""space"",""space"",""space"",""space"",""space"",""space"",""space"",""space"",""space"",""space"",""space"",""space"",""space"",""space"",""space"",""space"",""space"",""space"",""space"",""space"",""space""]","[0.23466000007465482,0.6941000000806525,1.220214999979362,1.8717600000090897,2.288965000072494,2.7902549999998882,3.2471150000346825,3.7265599999809638,4.265065000043251,4.7342850000131875,5.21964000002481,5.763760000001639,6.35757500003092,7.117949999985285,7.638645000057295,8.085435000015423,8.648995000054128,9.422585000051185,10.042490000021644,10.703910000040196,11.451735000009649,12.08899499999825,12.730070000048727,13.387415000004694,13.984320000046864,14.614865000010468,15.258774999994785,15.939320000004955,16.55865000002086,17.234670000034384,17.91167000005953,18.549145000055432,19.132390000042506,19.817755000083707]",space,0.486095,0.0,12.0,12.0,26.0,1.0,,,,,,,,,,,,,,
,,,,,,,,,,,block_1/strong_n_105_3.wav,no,n,strong,105.0,1.156897655,12.38746455,,,yes,,30,no,f,53,R,yes,1,2020-08-08_23h32.56.541,kura-A2,2020.1.2,Linux x86_64,60,,,"[""space"",""space"",""space"",""space"",""space"",""space"",""space"",""space"",""space"",""space"",""space"",""space"",""space"",""space"",""space"",""space"",""space"",""space"",""space"",""space"",""space""]","[0.2577199999941513,0.7747700000181794,1.22851000004448,1.8097550000529736,2.3592800000915304,2.932165000005625,3.497719999984838,4.096075000008568,4.6362349999835715,5.209120000014082,5.817125000059605,6.371530000003986,6.9532400000607595,7.5261100000934675,8.107055000029504,8.691304999985732,9.253804999985732,9.802830000058748,10.415970000089146,10.989204999990761,11.56584500009194]",space,0.70338,0.0,13.0,13.0,9.0,1.0,,,,,,,,,,,,,,
,,,,,,,,,,,block_1/none_n_72_3.wav,no,n,none,72.0,1.892162994,23.61892036,,,yes,,30,no,f,53,R,yes,1,2020-08-08_23h32.56.541,kura-A2,2020.1.2,Linux x86_64,60,,,"[""space"",""space"",""space"",""space"",""space"",""space"",""space"",""space"",""space"",""space"",""space"",""space"",""space"",""space"",""space"",""space"",""space"",""space"",""space"",""space"",""space"",""space"",""space"",""space"",""space"",""space"",""space"",""space"",""space"",""space"",""space"",""space"",""space"",""space"",""space"",""space"",""space"",""space""]","[0.441785000031814,1.3824150000000373,2.090874999994412,2.824460000032559,3.710194999934174,4.713099999935366,5.214485000004061,5.843989999964833,6.336550000007264,6.814454999985173,7.331739999935962,7.817169999936596,8.445379999931902,8.915180000010878,9.567679999978282,10.093080000020564,10.69067499996163,11.287134999991395,11.797675000037998,12.369624999933876,12.895215000025928,13.444200000027195,13.992815000005066,14.446134999976493,15.09113499999512,15.524205000023358,16.093389999936335,16.643000000040047,17.199524999945424,17.72947000002023,18.29033999994863,18.82401999994181,19.324739999952726,19.901349999941885,20.386575000011362,20.891844999976456,21.344810000038706,21.87321999995038]",space,0.32798,0.0,14.0,14.0,18.0,1.0,,,,,,,,,,,,,,
,,,,,,,,,,,block_1/medium_n_105_3.wav,no,n,medium,105.0,2.417465983,14.09955215,,,yes,,30,no,f,53,R,yes,1,2020-08-08_23h32.56.541,kura-A2,2020.1.2,Linux x86_64,60,,,"[""space"",""space"",""space"",""space"",""space"",""space"",""space"",""space"",""space"",""space"",""space"",""space"",""space"",""space"",""space"",""space"",""space"",""space"",""space"",""space""]","[0.2603349999990314,0.9607750000432134,1.5257100000744686,2.1467999999877065,2.711890000035055,3.3011849999893457,3.8661299999803305,4.430640000035055,5.012764999992214,5.617310000001453,6.17440500005614,6.7395399999804795,7.344050000072457,7.9408100000582635,8.521970000001602,9.111580000026152,9.66807500005234,10.259055000031367,10.839180000009947,11.428705000085756]",space,0.66446,0.0,15.0,15.0,0.0,1.0,,,,,,,,,,,,,,
,,,,,,,,,,,block_1/none_n_92_3.wav,no,n,none,92.0,2.336707073,18.23675242,,,yes,,30,no,f,53,R,yes,1,2020-08-08_23h32.56.541,kura-A2,2020.1.2,Linux x86_64,60,,,"[""space"",""space"",""space"",""space"",""space"",""space"",""space"",""space"",""space"",""space"",""space"",""space"",""space"",""space"",""space"",""space"",""space"",""space"",""space"",""space"",""space"",""space"",""space"",""space"",""space"",""space""]","[0.2580299999099225,1.0468249999685213,1.8912949999794364,2.6243049999466166,3.117409999947995,3.7300699999323115,4.263150000013411,4.790180000010878,5.413549999939278,6.0066449999576434,6.61144000000786,7.192394999903627,7.686080000014044,8.271034999983385,8.896364999935031,9.500844999914989,10.041904999990948,10.638629999943078,11.252014999976382,11.920734999934211,12.589679999975488,13.315609999932349,13.942944999900647,14.56457499996759,15.170779999927618,15.805749999941327]",space,0.64424,0.0,16.0,16.0,25.0,1.0,,,,,,,,,,,,,,
,,,,,,,,,,,block_1/weak_n_119_4.wav,no,n,weak,119.0,2.305568033,13.07926418,,,yes,,30,no,f,53,R,yes,1,2020-08-08_23h32.56.541,kura-A2,2020.1.2,Linux x86_64,60,,,"[""space"",""space"",""space"",""space"",""space"",""space"",""space"",""space"",""space"",""space"",""space"",""space"",""space"",""space"",""space"",""space"",""space"",""space"",""space""]","[0.25135999999474734,1.2041400000452995,1.8173149999929592,2.4294999999692664,2.9747049999423325,3.479799999971874,4.084660000051372,4.5695599999744445,5.134680000017397,5.723660000017844,6.273350000032224,6.783264999976382,7.323020000010729,7.8730999999679625,8.420999999972992,8.962569999974221,9.456789999967441,9.97453999996651,10.537810000008903]",space,0.273935,0.0,17.0,17.0,31.0,1.0,,,,,,,,,,,,,,
,,,,,,,,,,,block_1/medium_n_81_4.wav,no,n,medium,81.0,1.742854158,16.25138024,,,yes,,30,no,f,53,R,yes,1,2020-08-08_23h32.56.541,kura-A2,2020.1.2,Linux x86_64,60,,,"[""space"",""space"",""space"",""space"",""space"",""space"",""space"",""space"",""space"",""space"",""space"",""space"",""space"",""space"",""space"",""space"",""space"",""space"",""space"",""space""]","[0.24617499997839332,0.8116149998968467,1.6320499998982996,2.379994999966584,3.1578499999595806,3.918364999932237,4.628264999948442,5.379624999943189,6.13257999997586,6.883724999963306,7.605609999969602,8.269929999951273,9.07167999993544,9.757194999954663,10.505114999949,11.229679999989457,11.96993499994278,12.719264999963343,13.452134999912232,14.184049999923445]",space,0.67624,0.0,18.0,18.0,38.0,1.0,,,,,,,,,,,,,,
,,,,,,,,,,,block_1/none_n_119_3.wav,no,n,none,119.0,1.932281918,14.89500301,,,yes,,30,no,f,53,R,yes,1,2020-08-08_23h32.56.541,kura-A2,2020.1.2,Linux x86_64,60,,,"[""space"",""space"",""space"",""space"",""space"",""space"",""space"",""space"",""space"",""space"",""space"",""space"",""space"",""space"",""space"",""space"",""space"",""space"",""space"",""space"",""space"",""space"",""space"",""space"",""space"",""space"",""space"",""space"",""space"",""space""]","[0.2178449999773875,0.8279549999861047,1.5605150000192225,1.9979299999540672,2.467214999953285,2.9996899999678135,3.493030000012368,3.914269999950193,4.394899999955669,4.829505000030622,5.247154999990016,5.6985550000099465,6.204855000018142,6.538324999972247,6.9433699999935925,7.3685350000159815,7.85351000004448,8.304544999962673,8.724915000027977,9.145924999960698,9.519929999951273,9.853175000054762,10.226525000063702,10.567685000016354,11.005260000005364,11.37844999996014,11.780030000023544,12.133060000021942,12.507310000015423,12.919824999989942]",space,0.579435,0.0,19.0,19.0,24.0,1.0,,,,,,,,,,,,,,
,,,,,,,,,,,block_1/medium_n_119_3.wav,no,n,medium,119.0,1.238363393,11.09976929,,,yes,,30,no,f,53,R,yes,1,2020-08-08_23h32.56.541,kura-A2,2020.1.2,Linux x86_64,60,,,"[""space"",""space"",""space"",""space"",""space"",""space"",""space"",""space"",""space"",""space"",""space"",""space"",""space"",""space"",""space"",""space"",""space"",""space"",""space"",""space"",""space""]","[0.25682999996934086,0.8616949999704957,1.5545849999180064,1.9844649999868125,2.565214999951422,3.034429999999702,3.4261599999153987,3.796974999946542,4.250304999994114,4.695899999933317,5.189114999957383,5.738039999967441,6.2391399999614805,6.734539999975823,7.218519999994896,7.671104999957606,8.15660999994725,8.665284999995492,9.158279999974184,9.643459999933839,10.10505499993451]",space,0.495035,0.0,20.0,20.0,22.0,1.0,,,,,,,,,,,,,,
,,,,,,,,,,,block_1/none_n_105_3.wav,no,n,none,105.0,2.216733946,14.87818519,,,yes,,30,no,f,53,R,yes,1,2020-08-08_23h32.56.541,kura-A2,2020.1.2,Linux x86_64,60,,,"[""space"",""space"",""space"",""space"",""space"",""space"",""space"",""space"",""space"",""space"",""space"",""space"",""space"",""space"",""space"",""space"",""space"",""space"",""space"",""space"",""space"",""space""]","[0.2218800000846386,0.7316300000529736,1.2960650000022724,1.965095000108704,2.8018700000829995,3.5348500000545755,4.061020000022836,4.624890000093728,5.096740000066347,5.53163000009954,6.065690000075847,6.804745000088587,7.419150000088848,7.991065000067465,8.460900000063702,8.973330000066198,9.526745000039227,10.17604500008747,10.848860000027344,11.541865000035614,12.002800000016578,12.567335000028834]",space,0.5866,0.0,21.0,21.0,6.0,1.0,,,,,,,,,,,,,,
,,,,,,,,,,,block_1/weak_n_105_3.wav,no,n,weak,105.0,1.738990723,13.41450093,,,yes,,30,no,f,53,R,yes,1,2020-08-08_23h32.56.541,kura-A2,2020.1.2,Linux x86_64,60,,,"[""space"",""space"",""space"",""space"",""space"",""space"",""space"",""space"",""space"",""space"",""space"",""space"",""space"",""space"",""space"",""space"",""space"",""space"",""space"",""space""]","[0.21849499992094934,0.910994999925606,1.471214999910444,2.224225000012666,2.734239999903366,3.411104999948293,4.1191049999324605,4.70059499994386,5.258124999934807,5.918269999907352,6.443994999979623,6.9685249999165535,7.519024999928661,8.067745000007562,8.656119999941438,9.245114999939688,9.834399999934249,10.343624999979511,10.868154999916442,11.44562999997288]",space,0.61253,0.0,22.0,22.0,27.0,1.0,,,,,,,,,,,,,,
,,,,,,,,,,,block_1/weak_n_72_3.wav,no,n,weak,72.0,1.008682366,16.87657352,,,yes,,30,no,f,53,R,yes,1,2020-08-08_23h32.56.541,kura-A2,2020.1.2,Linux x86_64,60,,,"[""space"",""space"",""space"",""space"",""space"",""space"",""space"",""space"",""space"",""space"",""space"",""space"",""space"",""space"",""space"",""space"",""space"",""space"",""space"",""space""]","[0.2675150000723079,1.0626900000497699,2.0590850000735372,2.776020000106655,3.5598400000017136,4.313635000027716,5.096835000091232,5.955205000005662,6.8012500000186265,7.619980000075884,8.387965000001714,9.14901000005193,9.924735000007786,10.654850000049919,11.499470000038855,12.224165000021458,13.005275000003166,13.874110000091605,14.70310500008054,15.427035000058822]",space,0.51976,0.0,23.0,23.0,8.0,1.0,,,,,,,,,,,,,,
,,,,,,,,,,,block_1/medium_n_119_4.wav,no,n,medium,119.0,1.261396351,9.568471181,,,yes,,30,no,f,53,R,yes,1,2020-08-08_23h32.56.541,kura-A2,2020.1.2,Linux x86_64,60,,,"[""space"",""space"",""space"",""space"",""space"",""space"",""space"",""space"",""space"",""space"",""space"",""space"",""space"",""space"",""space"",""space"",""space"",""space"",""space"",""space""]","[0.26769500004593283,0.8876750000054017,1.270490000024438,1.6985900000436231,2.0639300000621006,2.4234400000423193,2.8189250000286847,3.1675800000084564,3.576005000039004,3.9867700000759214,4.447605000110343,4.9171750000678,5.397525000036694,5.823800000012852,6.29265000007581,6.74628500000108,7.207740000099875,7.644775000051595,8.0656650000019,8.52178500010632]",space,0.471155,0.0,24.0,24.0,17.0,1.0,,,,,,,,,,,,,,
,,,,,,,,,,,block_1/strong_n_92_4.wav,no,n,strong,92.0,2.276261723,15.98016195,,,yes,,30,no,f,53,R,yes,1,2020-08-08_23h32.56.541,kura-A2,2020.1.2,Linux x86_64,60,,,"[""space"",""space"",""space"",""space"",""space"",""space"",""space"",""space"",""space"",""space"",""space"",""space"",""space"",""space"",""space"",""space"",""space"",""space"",""space"",""space"",""space""]","[0.2424050000263378,0.7913750000298023,1.3404149999842048,2.0568399999756366,2.7743199999677017,3.4667249999474734,4.199434999958612,4.9163799999514595,5.617115000030026,6.326349999988452,7.027074999990873,7.744174999999814,8.46070499997586,9.173085000016727,9.893754999968223,10.586989999981597,11.319589999970049,12.01320000004489,12.748464999953285,13.421904999995604,14.13905999995768]",space,0.435405,0.0,25.0,25.0,34.0,1.0,,,,,,,,,,,,,,
,,,,,,,,,,,block_1/weak_n_81_3.wav,no,n,weak,81.0,1.412334255,16.47029344,,,yes,,30,no,f,53,R,yes,1,2020-08-08_23h32.56.541,kura-A2,2020.1.2,Linux x86_64,60,,,"[""space"",""space"",""space"",""space"",""space"",""space"",""space"",""space"",""space"",""space"",""space"",""space"",""space"",""space"",""space"",""space"",""space"",""space"",""space"",""space""]","[0.26217000000178814,1.0897500000428408,2.0149250000249594,2.643095000064932,3.49511999997776,4.29995500005316,5.012495000031777,5.750424999976531,6.4827799999620765,7.216420000069775,7.96386999997776,8.72866999998223,9.389830000000075,10.154704999993555,10.919705000007525,11.662069999962114,12.41601000004448,13.156975000048988,13.946205000043847,14.735914999968372]",space,0.619345,0.0,26.0,26.0,30.0,1.0,,,,,,,,,,,,,,
,,,,,,,,,,,block_1/weak_n_92_4.wav,no,n,weak,92.0,2.208253857,14.29442166,,,yes,,30,no,f,53,R,yes,1,2020-08-08_23h32.56.541,kura-A2,2020.1.2,Linux x86_64,60,,,"[""space"",""space"",""space"",""space"",""space"",""space"",""space"",""space"",""space"",""space"",""space"",""space"",""space"",""space"",""space"",""space"",""space"",""space"",""space"",""space""]","[0.2252650000154972,0.8540700000012293,1.4711649999953806,2.1286800000816584,2.7412650000769645,3.3302200000034645,3.9602650000015274,4.516234999988228,5.089000000036322,5.7421350000659,6.350280000013299,6.928055000025779,7.52436999999918,8.162060000002384,8.766769999987446,9.390929999994114,9.985184999997728,10.59717000008095,11.178390000015497,11.799190000048839]",space,0.397785,0.0,27.0,27.0,15.0,1.0,,,,,,,,,,,,,,
,,,,,,,,,,,block_1/medium_n_81_3.wav,no,n,medium,81.0,1.199970007,16.72060493,,,yes,,30,no,f,53,R,yes,1,2020-08-08_23h32.56.541,kura-A2,2020.1.2,Linux x86_64,60,,,"[""space"",""space"",""space"",""space"",""space"",""space"",""space"",""space"",""space"",""space"",""space"",""space"",""space"",""space"",""space"",""space"",""space"",""space"",""space"",""space""]","[0.2926899999147281,0.6858399999327958,1.5826149999629706,2.2589249999728054,3.1117799999192357,3.9319899999536574,4.680824999930337,5.501324999961071,6.2824199999449775,7.151249999995343,7.955160000012256,8.743699999991804,9.532969999941997,10.36894499999471,11.18129500001669,11.996319999918342,12.774734999984503,13.596079999930225,14.392524999915622,15.18091499991715]",space,0.364875,0.0,28.0,28.0,33.0,1.0,,,,,,,,,,,,,,
,,,,,,,,,,,block_1/medium_n_92_4.wav,no,n,medium,92.0,1.438882438,14.02917722,,,yes,,30,no,f,53,R,yes,1,2020-08-08_23h32.56.541,kura-A2,2020.1.2,Linux x86_64,60,,,"[""space"",""space"",""space"",""space"",""space"",""space"",""space"",""space"",""space"",""space"",""space"",""space"",""space"",""space"",""space"",""space"",""space"",""space"",""space"",""space""]","[0.2903449999867007,0.9530449999729171,1.5045549999922514,2.209305000025779,2.773990000016056,3.44319500005804,4.144124999991618,4.748755000066012,5.385415000026114,6.0156450000358745,6.6753650000318885,7.272519999998622,7.925204999977723,8.522525000036694,9.143075000029057,9.812035000068136,10.448725000023842,11.02945999999065,11.698865000042133,12.335655000060797]",space,0.5531,0.0,29.0,29.0,11.0,1.0,,,,,,,,,,,,,,
,,,,,,,,,,,block_1/medium_n_72_4.wav,no,n,medium,72.0,1.204769933,15.71334136,,,yes,,30,no,f,53,R,yes,1,2020-08-08_23h32.56.541,kura-A2,2020.1.2,Linux x86_64,60,,,"[""space"",""space"",""space"",""space"",""space"",""space"",""space"",""space"",""space"",""space"",""space"",""space"",""space"",""space"",""space"",""space"",""space"",""space"",""space"",""space""]","[0.2345249999780208,0.7259299999568611,1.61035999993328,2.323494999902323,3.0836249999701977,3.7848699999740347,4.597384999971837,5.306649999925867,6.11921999999322,6.827189999981783,7.592414999962784,8.320724999997765,9.041389999911189,9.750449999934062,10.483144999947399,11.231789999990724,12.004549999954179,12.714249999960884,13.46980999992229,14.186705000000075]",space,0.46984,0.0,30.0,30.0,7.0,1.0,,,,,,,,,,,,,,
,,,,,,,,,,,block_1/weak_n_72_4.wav,no,n,weak,72.0,1.441009476,17.41543124,,,yes,,30,no,f,53,R,yes,1,2020-08-08_23h32.56.541,kura-A2,2020.1.2,Linux x86_64,60,,,"[""space"",""space"",""space"",""space"",""space"",""space"",""space"",""space"",""space"",""space"",""space"",""space"",""space"",""space"",""space"",""space"",""space"",""space"",""space"",""space""]","[0.2542799999937415,0.7558200000785291,1.4563649999909103,2.2131650000810623,3.001479999977164,3.902585000032559,4.862165000056848,5.6236350000835955,6.48374000005424,7.268660000059754,8.08672999998089,8.938800000003539,9.750205000047572,10.586774999974295,11.455770000000484,12.315720000071451,13.088095000013709,13.94081499997992,14.785860000061803,15.614365000044927]",space,0.32073,0.0,31.0,31.0,4.0,1.0,,,,,,,,,,,,,,
,,,,,,,,,,,block_1/none_n_92_4.wav,no,n,none,92.0,1.296817987,15.18938035,,,yes,,30,no,f,53,R,yes,1,2020-08-08_23h32.56.541,kura-A2,2020.1.2,Linux x86_64,60,,,"[""space"",""space"",""space"",""space"",""space"",""space"",""space"",""space"",""space"",""space"",""space"",""space"",""space"",""space"",""space"",""space"",""space"",""space"",""space"",""space"",""space"",""space"",""space"",""space""]","[0.2547649999614805,0.7192400000058115,1.3767300000181422,2.089284999994561,2.7868749999906868,3.470919999992475,4.219634999986738,4.946155000012368,5.637684999965131,6.194675000035204,6.7911150000290945,7.368374999961816,7.945395000046119,8.574004999944009,9.206125000026077,9.791839999961667,10.277845000033267,10.834140000049956,11.39902999997139,11.88448500004597,12.417505000019446,12.88196499994956,13.483645000029355,14.024704999988899]",space,0.386575,0.0,32.0,32.0,19.0,1.0,,,,,,,,,,,,,,
,,,,,,,,,,,block_1/strong_n_81_4.wav,no,n,strong,81.0,1.727706814,17.69954355,,,yes,,30,no,f,53,R,yes,1,2020-08-08_23h32.56.541,kura-A2,2020.1.2,Linux x86_64,60,,,"[""space"",""space"",""space"",""space"",""space"",""space"",""space"",""space"",""space"",""space"",""space"",""space"",""space"",""space"",""space"",""space"",""space"",""space"",""space"",""space"",""space""]","[0.38434999994933605,1.1572150000138208,1.8584399999817833,2.6785499999532476,3.4601849999744445,4.2796399999642745,5.084380000014789,5.88937500002794,6.693609999958426,7.522370000020601,8.342955000000075,9.17172500002198,9.976094999932684,10.732405000017025,11.569550000014715,12.397630000021309,13.202279999968596,14.023634999990463,14.843764999997802,15.60305499995593,16.413049999973737]",space,0.373985,0.0,33.0,33.0,1.0,1.0,,,,,,,,,,,,,,
,,,,,,,,,,,block_1/weak_n_92_3.wav,no,n,weak,92.0,1.887522896,14.6307882,,,yes,,30,no,f,53,R,yes,1,2020-08-08_23h32.56.541,kura-A2,2020.1.2,Linux x86_64,60,,,"[""space"",""space"",""space"",""space"",""space"",""space"",""space"",""space"",""space"",""space"",""space"",""space"",""space"",""space"",""space"",""space"",""space"",""space"",""space"",""space""]","[0.24727499997243285,0.9394750000210479,1.4565550000406802,1.9979049999965355,2.658534999936819,3.3591899999883026,4.028174999984913,4.601634999969974,5.26364499994088,5.907479999936186,6.551964999991469,7.269349999958649,7.937715000007302,8.630920000025071,9.268015000037849,9.891794999944977,10.526740000001155,11.17925499996636,11.79983000003267,12.47675499995239]",space,0.368815,0.0,34.0,34.0,5.0,1.0,,,,,,,,,,,,,,
,,,,,,,,,,,block_1/strong_n_92_3.wav,no,n,strong,92.0,1.754608557,14.24499404,,,yes,,30,no,f,53,R,yes,1,2020-08-08_23h32.56.541,kura-A2,2020.1.2,Linux x86_64,60,,,"[""space"",""space"",""space"",""space"",""space"",""space"",""space"",""space"",""space"",""space"",""space"",""space"",""space"",""space"",""space"",""space"",""space"",""space"",""space"",""space"",""space""]","[0.3388249999843538,0.9891899999929592,1.4719249999616295,2.0658249999396503,2.734764999942854,3.379659999976866,3.961104999994859,4.622080000001006,5.23472499998752,5.887985000037588,6.540569999953732,7.138105000020005,7.787019999930635,8.405294999945909,9.064750000019558,9.677544999984093,10.346614999929443,10.962169999955222,11.597025000024587,12.210044999956153,12.85016499995254]",space,0.327275,0.0,35.0,35.0,39.0,1.0,,,,,,,,,,,,,,
,,,,,,,,,,,block_1/weak_n_81_4.wav,no,n,weak,81.0,2.484743178,17.5438815,,,yes,,30,no,f,53,R,yes,1,2020-08-08_23h32.56.541,kura-A2,2020.1.2,Linux x86_64,60,,,"[""space"",""space"",""space"",""space"",""space"",""space"",""space"",""space"",""space"",""space"",""space"",""space"",""space"",""space"",""space"",""space"",""space"",""space"",""space"",""space""]","[0.24095499992836267,1.2935299999080598,2.098950000014156,2.8255049999570474,3.651289999950677,4.4249650000128895,5.140870000002906,5.866074999910779,6.39089999999851,6.956154999905266,7.704395000007935,8.462014999939129,9.298384999972768,10.088159999926575,10.844249999965541,11.600325000006706,12.34980500000529,13.122374999918975,13.895079999929294,14.671029999968596]",space,0.35678,0.0,36.0,36.0,36.0,1.0,,,,,,,,,,,,,,
,,,,,,,,,,,block_1/strong_n_81_3.wav,no,n,strong,81.0,1.6043637,15.60930701,,,yes,,30,no,f,53,R,yes,1,2020-08-08_23h32.56.541,kura-A2,2020.1.2,Linux x86_64,60,,,"[""space"",""space"",""space"",""space"",""space"",""space"",""space"",""space"",""space"",""space"",""space"",""space"",""space"",""space"",""space"",""space"",""space"",""space"",""space"",""space"",""space""]","[0.2911450000246987,0.9866250000195578,1.6133099999278784,2.2821550000226125,2.9831250000279397,3.6838149999966845,4.4006449999287724,5.14179000002332,5.866210000007413,6.590919999987818,7.291854999959469,7.960549999959767,8.717895000008866,9.41031499998644,10.135224999976344,10.899824999971315,11.56917999999132,12.389889999991283,12.982829999993555,13.6720750000095,14.404555000015534]",space,0.5316,0.0,37.0,37.0,10.0,1.0,,,,,,,,,,,,,,
,,,,,,,,,,,block_1/medium_n_72_3.wav,no,n,medium,72.0,2.102023577,18.17590113,,,yes,,30,no,f,53,R,yes,1,2020-08-08_23h32.56.541,kura-A2,2020.1.2,Linux x86_64,60,,,"[""space"",""space"",""space"",""space"",""space"",""space"",""space"",""space"",""space"",""space"",""space"",""space"",""space"",""space"",""space"",""space"",""space"",""space"",""space"",""space""]","[0.24564999993890524,0.7947399999247864,1.705574999912642,2.4677999999839813,3.2963449999224395,4.1014049999648705,4.980229999986477,5.798954999889247,6.667509999941103,7.503894999972545,8.316874999902211,9.153299999888986,9.99237999995239,10.818035000003874,11.599259999929927,12.419504999998026,13.239784999983385,14.045279999962077,14.890134999994189,15.689199999906123]",space,0.39828,0.0,38.0,38.0,13.0,1.0,,,,,,,,,,,,,,
,,,,,,,,,,,block_1/none_n_72_4.wav,no,n,none,72.0,1.118979514,23.86124709,,,yes,,30,no,f,53,R,yes,1,2020-08-08_23h32.56.541,kura-A2,2020.1.2,Linux x86_64,60,,,"[""space"",""space"",""space"",""space"",""space"",""space"",""space"",""space"",""space"",""space"",""space"",""space"",""space"",""space"",""space"",""space"",""space"",""space"",""space"",""space"",""space"",""space"",""space"",""space"",""space"",""space"",""space"",""space"",""space"",""space"",""space"",""space"",""space"",""space"",""space"",""space"",""space"",""space"",""space"",""space"",""space""]","[0.3597849999787286,1.0448649999452755,1.738965000025928,2.369204999995418,2.9638900000136346,3.6483500000322238,4.165329999988899,4.7230299999937415,5.2720899999840185,5.804884999990463,6.36957999994047,6.870800000033341,7.335424999939278,7.8895149999298155,8.541989999939688,9.012050000019372,9.540859999950044,10.014319999958389,10.526549999951385,11.011249999981374,11.529089999967255,12.09092500002589,12.599199999938719,13.117050000000745,13.641769999987446,14.218970000045374,14.732955000014044,15.25722000002861,15.798494999995455,16.418884999933653,17.064129999955185,17.710910000023432,18.29059500002768,18.914194999961182,19.420874999952503,20.02604499994777,20.486619999981485,21.035954999970272,21.587434999994002,22.105474999989383,22.779154999996535]",space,0.58918,0.0,39.0,39.0,21.0,1.0,,,,,,,,,,,,,,
,,,,,,,,,,,block_2/strong_t_92_3.wav,timbre,t,strong,92.0,2.058598996,15.10526566,,,yes,,30,no,f,53,R,yes,1,2020-08-08_23h32.56.541,kura-A2,2020.1.2,Linux x86_64,60,,,,,,,,,,,,space,7.430295,"[""space"",""space"",""space"",""space"",""space"",""space"",""space"",""space"",""space"",""space"",""space"",""space"",""space"",""space"",""space"",""space"",""space"",""space"",""space"",""space"",""space""]","[0.2430750000057742,0.8709449999732897,1.4282799999928102,2.090239999932237,2.757789999945089,3.4514000000199303,4.087699999916367,4.740559999947436,5.425274999928661,6.098899999982677,6.739225000026636,7.456194999977015,8.125355000025593,8.77810499991756,9.456604999955744,10.099629999953322,10.744869999936782,11.453970000031404,12.066769999917597,12.743814999936149,13.416614999994636]",space,1.55548,0.0,0.0,0.0,3.0,1.0,,,
,,,,,,,,,,,block_2/none_t_81_4.wav,timbre,t,none,81.0,1.883383873,17.9242909,,,yes,,30,no,f,53,R,yes,1,2020-08-08_23h32.56.541,kura-A2,2020.1.2,Linux x86_64,60,,,,,,,,,,,,,,"[""space"",""space"",""space"",""space"",""space"",""space"",""space"",""space"",""space"",""space"",""space"",""space"",""space"",""space"",""space"",""space"",""space"",""space"",""space"",""space"",""space"",""space"",""space"",""space"",""space""]","[0.27896999998483807,1.086780000012368,1.72761000005994,2.4444799999473616,3.108185000019148,3.776754999998957,4.4118149999994785,5.104040000005625,5.789059999980964,6.506715000024997,7.142770000034943,7.795455000014044,8.408569999970496,9.039209999958985,9.741389999981038,10.408975000027567,11.044160000048578,11.673244999954477,12.286104999948293,12.954894999973476,13.567915000021458,14.252515000058338,14.873194999992847,15.526775000034831,16.19522999995388]",space,0.32038,0.0,1.0,1.0,12.0,1.0,,,
,,,,,,,,,,,block_2/none_t_72_4.wav,timbre,t,none,72.0,1.053800106,24.75334659,,,yes,,30,no,f,53,R,yes,1,2020-08-08_23h32.56.541,kura-A2,2020.1.2,Linux x86_64,60,,,,,,,,,,,,,,"[""space"",""space"",""space"",""space"",""space"",""space"",""space"",""space"",""space"",""space"",""space"",""space"",""space"",""space"",""space"",""space"",""space"",""space"",""space"",""space"",""space"",""space"",""space"",""space"",""space"",""space"",""space"",""space"",""space"",""space"",""space"",""space"",""space"",""space"",""space"",""space"",""space"",""space"",""space""]","[0.27249499992467463,0.7694249999476597,1.291194999939762,2.0234999998938292,2.524419999914244,3.058614999987185,3.6150699999416247,4.244309999980032,5.152144999941811,5.973049999913201,6.5500499999616295,7.102749999961816,7.720109999994747,8.241364999907091,8.742289999965578,9.283479999983683,9.84837499994319,10.397639999981038,10.882709999918006,11.504914999939501,12.148384999949485,12.817794999922626,13.438510000007227,14.03523999999743,14.656369999982417,15.292949999915436,15.906099999905564,16.591114999959245,17.25292499992065,17.968374999938533,18.589594999910332,19.20239499991294,19.799679999938235,20.420439999899827,21.00987999991048,21.663169999956153,22.331579999998212,23.000919999904,23.608324999921024]",space,0.485975,0.0,2.0,2.0,15.0,1.0,,,
,,,,,,,,,,,block_2/weak_t_72_4.wav,timbre,t,weak,72.0,1.41938316,17.89516547,,,yes,,30,no,f,53,R,yes,1,2020-08-08_23h32.56.541,kura-A2,2020.1.2,Linux x86_64,60,,,,,,,,,,,,,,"[""space"",""space"",""space"",""space"",""space"",""space"",""space"",""space"",""space"",""space"",""space"",""space"",""space"",""space"",""space"",""space"",""space"",""space"",""space"",""space""]","[0.24234999995678663,0.8317049999022856,1.9395449999719858,2.8404999999329448,3.6840649999212474,4.465849999920465,5.280464999959804,6.132539999904111,6.967375000007451,7.787550000008196,8.588079999899492,9.453404999920167,10.313504999969155,11.144654999952763,12.002719999989495,12.815734999952838,13.69183999998495,14.520289999898523,15.277289999998175,16.106234999955632]",space,0.407525,0.0,3.0,3.0,33.0,1.0,,,
,,,,,,,,,,,block_2/weak_t_72_3.wav,timbre,t,weak,72.0,1.543417886,17.01208002,,,yes,,30,no,f,53,R,yes,1,2020-08-08_23h32.56.541,kura-A2,2020.1.2,Linux x86_64,60,,,,,,,,,,,,,,"[""space"",""space"",""space"",""space"",""space"",""space"",""space"",""space"",""space"",""space"",""space"",""space"",""space"",""space"",""space"",""space"",""space"",""space"",""space"",""space""]","[0.254990000044927,0.8280250000534579,1.4812850001035258,2.2456200000597164,3.09863000002224,3.887140000006184,4.645680000074208,5.44039000000339,6.270080000045709,7.057744999998249,7.8782000000355765,8.707325000083074,9.551565000088885,10.292439999990165,11.089580000028946,11.925825000042096,12.748185000033118,13.558750000083819,14.339345000102185,15.127535000094213]",space,0.396145,0.0,4.0,4.0,26.0,1.0,,,
,,,,,,,,,,,block_2/medium_t_92_3.wav,timbre,t,medium,92.0,1.388240232,13.37372776,,,yes,,30,no,f,53,R,yes,1,2020-08-08_23h32.56.541,kura-A2,2020.1.2,Linux x86_64,60,,,,,,,,,,,,,,"[""space"",""space"",""space"",""space"",""space"",""space"",""space"",""space"",""space"",""space"",""space"",""space"",""space"",""space"",""space"",""space"",""space"",""space"",""space"",""space"",""space""]","[0.2738450000761077,0.871030000038445,1.4918150000739843,2.0726400000276044,2.6618299999972805,3.2669000000460073,3.888205000082962,4.484375,5.089510000078008,5.697495000087656,6.267390000051819,6.888585000066087,7.469595000031404,8.058400000096299,8.648185000056401,9.284895000047982,9.908265000092797,10.502595000085421,11.099675000063144,11.712755000102334,12.317395000020042]",space,0.628705,0.0,5.0,5.0,35.0,1.0,,,
,,,,,,,,,,,block_2/medium_t_105_4.wav,timbre,t,medium,105.0,1.80685877,13.54300389,,,yes,,30,no,f,53,R,yes,1,2020-08-08_23h32.56.541,kura-A2,2020.1.2,Linux x86_64,60,,,,,,,,,,,,,,"[""space"",""space"",""space"",""space"",""space"",""space"",""space"",""space"",""space"",""space"",""space"",""space"",""space"",""space"",""space"",""space"",""space"",""space"",""space""]","[0.32639499998185784,1.1870349999517202,1.9221050000051036,2.4925949999596924,2.9870699999155477,3.5595200000097975,4.171794999972917,4.795884999912232,5.46386000001803,6.098559999954887,6.687354999943636,7.2763649999396876,7.889224999933504,8.509895000024699,9.115469999960624,9.70727499993518,10.301800000015646,10.89841499994509,11.487569999997504]",space,0.351995,0.0,6.0,6.0,23.0,1.0,,,
,,,,,,,,,,,block_2/strong_t_92_4.wav,timbre,t,strong,92.0,1.817525361,14.05856845,,,yes,,30,no,f,53,R,yes,1,2020-08-08_23h32.56.541,kura-A2,2020.1.2,Linux x86_64,60,,,,,,,,,,,,,,"[""space"",""space"",""space"",""space"",""space"",""space"",""space"",""space"",""space"",""space"",""space"",""space"",""space"",""space"",""space"",""space"",""space"",""space"",""space"",""space""]","[0.32270499994046986,1.0716199999442324,1.7169349999167025,2.3739199999254197,3.014439999940805,3.6675849999301136,4.279839999973774,4.912679999950342,5.553955000010319,6.216045000008307,6.843959999969229,7.472484999918379,8.125799999921583,8.755394999985583,9.38321499992162,10.036785000003874,10.676444999990053,11.278334999922663,11.89249999995809,12.607964999973774]",space,0.471935,0.0,7.0,7.0,9.0,1.0,,,
,,,,,,,,,,,block_2/none_t_119_3.wav,timbre,t,none,119.0,1.207484261,12.32644118,,,yes,,30,no,f,53,R,yes,1,2020-08-08_23h32.56.541,kura-A2,2020.1.2,Linux x86_64,60,,,,,,,,,,,,,,"[""space"",""space"",""space"",""space"",""space"",""space"",""space"",""space"",""space"",""space"",""space"",""space"",""space"",""space"",""space"",""space"",""space"",""space"",""space""]","[0.24347500002477318,1.170380000025034,1.956484999973327,2.7291399999521673,3.4305900000035763,4.050900000031106,4.679860000032932,5.165374999982305,5.731290000025183,6.351215000031516,6.908425000030547,7.473130000056699,8.110184999997728,8.604939999990165,9.072505000047386,9.597444999963045,10.034815000020899,10.46379499998875,10.977380000054836]",space,0.552375,0.0,8.0,8.0,32.0,1.0,,,
,,,,,,,,,,,block_2/none_t_92_4.wav,timbre,t,none,92.0,1.414044957,16.25508804,,,yes,,30,no,f,53,R,yes,1,2020-08-08_23h32.56.541,kura-A2,2020.1.2,Linux x86_64,60,,,,,,,,,,,,,,"[""space"",""space"",""space"",""space"",""space"",""space"",""space"",""space"",""space"",""space"",""space"",""space"",""space"",""space"",""space"",""space"",""space"",""space"",""space"",""space"",""space"",""space"",""space"",""space"",""space"",""space""]","[0.23855999996885657,0.7870750000001863,1.2564349999884143,1.8885299999965355,2.3623999999836087,2.91113000002224,3.4208550000330433,4.026985000004061,4.646335000055842,5.299379999982193,5.984360000002198,6.750295000034384,7.301880000042729,7.9426900000544265,8.507994999992661,9.025295000057667,9.613755000056699,10.163240000023507,10.676540000014938,11.221580000012182,11.845865000039339,12.439379999996163,12.982019999995828,13.545655000023544,14.134444999974221,14.652755000046454]",space,0.28735,0.0,9.0,9.0,22.0,1.0,,,
,,,,,,,,,,,block_2/medium_t_119_3.wav,timbre,t,medium,119.0,1.894752713,10.65330147,,,yes,,30,no,f,53,R,yes,1,2020-08-08_23h32.56.541,kura-A2,2020.1.2,Linux x86_64,60,,,,,,,,,,,,,,"[""space"",""space"",""space"",""space"",""space"",""space"",""space"",""space"",""space"",""space"",""space"",""space"",""space"",""space"",""space"",""space"",""space"",""space"",""space"",""space""]","[0.2604099999880418,0.969429999939166,1.422554999939166,1.8679949999786913,2.297109999926761,2.734514999901876,3.187154999934137,3.632799999904819,4.06231999990996,4.494644999969751,4.962954999995418,5.437599999946542,5.85883499996271,6.305339999962598,6.783974999911152,7.21856999990996,7.663369999965653,8.137359999935143,8.578385000000708,9.031474999967031]",space,0.328595,0.0,10.0,10.0,37.0,1.0,,,
,,,,,,,,,,,block_2/medium_t_81_4.wav,timbre,t,medium,81.0,2.313262111,15.10881767,,,yes,,30,no,f,53,R,yes,1,2020-08-08_23h32.56.541,kura-A2,2020.1.2,Linux x86_64,60,,,,,,,,,,,,,,"[""space"",""space"",""space"",""space"",""space"",""space"",""space"",""space"",""space"",""space"",""space"",""space"",""space"",""space"",""space"",""space"",""space"",""space"",""space""]","[0.22587999992538244,1.4294499999377877,2.034194999956526,2.690599999972619,3.331889999913983,3.8893649999517947,4.512430000002496,5.170994999934919,5.799714999971911,6.460804999922402,7.114144999999553,7.838499999954365,8.53890499996487,9.192384999943897,9.87680999992881,10.546214999980293,11.182424999889918,11.83577999996487,12.440384999965318]",space,0.338685,0.0,11.0,11.0,2.0,1.0,,,
,,,,,,,,,,,block_2/weak_t_105_4.wav,timbre,t,weak,105.0,1.205192231,12.73516956,,,yes,,30,no,f,53,R,yes,1,2020-08-08_23h32.56.541,kura-A2,2020.1.2,Linux x86_64,60,,,,,,,,,,,,,,"[""space"",""space"",""space"",""space"",""space"",""space"",""space"",""space"",""space"",""space"",""space"",""space"",""space"",""space"",""space"",""space"",""space"",""space"",""space"",""space"",""space""]","[0.30142500007059425,0.9864199999719858,1.5410600000759587,2.1618299999972805,2.7511400000657886,3.252489999984391,3.8016100000822917,4.361284999991767,4.867644999991171,5.424740000045858,6.005654999986291,6.554499999969266,7.167744999984279,7.740085000055842,8.33768500003498,8.9102300000377,9.427335000014864,10.02456000004895,10.621810000040568,11.21832500002347,11.77945000003092]",space,0.50544,0.0,12.0,12.0,7.0,1.0,,,
,,,,,,,,,,,block_2/medium_t_119_4.wav,timbre,t,medium,119.0,2.1713947,11.99221103,,,yes,,30,no,f,53,R,yes,1,2020-08-08_23h32.56.541,kura-A2,2020.1.2,Linux x86_64,60,,,,,,,,,,,,,,"[""space"",""space"",""space"",""space"",""space"",""space"",""space"",""space"",""space"",""space"",""space"",""space"",""space"",""space"",""space"",""space"",""space"",""space"",""space"",""space""]","[0.23500500002410263,1.1414850000292063,1.6507700000656769,2.095785000012256,2.5251050000078976,2.995699999970384,3.4155850000679493,3.8773550000041723,4.433949999976903,4.902899999986403,5.404095000005327,5.921085000038147,6.399820000049658,6.9008900000480935,7.452204999979585,7.969879999989644,8.483555000042543,9.072780000045896,9.541549999965355,10.129844999988563]",space,0.681795,0.0,13.0,13.0,30.0,1.0,,,
,,,,,,,,,,,block_2/none_t_105_4.wav,timbre,t,none,105.0,1.723889958,15.53967227,,,yes,,30,no,f,53,R,yes,1,2020-08-08_23h32.56.541,kura-A2,2020.1.2,Linux x86_64,60,,,,,,,,,,,,,,"[""space"",""space"",""space"",""space"",""space"",""space"",""space"",""space"",""space"",""space"",""space"",""space"",""space"",""space"",""space"",""space"",""space"",""space"",""space"",""space"",""space""]","[0.41272000002209097,1.481290000025183,2.0391449999297038,2.556389999925159,3.2318149999482557,3.926589999930002,4.545105000026524,5.03062500001397,5.5317400000058115,6.048635000013746,6.621904999949038,7.268229999928735,7.991410000016913,8.66067499993369,9.409134999965318,10.16596999997273,11.010324999922886,11.745424999971874,12.430225000018254,13.001019999966957,13.549824999994598]",space,0.368815,0.0,14.0,14.0,20.0,1.0,,,
,,,,,,,,,,,block_2/strong_t_72_4.wav,timbre,t,strong,72.0,1.957123463,17.07435702,,,yes,,30,no,f,53,R,yes,1,2020-08-08_23h32.56.541,kura-A2,2020.1.2,Linux x86_64,60,,,,,,,,,,,,,,"[""space"",""space"",""space"",""space"",""space"",""space"",""space"",""space"",""space"",""space"",""space"",""space"",""space"",""space"",""space"",""space"",""space"",""space"",""space"",""space""]","[0.709584999945946,1.2537449999945238,2.206969999941066,3.0436599999666214,3.83273000002373,4.5892900000326335,5.363965000025928,6.1261699999449775,6.938869999954477,7.743449999950826,8.500224999967031,9.281190000008792,10.077745000016876,10.866210000007413,11.695384999969974,12.46778499998618,13.215959999943152,13.988774999976158,14.769585000001825,15.550329999998212]",space,0.43978,0.0,15.0,15.0,1.0,1.0,,,
,,,,,,,,,,,block_2/strong_t_81_4.wav,timbre,t,strong,81.0,1.059530738,15.41717246,,,yes,,30,no,f,53,R,yes,1,2020-08-08_23h32.56.541,kura-A2,2020.1.2,Linux x86_64,60,,,,,,,,,,,,,,"[""space"",""space"",""space"",""space"",""space"",""space"",""space"",""space"",""space"",""space"",""space"",""space"",""space"",""space"",""space"",""space"",""space"",""space"",""space"",""space"",""space""]","[0.42621500010136515,0.9114800000097603,1.7002150000771508,2.416950000100769,3.144040000042878,3.8662100000074133,4.5990500000771135,5.292435000068508,6.024425000068732,6.741290000034496,7.52194500004407,8.270520000020042,8.971960000111721,9.691150000086054,10.409270000061952,11.15465000004042,11.870805000071414,12.63076000008732,13.352640000055544,14.060705000068992,14.753360000089742]",space,0.594845,0.0,16.0,16.0,34.0,1.0,,,
,,,,,,,,,,,block_2/strong_t_105_3.wav,timbre,t,strong,105.0,1.973938856,13.50654657,,,yes,,30,no,f,53,R,yes,1,2020-08-08_23h32.56.541,kura-A2,2020.1.2,Linux x86_64,60,,,,,,,,,,,,,,"[""space"",""space"",""space"",""space"",""space"",""space"",""space"",""space"",""space"",""space"",""space"",""space"",""space"",""space"",""space"",""space"",""space"",""space"",""space"",""space"",""space""]","[0.2873149999650195,0.820024999906309,1.289314999943599,1.8618299999507144,2.4433899999130517,3.0441449999343604,3.621404999983497,4.227954999892972,4.822944999905303,5.355954999919049,6.001619999995455,6.566604999941774,7.151789999916218,7.712244999944232,8.320994999958202,8.906229999964125,9.494914999930188,10.044119999976829,10.64374999993015,11.238909999956377,11.829579999903217]",space,0.318665,0.0,17.0,17.0,21.0,1.0,,,
,,,,,,,,,,,block_2/none_t_119_4.wav,timbre,t,none,119.0,2.16972576,11.23222009,,,yes,,30,no,f,53,R,yes,1,2020-08-08_23h32.56.541,kura-A2,2020.1.2,Linux x86_64,60,,,,,,,,,,,,,,"[""space"",""space"",""space"",""space"",""space"",""space"",""space"",""space"",""space"",""space"",""space"",""space"",""space"",""space"",""space"",""space""]","[0.24396999995224178,1.0874699999112636,1.7335249999305233,2.266164999920875,2.926495000021532,3.6677599999820814,4.336490000016056,4.829410000005737,5.402125000022352,5.9146949999267235,6.349485000013374,6.778339999960735,7.479679999989457,8.019944999949075,8.488754999940284,8.99855000001844]",space,0.518945,0.0,18.0,18.0,27.0,1.0,,,
,,,,,,,,,,,block_2/medium_t_92_4.wav,timbre,t,medium,92.0,1.599417172,14.59601581,,,yes,,30,no,f,53,R,yes,1,2020-08-08_23h32.56.541,kura-A2,2020.1.2,Linux x86_64,60,,,,,,,,,,,,,,"[""space"",""space"",""space"",""space"",""space"",""space"",""space"",""space"",""space"",""space"",""space"",""space"",""space"",""space"",""space"",""space"",""space"",""space"",""space"",""space""]","[0.22926000005099922,0.8105900000082329,1.3543449999997392,2.0759499999694526,2.6933549999957904,3.3593300000065938,4.011530000017956,4.688205000013113,5.404600000008941,6.04957499995362,6.741950000054203,7.379560000030324,8.024085000040941,8.704660000046715,9.390570000046864,10.04219499998726,10.699179999995977,11.36135500005912,12.063274999964051,12.714434999972582]",space,0.59504,0.0,19.0,19.0,25.0,1.0,,,
,,,,,,,,,,,block_2/weak_t_81_4.wav,timbre,t,weak,81.0,1.138387897,14.33417021,,,yes,,30,no,f,53,R,yes,1,2020-08-08_23h32.56.541,kura-A2,2020.1.2,Linux x86_64,60,,,,,,,,,,,,,,"[""space"",""space"",""space"",""space"",""space"",""space"",""space"",""space"",""space"",""space"",""space"",""space"",""space"",""space"",""space"",""space"",""space"",""space"",""space"",""space""]","[0.3352249999297783,1.0040899999439716,1.605974999954924,2.2675849999068305,2.924464999930933,3.548909999895841,4.201744999969378,4.879899999941699,5.564669999992475,6.192559999995865,6.801089999964461,7.506119999918155,8.170839999918826,8.891339999972843,9.600424999953248,10.237519999966025,10.993709999951534,11.598494999925606,12.276374999899417,12.92066999990493]",space,0.510685,0.0,20.0,20.0,0.0,1.0,,,
,,,,,,,,,,,block_2/weak_t_92_3.wav,timbre,t,weak,92.0,1.995389518,17.35720358,,,yes,,30,no,f,53,R,yes,1,2020-08-08_23h32.56.541,kura-A2,2020.1.2,Linux x86_64,60,,,,,,,,,,,,,,"[""space"",""space"",""space"",""space"",""space"",""space"",""space"",""space"",""space"",""space"",""space"",""space"",""space"",""space"",""space"",""space"",""space"",""space"",""space"",""space""]","[0.2442149999551475,0.7928149999352172,1.709184999926947,2.60981999989599,3.310814999975264,4.011469999910332,4.794614999904297,5.708934999885969,6.441514999954961,7.341724999947473,8.035759999998845,8.78800499998033,9.54007999994792,10.280424999888055,11.15964999992866,11.834004999953322,12.614474999951199,13.451404999941587,14.23370999994222,14.940724999993108]",space,0.4192,0.0,21.0,21.0,38.0,1.0,,,
,,,,,,,,,,,block_2/medium_t_72_4.wav,timbre,t,medium,72.0,1.912133969,19.94959429,,,yes,,30,no,f,53,R,yes,1,2020-08-08_23h32.56.541,kura-A2,2020.1.2,Linux x86_64,60,,,,,,,,,,,,,,"[""space"",""space"",""space"",""space"",""space"",""space"",""space"",""space"",""space"",""space"",""space"",""space"",""space"",""space"",""space"",""space"",""space"",""space"",""space"",""space""]","[0.31317500001750886,1.4280900000594556,2.4327200000407174,3.333409999962896,4.228209999972023,4.981860000058077,5.938609999953769,6.8385850000195205,7.78738999995403,8.639489999972284,9.573880000039935,10.458875000011176,11.327904999954626,12.249350000056438,13.150170000037178,14.051510000019334,14.974919999949634,15.875619999947958,16.71207000000868,17.628604999976233]",space,0.37096,0.0,22.0,22.0,36.0,1.0,,,
,,,,,,,,,,,block_2/strong_t_72_3.wav,timbre,t,strong,72.0,1.757165856,18.23458082,,,yes,,30,no,f,53,R,yes,1,2020-08-08_23h32.56.541,kura-A2,2020.1.2,Linux x86_64,60,,,,,,,,,,,,,,"[""space"",""space"",""space"",""space"",""space"",""space"",""space"",""space"",""space"",""space"",""space"",""space"",""space"",""space"",""space"",""space"",""space"",""space"",""space"",""space"",""space""]","[0.27445499994792044,1.0865650000050664,1.8220349999610335,2.6739550000056624,3.5005249999230728,4.32227000000421,5.190394999925047,6.059184999903664,6.864169999957085,7.7399149999255314,8.522164999973029,9.408164999913424,10.209975000005215,11.095079999999143,11.96366999996826,12.767949999892153,13.597314999904484,14.449824999901466,15.278284999891184,16.15763499995228,17.02664499997627]",space,0.343295,0.0,23.0,23.0,5.0,1.0,,,
,,,,,,,,,,,block_2/medium_t_81_3.wav,timbre,t,medium,81.0,1.280563259,13.87394194,,,yes,,30,no,f,53,R,yes,1,2020-08-08_23h32.56.541,kura-A2,2020.1.2,Linux x86_64,60,,,,,,,,,,,,,,"[""space"",""space"",""space"",""space"",""space"",""space"",""space"",""space"",""space"",""space"",""space"",""space"",""space"",""space"",""space"",""space"",""space"",""space"",""space""]","[0.2690599999623373,1.2539249999681488,2.014104999951087,2.6588999999221414,3.3113599999342114,4.012114999932237,4.649679999914952,5.313839999958873,5.939324999926612,6.6340499999932945,7.285574999987148,7.946475000004284,8.55155500001274,9.173589999903925,9.769869999960065,10.414019999909215,11.095729999942705,11.74699499993585,12.357499999925494]",space,0.73953,0.0,24.0,24.0,8.0,1.0,,,
,,,,,,,,,,,block_2/none_t_81_3.wav,timbre,t,none,81.0,2.3234515,21.58667145,,,yes,,30,no,f,53,R,yes,1,2020-08-08_23h32.56.541,kura-A2,2020.1.2,Linux x86_64,60,,,,,,,,,,,,,,"[""space"",""space"",""space"",""space"",""space"",""space"",""space"",""space"",""space"",""space"",""space"",""space"",""space"",""space"",""space"",""space"",""space"",""space"",""space"",""space"",""space"",""space"",""space"",""space"",""space"",""space"",""space"",""space"",""space"",""space"",""space"",""space"",""space"",""space""]","[0.25848499999847263,1.446750000002794,2.3234850000590086,3.0480850000167266,3.6292900000698864,4.306395000079647,4.84051000000909,5.598800000036135,6.116125000058673,6.726185000035912,7.285965000046417,7.8034600000828505,8.277405000058934,8.842825000057928,9.359810000052676,9.845120000070892,10.314020000048913,10.77764000010211,11.236759999999776,11.874285000027157,12.465195000055246,12.966914999997243,13.425395000027493,13.879340000101365,14.380395000101998,14.87359000009019,15.429820000077598,15.963120000087656,16.491690000053495,17.11052000010386,17.628550000023097,18.151190000004135,18.78872000006959,19.349240000010468]",space,0.38561,0.0,25.0,25.0,10.0,1.0,,,
,,,,,,,,,,,block_2/strong_t_119_3.wav,timbre,t,strong,119.0,2.177542179,13.00520658,,,yes,,30,no,f,53,R,yes,1,2020-08-08_23h32.56.541,kura-A2,2020.1.2,Linux x86_64,60,,,,,,,,,,,,,,"[""space"",""space"",""space"",""space"",""space"",""space"",""space"",""space"",""space"",""space"",""space"",""space"",""space"",""space"",""space"",""space"",""space"",""space"",""space"",""space""]","[0.35716000001411885,1.1384450000477955,1.6231550000375137,2.1726650000782683,2.713120000087656,3.2867150000529364,3.8512750000227243,4.394874999998137,4.966035000048578,5.523140000062995,6.0717700000386685,6.6046949999872595,7.200550000066869,7.758800000068732,8.276249999995343,8.865375000052154,9.441095000016503,9.979340000078082,10.53687000006903,11.078429999994114]",space,0.426345,0.0,26.0,26.0,28.0,1.0,,,
,,,,,,,,,,,block_2/none_t_105_3.wav,timbre,t,none,105.0,1.906849656,15.72757528,,,yes,,30,no,f,53,R,yes,1,2020-08-08_23h32.56.541,kura-A2,2020.1.2,Linux x86_64,60,,,,,,,,,,,,,,"[""space"",""space"",""space"",""space"",""space"",""space"",""space"",""space"",""space"",""space"",""space"",""space"",""space"",""space""]","[0.2348950000014156,1.0761300000594929,2.0562250000657514,3.1917350000003353,4.401570000103675,5.31007500004489,6.361695000086911,7.369320000056177,8.29093500005547,9.310980000067502,10.309680000063963,11.27944000007119,12.172335000010207,13.145535000017844]",space,0.39237,0.0,27.0,27.0,14.0,1.0,,,
,,,,,,,,,,,block_2/none_t_92_3.wav,timbre,t,none,92.0,1.328085357,13.39815338,,,yes,,30,no,f,53,R,yes,1,2020-08-08_23h32.56.541,kura-A2,2020.1.2,Linux x86_64,60,,,,,,,,,,,,,,"[""space"",""space"",""space"",""space"",""space"",""space"",""space"",""space"",""space"",""space"",""space"",""space"",""space"",""space"",""space"",""space"",""space"",""space"",""space"",""space"",""space""]","[0.29012999997939914,0.9699249999830499,1.7319350000470877,2.3768599999602884,3.2255300000542775,3.897950000013225,4.6390149999642745,5.276614999980666,5.748595000011846,6.286425000056624,6.87546500004828,7.472784999990836,7.99792500003241,8.5625,9.039970000041649,9.541225000051782,10.026584999985062,10.49551000003703,10.948549999971874,11.50641499995254,11.943399999989197]",space,0.3873,0.0,28.0,28.0,17.0,1.0,,,
,,,,,,,,,,,block_2/weak_t_92_4.wav,timbre,t,weak,92.0,2.338363624,13.8208126,,,yes,,30,no,f,53,R,yes,1,2020-08-08_23h32.56.541,kura-A2,2020.1.2,Linux x86_64,60,,,,,,,,,,,,,,"[""space"",""space"",""space"",""space"",""space"",""space"",""space"",""space"",""space"",""space"",""space"",""space"",""space"",""space"",""space"",""space"",""space"",""space"",""space"",""space"",""space""]","[0.25696499994955957,0.7412499999627471,1.3462999999755993,1.8471499999286607,2.4235099999932572,3.0254900000290945,3.614714999916032,4.172129999962635,4.762920000008307,5.325779999955557,5.915619999985211,6.536019999999553,7.101550000021234,7.7053999999770895,8.310704999952577,8.875894999946468,9.441344999941066,10.030054999981076,10.586859999923036,11.178349999943748,11.764864999917336]",space,0.64583,0.0,29.0,29.0,29.0,1.0,,,
,,,,,,,,,,,block_2/weak_t_119_4.wav,timbre,t,weak,119.0,2.497661912,13.1066415,,,yes,,30,no,f,53,R,yes,1,2020-08-08_23h32.56.541,kura-A2,2020.1.2,Linux x86_64,60,,,,,,,,,,,,,,"[""space"",""space"",""space"",""space"",""space"",""space"",""space"",""space"",""space"",""space"",""space"",""space"",""space"",""space"",""space"",""space"",""space"",""space"",""space"",""space""]","[0.2581749999662861,0.8705899999476969,1.6840149998897687,2.2957349999342114,2.949389999965206,3.3864849999081343,3.7839099999982864,4.244974999921396,4.738019999931566,5.318954999907874,5.861684999894351,6.50477499992121,7.001554999966174,7.52320499997586,8.024559999932535,8.542294999933802,9.059289999888279,9.536599999992177,10.008834999985993,10.44329999992624]",space,0.60293,0.0,30.0,30.0,11.0,1.0,,,
,,,,,,,,,,,block_2/weak_t_105_3.wav,timbre,t,weak,105.0,1.911505731,13.14248079,,,yes,,30,no,f,53,R,yes,1,2020-08-08_23h32.56.541,kura-A2,2020.1.2,Linux x86_64,60,,,,,,,,,,,,,,"[""space"",""space"",""space"",""space"",""space"",""space"",""space"",""space"",""space"",""space"",""space"",""space"",""space"",""space"",""space"",""space"",""space"",""space"",""space""]","[0.2471799999475479,1.2272899999516085,1.8336300000082701,2.381779999937862,3.1415899998974055,3.7677350000012666,4.261244999943301,4.829395000007935,5.33035999990534,5.8838449999457225,6.40047999995295,7.030254999990575,7.669274999992922,8.247404999914579,8.788925000000745,9.357004999998026,9.891209999914281,10.476799999945797,11.089659999939613]",space,0.33551,0.0,31.0,31.0,4.0,1.0,,,
,,,,,,,,,,,block_2/strong_t_81_3.wav,timbre,t,strong,81.0,1.276002308,16.49137646,,,yes,,30,no,f,53,R,yes,1,2020-08-08_23h32.56.541,kura-A2,2020.1.2,Linux x86_64,60,,,,,,,,,,,,,,"[""space"",""space"",""space"",""space"",""space"",""space"",""space"",""space"",""space"",""space"",""space"",""space"",""space"",""space"",""space"",""space"",""space"",""space"",""space"",""space"",""space""]","[0.4024400000926107,1.0902450000867248,1.8071100000524893,2.540625000023283,3.2924300000304356,4.061010000063106,4.842645000084303,5.631085000000894,6.3872299999929965,7.175945000024512,7.981070000096224,8.730285000056028,9.445965000079013,10.219344999990426,11.011110000079498,11.796735000098124,12.577795000048354,13.3340549999848,14.122220000019297,14.887430000002496,15.656520000076853]",space,0.369355,0.0,32.0,32.0,24.0,1.0,,,
,,,,,,,,,,,block_2/strong_t_105_4.wav,timbre,t,strong,105.0,1.910106179,12.02788396,,,yes,,30,no,f,53,R,yes,1,2020-08-08_23h32.56.541,kura-A2,2020.1.2,Linux x86_64,60,,,,,,,,,,,,,,"[""space"",""space"",""space"",""space"",""space"",""space"",""space"",""space"",""space"",""space"",""space"",""space"",""space"",""space"",""space"",""space"",""space"",""space"",""space"",""space"",""space""]","[0.454714999999851,1.0200349999358878,1.4253500000340864,1.8558549999725074,2.316329999943264,2.8650399999460205,3.359500000020489,3.866909999982454,4.378554999944754,4.8856549999909475,5.364449999993667,5.848519999999553,6.3571950000477955,6.884859999991022,7.391195000032894,7.876444999943487,8.377319999970496,8.872764999978244,9.407609999994747,9.865125000011176,10.39777999999933]",space,0.335615,0.0,33.0,33.0,18.0,1.0,,,
,,,,,,,,,,,block_2/medium_t_105_3.wav,timbre,t,medium,105.0,1.319167427,12.09599282,,,yes,,30,no,f,53,R,yes,1,2020-08-08_23h32.56.541,kura-A2,2020.1.2,Linux x86_64,60,,,,,,,,,,,,,,"[""space"",""space"",""space"",""space"",""space"",""space"",""space"",""space"",""space"",""space"",""space"",""space"",""space"",""space"",""space"",""space"",""space"",""space"",""space"",""space""]","[0.2808150000637397,0.8704000000143424,1.3305699999909848,1.807645000051707,2.3489850000478327,2.8418900000397116,3.442909999983385,3.976130000082776,4.474060000036843,5.0540449999971315,5.581620000069961,6.1524549999739975,6.693794999970123,7.258800000068732,7.839630000060424,8.349344999995083,8.883144999970682,9.430845000082627,10.0278849999886,10.569125000038184]",space,0.381065,0.0,34.0,34.0,16.0,1.0,,,
,,,,,,,,,,,block_2/weak_t_81_3.wav,timbre,t,weak,81.0,1.745235196,18.01484971,,,yes,,30,no,f,53,R,yes,1,2020-08-08_23h32.56.541,kura-A2,2020.1.2,Linux x86_64,60,,,,,,,,,,,,,,"[""space"",""space"",""space"",""space"",""space"",""space"",""space"",""space"",""space"",""space"",""space"",""space"",""space"",""space"",""space"",""space"",""space"",""space"",""space"",""space""]","[0.26841500005684793,1.420905000064522,2.2608499999623746,3.0499800000106916,3.8943900000303984,4.747405000030994,5.623890000046231,6.356095000053756,7.145190000068396,7.909854999976233,8.745929999975488,9.590504999971017,10.387875000014901,11.167920000036247,11.948919999995269,12.665314999991097,13.40610000002198,14.251805000007153,15.072150000021793,15.9169750000583]",space,0.308235,0.0,35.0,35.0,6.0,1.0,,,
,,,,,,,,,,,block_2/medium_t_72_3.wav,timbre,t,medium,72.0,1.064285065,17.84451182,,,yes,,30,no,f,53,R,yes,1,2020-08-08_23h32.56.541,kura-A2,2020.1.2,Linux x86_64,60,,,,,,,,,,,,,,"[""space"",""space"",""space"",""space"",""space"",""space"",""space"",""space"",""space"",""space"",""space"",""space"",""space"",""space"",""space"",""space"",""space"",""space"",""space"",""space""]","[0.24409499997273088,1.0097450000466779,1.814269999973476,2.579009999986738,3.4422600000398234,4.2358750000130385,5.1635150000220165,6.037980000022799,6.841690000030212,7.757800000021234,8.654770000022836,9.507710000034422,10.363825000007637,11.20023499999661,12.020955000072718,12.857560000033118,13.758254999993369,14.653270000009798,15.527270000078715,16.424230000004172]",space,0.67547,0.0,36.0,36.0,31.0,1.0,,,
,,,,,,,,,,,block_2/weak_t_119_3.wav,timbre,t,weak,119.0,2.134308914,11.54587354,,,yes,,30,no,f,53,R,yes,1,2020-08-08_23h32.56.541,kura-A2,2020.1.2,Linux x86_64,60,,,,,,,,,,,,,,"[""space"",""space"",""space"",""space"",""space"",""space"",""space"",""space"",""space"",""space"",""space"",""space"",""space"",""space"",""space"",""space"",""space"",""space"",""space"",""space"",""space"",""space""]","[0.25411500001791865,0.9783749999478459,1.4396499999566004,1.9966499999864027,2.4504200000083074,2.824254999984987,3.2284249999793246,3.6436349999858066,4.015524999937043,4.428744999924675,4.79680000001099,5.263574999989942,5.676710000028834,6.106709999963641,6.519594999961555,6.908739999984391,7.268359999987297,7.663679999997839,8.087880000006407,8.622024999931455,9.110675000003539,9.548025000025518]",space,0.29362,0.0,37.0,37.0,13.0,1.0,,,
,,,,,,,,,,,block_2/strong_t_119_4.wav,timbre,t,strong,119.0,1.529717424,11.39760858,,,yes,,30,no,f,53,R,yes,1,2020-08-08_23h32.56.541,kura-A2,2020.1.2,Linux x86_64,60,,,,,,,,,,,,,,"[""space"",""space"",""space"",""space"",""space"",""space"",""space"",""space"",""space"",""space"",""space"",""space"",""space"",""space"",""space"",""space"",""space"",""space"",""space"",""space"",""space""]","[0.21829999994952232,0.7359799999976531,1.1248399999458343,1.5713149999501184,2.023414999945089,2.564594999887049,3.0343999998876825,3.5509349999483675,4.051669999957085,4.544929999974556,5.054399999906309,5.5556099999230355,6.099464999977499,6.616669999901205,7.1180249999742955,7.602714999928139,8.120934999897145,8.610099999932572,9.106424999888986,9.580714999930933,10.08198999997694]",space,0.442945,0.0,38.0,38.0,39.0,1.0,,,
,,,,,,,,,,,block_2/none_t_72_3.wav,timbre,t,none,72.0,1.763210745,21.95785927,,,yes,,30,no,f,53,R,yes,1,2020-08-08_23h32.56.541,kura-A2,2020.1.2,Linux x86_64,60,,,,,,,,,,,,,,"[""space"",""space"",""space"",""space"",""space"",""space"",""space"",""space"",""space"",""space"",""space"",""space"",""space"",""space"",""space"",""space"",""space"",""space""]","[0.2182899999897927,1.2703650000039488,2.200055000022985,3.3258350000251085,4.327930000028573,5.42042500001844,6.473310000030324,7.573050000006333,8.81711499998346,9.845055000041611,11.153464999981225,12.165365000022575,13.283159999991767,14.3572250000434,15.722489999956451,16.81339999998454,17.9136100000469,19.448224999941885]",space,0.357895,0.0,39.0,39.0,19.0,1.0,,,
,,,,,,,,,,,,,,,,,,,,yes,,30,no,f,53,R,yes,1,2020-08-08_23h32.56.541,kura-A2,2020.1.2,Linux x86_64,60,,,,,,,,,,,,,,,,,,,,,,,space,5.948295,
