key_resp.keys,key_resp.rt,practice_taps.keys,practice_taps.rt,keyresp.keys,keyresp.rt,practice_stims_loop.thisRepN,practice_stims_loop.thisTrialN,practice_stims_loop.thisN,practice_stims_loop.thisIndex,practice_stims_loop.ran,sndfile,type,tempo,cond,version,delay,dur,Participant Initials,"If you are a MTurk worker, what is your MTurk worker ID?","If you are not an MTurk worker, please provide your email address",Are you wearing headphones?,What are the headphone make and model?,"How many years of musical training, if any, do you have?",Do you have any hearing problems? Please describe,What is your sex (f/m/decline)?,What is your age?,What is your handedness (R/L/ambi)?,Are you currently in a secure and quiet room without a possible interruption?,session,date,expName,psychopyVersion,OS,frameRate,instructions_prompt.keys,instructions_prompt.rt,block1_taps.keys,block1_taps.rt,key_resp_2.keys,key_resp_2.rt,trials.thisRepN,trials.thisTrialN,trials.thisN,trials.thisIndex,trials.ran,key_resp2.keys,key_resp2.rt,block2_taps.keys,block2_taps.rt,key_resp_3.keys,key_resp_3.rt,trials_2.thisRepN,trials_2.thisTrialN,trials_2.thisN,trials_2.thisIndex,trials_2.ran,key_resp_4.keys,key_resp_4.rt
space,11.140215,"[""space"",""space"",""space"",""space"",""space"",""space"",""space"",""space"",""space"",""space"",""space"",""space"",""space"",""space"",""space"",""space"",""space"",""space"",""space"",""space""]","[0.9462950000306591,1.8065200001001358,2.611530000111088,3.2746350000379607,4.020975000108592,4.785560000105761,5.546875,6.338820000062697,7.084040000103414,7.820655000046827,8.609170000068843,9.349980000057258,10.066580000100657,10.826155000017025,11.57990500004962,12.346695000072941,13.085805000038818,13.883420000085607,14.602255000034347,15.372065000003204]",space,0.789915,0.0,0.0,0.0,1.0,1.0,block_2/strong_n_81_1.wav,no,n,strong,81.0,1.854905178,16.81653783,,,,yes,apple airpods,30,no,f,53,R,yes,1,2020-08-09_00h01.21.424,kura-B1,2020.1.2,Linux x86_64,60,,,,,,,,,,,,,,,,,,,,,,,,
,,"[""space"",""space"",""space"",""space"",""space"",""space"",""space"",""space"",""space"",""space"",""space"",""space"",""space"",""space"",""space"",""space"",""space"",""space"",""space"",""space""]","[0.45256000000517815,1.1039350000210106,1.6052850000560284,2.3120750000234693,3.086070000077598,3.754340000101365,4.479105000034906,5.230305000091903,5.872665000031702,6.477225000038743,7.106080000055954,7.815640000044368,8.53150500007905,9.144375000032596,9.749485000036657,10.434280000044964,11.071690000011586,11.756105000036769,12.384970000013709,13.085670000058599]",space,0.62681,0.0,1.0,1.0,2.0,1.0,block_1/weak_t_92_1.wav,timbre,t,weak,92.0,2.207238706,15.60342918,,,,yes,apple airpods,30,no,f,53,R,yes,1,2020-08-09_00h01.21.424,kura-B1,2020.1.2,Linux x86_64,60,,,,,,,,,,,,,,,,,,,,,,,,
,,"[""space"",""space"",""space"",""space"",""space"",""space"",""space"",""space"",""space"",""space"",""space"",""space"",""space"",""space"",""space"",""space"",""space"",""space"",""space"",""space""]","[0.2455799999879673,0.7707149999914691,1.9502649999922141,3.0825999999651685,4.095259999972768,5.029289999976754,6.118964999914169,6.97144999995362,8.063854999956675,9.16376499994658,10.144559999927878,11.204844999941997,12.232884999946691,13.245774999959394,14.268614999949932,15.35726999992039,16.441600000020117,17.41389500000514,18.445309999980964,19.515179999987595]",space,0.447535,0.0,2.0,2.0,3.0,1.0,block_2/weak_n_72_2.wav,no,n,weak,72.0,1.63372301,21.59472074,,,,yes,apple airpods,30,no,f,53,R,yes,1,2020-08-09_00h01.21.424,kura-B1,2020.1.2,Linux x86_64,60,,,,,,,,,,,,,,,,,,,,,,,,
,,"[""space"",""space"",""space"",""space"",""space"",""space"",""space"",""space"",""space"",""space"",""space"",""space"",""space"",""space"",""space"",""space"",""space"",""space"",""space"",""space""]","[0.2612049999879673,0.9864749999251217,1.6552849999861792,2.3159250000026077,3.0003399999113753,3.5935249999165535,4.210949999978766,4.895809999899939,5.588819999946281,6.241624999907799,6.9426549999043345,7.610119999968447,8.271450000000186,8.955979999969713,9.641044999938458,10.278184999944642,10.867069999920204,11.496409999905154,12.096519999904558,12.898429999942891]",space,0.636635,0.0,3.0,3.0,0.0,1.0,block_1/medium_t_92_2.wav,timbre,t,medium,92.0,1.17246814,14.21682188,,,,yes,apple airpods,30,no,f,53,R,yes,1,2020-08-09_00h01.21.424,kura-B1,2020.1.2,Linux x86_64,60,,,,,,,,,,,,,,,,,,,,,,,,
,,,,,,,,,,,block_1/none_t_92_1.wav,timbre,t,none,92.0,2.134114385,14.96545225,,,,yes,apple airpods,30,no,f,53,R,yes,1,2020-08-09_00h01.21.424,kura-B1,2020.1.2,Linux x86_64,60,space,5.92704,"[""space"",""space"",""space"",""space"",""space"",""space"",""space"",""space"",""space"",""space"",""space"",""space"",""space"",""space"",""space"",""space"",""space"",""space"",""space"",""space"",""space"",""space""]","[0.25552999996580184,0.8529550000093877,1.560414999956265,2.2776099999900907,2.9940450000576675,3.5758099999511614,4.116009999997914,4.681620000046678,5.263069999986328,5.835195000050589,6.384444999974221,6.968130000052042,7.506395000033081,8.04735000000801,8.612364999949932,9.189159999950789,9.711290000006557,10.26066000002902,10.880795000004582,11.501445000059903,12.11404500005301,12.655759999994189]",space,0.62174,0.0,0.0,0.0,15.0,1.0,,,,,,,,,,,,,
,,,,,,,,,,,block_1/weak_t_72_1.wav,timbre,t,weak,72.0,1.20875322,18.28390061,,,,yes,apple airpods,30,no,f,53,R,yes,1,2020-08-09_00h01.21.424,kura-B1,2020.1.2,Linux x86_64,60,,,"[""space"",""space"",""space"",""space"",""space"",""space"",""space"",""space"",""space"",""space"",""space"",""space"",""space"",""space"",""space"",""space"",""space"",""space"",""space"",""space"",""space"",""space""]","[0.25355500006116927,0.8578900001011789,1.4232550000306219,2.1640250000637025,2.94084500009194,3.7261799999978393,4.661790000041947,5.697610000032,6.483059999998659,7.191365000093356,8.04389000008814,8.992285000043921,9.824825000017881,10.66553500003647,11.549390000058338,12.49827500001993,13.335085000027902,14.084495000075549,14.84043500002008,15.588930000085384,16.40948000003118,17.47801000007894]",space,0.644225,0.0,1.0,1.0,29.0,1.0,,,,,,,,,,,,,
,,,,,,,,,,,block_1/weak_t_105_2.wav,timbre,t,weak,105.0,2.298632362,16.24153486,,,,yes,apple airpods,30,no,f,53,R,yes,1,2020-08-09_00h01.21.424,kura-B1,2020.1.2,Linux x86_64,60,,,"[""space"",""space"",""space"",""space"",""space"",""space"",""space"",""space"",""space"",""space"",""space"",""space"",""space"",""space"",""space"",""space"",""space"",""space"",""space"",""space""]","[0.34476500004529953,0.9196399999782443,1.6743400000268593,2.4946700000436977,3.1962400000775233,3.8960400000214577,4.628960000001825,5.337865000008605,6.23238499998115,6.979255000012927,7.769715000060387,8.412400000030175,9.105770000023767,9.791090000071563,10.459430000046268,11.168185000075027,11.836925000068732,12.505405000061728,13.111220000078902,13.740515000070445]",space,0.29419,0.0,2.0,2.0,2.0,1.0,,,,,,,,,,,,,
,,,,,,,,,,,block_1/weak_t_81_1.wav,timbre,t,weak,81.0,1.734429931,16.79973605,,,,yes,apple airpods,30,no,f,53,R,yes,1,2020-08-09_00h01.21.424,kura-B1,2020.1.2,Linux x86_64,60,,,"[""space"",""space"",""space"",""space"",""space"",""space"",""space"",""space"",""space"",""space"",""space"",""space"",""space"",""space"",""space"",""space"",""space"",""space"",""space"",""space""]","[0.22664499992970377,0.94344999990426,1.82215499994345,2.497029999969527,3.1094849999062717,3.786559999920428,4.62309499992989,5.431144999922253,6.282949999906123,7.0847699999576434,7.857709999894723,8.538194999913685,9.363194999983534,10.143354999949224,10.828024999937043,11.552849999978207,12.421524999896064,13.266839999938384,14.063779999967664,14.859994999947958]",space,0.311435,0.0,3.0,3.0,8.0,1.0,,,,,,,,,,,,,
,,,,,,,,,,,block_1/weak_t_119_2.wav,timbre,t,weak,119.0,1.131621257,11.40046479,,,,yes,apple airpods,30,no,f,53,R,yes,1,2020-08-09_00h01.21.424,kura-B1,2020.1.2,Linux x86_64,60,,,"[""space"",""space"",""space"",""space"",""space"",""space"",""space"",""space"",""space"",""space"",""space"",""space"",""space"",""space"",""space"",""space"",""space"",""space"",""space"",""space""]","[0.269704999984242,0.9218099999707192,1.55871000001207,2.038979999953881,2.561009999946691,3.0619299999671057,3.61125999991782,4.184279999928549,4.654029999976046,5.099054999998771,5.547399999923073,6.052784999948926,6.562829999951646,7.0519449999555945,7.540440000011586,8.057440000004135,8.567444999935105,9.092539999983273,9.67423499992583,10.214090000023134]",space,0.375785,0.0,4.0,4.0,13.0,1.0,,,,,,,,,,,,,
,,,,,,,,,,,block_1/weak_t_119_1.wav,timbre,t,weak,119.0,1.96015814,12.2695459,,,,yes,apple airpods,30,no,f,53,R,yes,1,2020-08-09_00h01.21.424,kura-B1,2020.1.2,Linux x86_64,60,,,"[""space"",""space"",""space"",""space"",""space"",""space"",""space"",""space"",""space"",""space"",""space"",""space"",""space"",""space"",""space"",""space"",""space"",""space"",""space"",""space"",""space"",""space"",""space""]","[0.22994499991182238,1.06945499998983,1.5912299999035895,2.028745000017807,2.6576849999837577,3.1032049999339506,3.5000099999597296,3.9219399999128655,4.334619999979623,4.747585000004619,5.137615000014193,5.583140000002459,6.031699999934062,6.520989999989979,6.917749999905936,7.345904999994673,7.777124999905936,8.198749999981374,8.579029999906197,8.992774999933317,9.430010000010952,9.835755000007339,10.312249999959022]",space,0.29197,0.0,5.0,5.0,12.0,1.0,,,,,,,,,,,,,
,,,,,,,,,,,block_1/medium_t_81_1.wav,timbre,t,medium,81.0,2.382699777,16.54165669,,,,yes,apple airpods,30,no,f,53,R,yes,1,2020-08-09_00h01.21.424,kura-B1,2020.1.2,Linux x86_64,60,,,"[""space"",""space"",""space"",""space"",""space"",""space"",""space"",""space"",""space"",""space"",""space"",""space"",""space"",""space"",""space"",""space"",""space"",""space"",""space""]","[0.23563499993178993,1.28828999993857,2.0221550000132993,2.7859499999321997,3.4945049999514595,4.227790000033565,4.962734999950044,5.700684999930672,6.4664349999511614,7.206434999941848,7.947129999985918,8.679564999998547,9.444034999934956,10.153500000014901,10.943314999924041,11.645595000009052,12.383039999986067,13.140724999946542,13.867725000018254]",space,0.318545,0.0,6.0,6.0,4.0,1.0,,,,,,,,,,,,,
,,,,,,,,,,,block_1/strong_t_72_1.wav,timbre,t,strong,72.0,2.410899129,18.9853209,,,,yes,apple airpods,30,no,f,53,R,yes,1,2020-08-09_00h01.21.424,kura-B1,2020.1.2,Linux x86_64,60,,,"[""space"",""space"",""space"",""space"",""space"",""space"",""space"",""space"",""space"",""space"",""space"",""space"",""space"",""space"",""space"",""space"",""space"",""space"",""space"",""space"",""space""]","[0.6983849999960512,1.3206500000087544,2.1479600000893697,2.969065000070259,3.8053450000006706,4.617105000070296,5.477539999992587,6.32227000000421,7.142495000036433,7.948475000099279,8.72808500006795,9.5571850000415,10.448990000062622,11.277824999997392,12.098105000099167,12.887170000001788,13.700285000028089,14.544235000037588,15.38084500003606,16.20931000006385,17.054460000013933]",space,0.49335,0.0,7.0,7.0,9.0,1.0,,,,,,,,,,,,,
,,,,,,,,,,,block_1/strong_t_81_1.wav,timbre,t,strong,81.0,1.303718429,15.55909258,,,,yes,apple airpods,30,no,f,53,R,yes,1,2020-08-09_00h01.21.424,kura-B1,2020.1.2,Linux x86_64,60,,,"[""space"",""space"",""space"",""space"",""space"",""space"",""space"",""space"",""space"",""space"",""space"",""space"",""space"",""space"",""space"",""space"",""space"",""space"",""space"",""space"",""space""]","[0.5066100000403821,0.9916799999773502,1.7649599999422207,2.4738150000339374,3.2305349999805912,3.9467449999647215,4.623729999992065,5.380694999941625,6.082219999982044,6.801424999954179,7.522544999956153,8.231445000041276,8.964674999937415,9.68116000003647,10.39750500000082,11.130299999960698,11.815429999958724,12.516354999970645,13.241704999934882,13.989345000009052,14.690270000020973]",space,0.860645,0.0,8.0,8.0,30.0,1.0,,,,,,,,,,,,,
,,,,,,,,,,,block_1/strong_t_105_2.wav,timbre,t,strong,105.0,1.268100708,12.09472202,,,,yes,apple airpods,30,no,f,53,R,yes,1,2020-08-09_00h01.21.424,kura-B1,2020.1.2,Linux x86_64,60,,,"[""space"",""space"",""space"",""space"",""space"",""space"",""space"",""space"",""space"",""space"",""space"",""space"",""space"",""space"",""space"",""space"",""space"",""space"",""space"",""space"",""space""]","[0.27726000000257045,0.7545249999966472,1.1917549999197945,1.7086349999299273,2.2660499999765307,2.824309999938123,3.3880600000265986,3.9368300000205636,4.486024999991059,5.035105000017211,5.585149999940768,6.109624999924563,6.633999999961816,7.218254999956116,7.796149999951012,8.345325000002049,8.905924999970011,9.435704999952577,10.016364999930374,10.576264999923296,11.114714999916032]",space,0.663345,0.0,9.0,9.0,22.0,1.0,,,,,,,,,,,,,
,,,,,,,,,,,block_1/weak_t_81_2.wav,timbre,t,weak,81.0,1.961200407,15.36428431,,,,yes,apple airpods,30,no,f,53,R,yes,1,2020-08-09_00h01.21.424,kura-B1,2020.1.2,Linux x86_64,60,,,"[""space"",""space"",""space"",""space"",""space"",""space"",""space"",""space"",""space"",""space"",""space"",""space"",""space"",""space"",""space"",""space"",""space"",""space"",""space"",""space""]","[0.2514499999815598,0.8459400000283495,1.3234950000187382,1.888344999984838,2.6124200000194833,3.2421699999831617,3.943790000048466,4.667394999996759,5.407684999983758,6.204359999974258,7.072760000010021,7.719354999950156,8.404029999976046,9.095809999969788,9.757914999965578,10.417035000049509,11.110929999966174,11.787325000041164,12.455960000050254,13.149469999945723]",space,0.58866,0.0,10.0,10.0,5.0,1.0,,,,,,,,,,,,,
,,,,,,,,,,,block_1/none_t_81_2.wav,timbre,t,none,81.0,1.650015351,20.40348474,,,,yes,apple airpods,30,no,f,53,R,yes,1,2020-08-09_00h01.21.424,kura-B1,2020.1.2,Linux x86_64,60,,,"[""space"",""space"",""space"",""space"",""space"",""space"",""space"",""space"",""space"",""space"",""space"",""space"",""space"",""space"",""space"",""space"",""space"",""space"",""space"",""space"",""space"",""space"",""space"",""space"",""space"",""space"",""space"",""space"",""space"",""space"",""space"",""space"",""space"",""space"",""space""]","[0.48744499997701496,1.0361249999841675,1.7292199999792501,2.182174999965355,2.6914200000464916,3.258784999954514,4.045249999966472,4.461864999961108,4.871225000009872,5.372680000029504,5.906285000033677,6.45484999998007,6.996784999966621,7.4358899999642745,8.006509999977425,8.547539999941364,9.048519999952987,9.533934999955818,10.035015000030398,10.567834999994375,11.16078999999445,11.681875000009313,12.222450000001118,12.797469999990426,13.345515000051819,13.838304999982938,14.411210000049323,15.008574999985285,15.493550000013784,16.082979999948293,16.575004999991506,17.04475999996066,17.5300349999452,18.06304999999702,18.547939999960363]",space,0.47158,0.0,11.0,11.0,10.0,1.0,,,,,,,,,,,,,
,,,,,,,,,,,block_1/weak_t_92_1.wav,timbre,t,weak,92.0,1.851617747,15.24780822,,,,yes,apple airpods,30,no,f,53,R,yes,1,2020-08-09_00h01.21.424,kura-B1,2020.1.2,Linux x86_64,60,,,"[""space"",""space"",""space"",""space"",""space"",""space"",""space"",""space"",""space"",""space"",""space"",""space"",""space"",""space"",""space"",""space"",""space"",""space"",""space"",""space""]","[0.3246349999681115,0.9863200000254437,1.8885400000726804,2.499775000032969,3.111295000067912,3.7641950000543147,4.537045000004582,5.269869999960065,5.883340000058524,6.488115000072867,7.125250000040978,7.825855000060983,8.540709999972023,9.227279999991879,9.776015000068583,10.461024999967776,11.123069999972358,11.782895000069402,12.451720000011846,13.082079999963753]",space,1.588265,0.0,12.0,12.0,33.0,1.0,,,,,,,,,,,,,
,,,,,,,,,,,block_1/none_t_119_2.wav,timbre,t,none,119.0,1.154672461,11.7267813,,,,yes,apple airpods,30,no,f,53,R,yes,1,2020-08-09_00h01.21.424,kura-B1,2020.1.2,Linux x86_64,60,,,"[""space"",""space"",""space"",""space"",""space"",""space"",""space"",""space"",""space"",""space"",""space"",""space"",""space"",""space"",""space"",""space"",""space"",""space"",""space"",""space""]","[0.26785500010009855,0.9361500000813976,1.6114950000774115,2.1289899999974295,2.7027100000996143,3.2431199999991804,3.8157500000670552,4.4959250000538304,4.954475000035018,5.415990000008605,5.924570000031963,6.457495000096969,7.03432000009343,7.526769999996759,8.02484500000719,8.541490000090562,9.130680000060238,9.723760000080802,10.269090000074357,10.8179100000998]",space,0.9417,0.0,13.0,13.0,35.0,1.0,,,,,,,,,,,,,
,,,,,,,,,,,block_1/none_t_105_1.wav,timbre,t,none,105.0,1.828771861,15.95090338,,,,yes,apple airpods,30,no,f,53,R,yes,1,2020-08-09_00h01.21.424,kura-B1,2020.1.2,Linux x86_64,60,,,"[""space"",""space"",""space"",""space"",""space"",""space"",""space"",""space"",""space"",""space"",""space"",""space"",""space"",""space"",""space"",""space"",""space"",""space"",""space"",""space"",""space"",""space"",""space"",""space""]","[0.26809999998658895,0.9110100000398234,1.4540950000518933,2.0276200000662357,2.7018000000389293,3.2502400000812486,3.8878950000507757,4.540645000059158,5.163215000065975,5.8218650000635535,6.382794999983162,7.001560000004247,7.68589000008069,8.282070000073873,8.863275000010617,9.45973000000231,10.091350000002421,10.776659999974072,11.35522500006482,11.9043000000529,12.46900500007905,12.966499999980442,13.483070000074804,13.98051000002306]",space,0.351555,0.0,14.0,14.0,17.0,1.0,,,,,,,,,,,,,
,,,,,,,,,,,block_1/medium_t_119_2.wav,timbre,t,medium,119.0,1.102065643,12.01802936,,,,yes,apple airpods,30,no,f,53,R,yes,1,2020-08-09_00h01.21.424,kura-B1,2020.1.2,Linux x86_64,60,,,"[""space"",""space"",""space"",""space"",""space"",""space"",""space"",""space"",""space"",""space"",""space"",""space"",""space"",""space"",""space"",""space"",""space"",""space"",""space"",""space""]","[0.32027000002563,0.798354999977164,1.203899999964051,1.640224999981001,2.476729999994859,3.0916100000031292,3.6714500000234693,4.188034999999218,4.753505000029691,5.365555000025779,5.9706249999580905,6.575745000038296,7.172655000002123,7.714679999975488,8.278865000000224,8.73996499995701,9.233529999968596,9.74269500002265,10.275795000023209,10.816435000044294]",space,0.528505,0.0,15.0,15.0,38.0,1.0,,,,,,,,,,,,,
,,,,,,,,,,,block_1/weak_t_72_2.wav,timbre,t,weak,72.0,1.186310873,16.45742198,,,,yes,apple airpods,30,no,f,53,R,yes,1,2020-08-09_00h01.21.424,kura-B1,2020.1.2,Linux x86_64,60,,,"[""space"",""space"",""space"",""space"",""space"",""space"",""space"",""space"",""space"",""space"",""space"",""space"",""space"",""space"",""space"",""space"",""space"",""space"",""space"",""space"",""space""]","[0.2346350000007078,0.8627149999374524,1.4043949999613687,2.0974749999586493,2.9915849999524653,3.8933299999916926,4.591535000014119,5.331140000023879,6.2085949999745935,6.956759999971837,7.761169999954291,8.55753500002902,9.314834999968298,10.111030000029132,10.867644999991171,11.649035000009462,12.421394999953918,13.185694999992847,14.018335000029765,14.795414999942295,15.607729999930598]",space,0.380995,0.0,16.0,16.0,25.0,1.0,,,,,,,,,,,,,
,,,,,,,,,,,block_1/medium_t_72_1.wav,timbre,t,medium,72.0,1.564818535,18.8498072,,,,yes,apple airpods,30,no,f,53,R,yes,1,2020-08-09_00h01.21.424,kura-B1,2020.1.2,Linux x86_64,60,,,"[""space"",""space"",""space"",""space"",""space"",""space"",""space"",""space"",""space"",""space"",""space"",""space"",""space"",""space"",""space"",""space"",""space"",""space"",""space"",""space""]","[0.24433499993756413,0.7932299999520183,1.7260199999436736,2.6510449999477714,3.5352549999952316,4.48273499996867,5.447124999947846,6.3082099999301136,7.176144999917597,8.060769999981858,8.93894999998156,9.797879999969155,10.714534999919124,11.595094999996945,12.547439999994822,13.449490000028163,14.340579999960028,15.192709999973886,16.07709999999497,16.929774999967776]",space,0.75885,0.0,17.0,17.0,24.0,1.0,,,,,,,,,,,,,
,,,,,,,,,,,block_1/weak_t_105_1.wav,timbre,t,weak,105.0,1.816913882,14.30793429,,,,yes,apple airpods,30,no,f,53,R,yes,1,2020-08-09_00h01.21.424,kura-B1,2020.1.2,Linux x86_64,60,,,"[""space"",""space"",""space"",""space"",""space"",""space"",""space"",""space"",""space"",""space"",""space"",""space"",""space"",""space"",""space"",""space"",""space"",""space"",""space"",""space""]","[0.3019599999533966,0.8404800000134856,1.4454299999633804,2.106335000018589,2.7515849999617785,3.359429999953136,4.03567499993369,4.654089999967255,5.299245000001974,5.919935000012629,6.540515000000596,7.145859999931417,7.790670000016689,8.437804999994114,9.112244999967515,9.733149999985471,10.402230000006966,10.982644999981858,11.596224999986589,12.24086499994155]",space,1.013495,0.0,18.0,18.0,0.0,1.0,,,,,,,,,,,,,
,,,,,,,,,,,block_1/weak_t_92_2.wav,timbre,t,weak,92.0,1.028761509,16.1946572,,,,yes,apple airpods,30,no,f,53,R,yes,1,2020-08-09_00h01.21.424,kura-B1,2020.1.2,Linux x86_64,60,,,"[""space"",""space"",""space"",""space"",""space"",""space"",""space"",""space"",""space"",""space"",""space"",""space"",""space"",""space"",""space"",""space"",""space"",""space"",""space"",""space""]","[0.2573199999751523,0.8626249999506399,1.3803550000302494,2.2919700000202283,3.052685000002384,3.8013150000479072,4.597689999965951,5.402559999958612,6.207315000006929,6.99546999996528,7.836525000049733,8.612869999953546,9.409544999944046,10.141904999967664,10.866849999991246,11.624289999948815,12.43082999996841,13.201319999992847,14.037194999982603,14.810270000016317]",space,0.953705,0.0,19.0,19.0,37.0,1.0,,,,,,,,,,,,,
,,,,,,,,,,,block_1/medium_t_81_2.wav,timbre,t,medium,81.0,1.849325936,17.01676358,,,,yes,apple airpods,30,no,f,53,R,yes,1,2020-08-09_00h01.21.424,kura-B1,2020.1.2,Linux x86_64,60,,,"[""space"",""space"",""space"",""space"",""space"",""space"",""space"",""space"",""space"",""space"",""space"",""space"",""space"",""space"",""space"",""space"",""space"",""space"",""space"",""space""]","[0.25835999997798353,0.7865249998867512,1.3038949999026954,2.1289049999322742,3.0133799999020994,3.77835999999661,4.528259999933653,5.355799999902956,6.115460000000894,6.901424999930896,7.705189999891445,8.4943899998907,9.290589999989606,10.063734999974258,10.852919999975711,11.641564999939874,12.46386999997776,13.250279999920167,14.051084999926388,14.90378499997314]",space,0.4616,0.0,20.0,20.0,7.0,1.0,,,,,,,,,,,,,
,,,,,,,,,,,block_1/medium_t_119_1.wav,timbre,t,medium,119.0,1.91338692,12.93819418,,,,yes,apple airpods,30,no,f,53,R,yes,1,2020-08-09_00h01.21.424,kura-B1,2020.1.2,Linux x86_64,60,,,"[""space"",""space"",""space"",""space"",""space"",""space"",""space"",""space"",""space"",""space"",""space"",""space"",""space"",""space"",""space"",""space"",""space"",""space"",""space"",""space""]","[0.24249500001315027,0.9271650000009686,1.5728949999902397,2.1292350000003353,2.678220000001602,3.195754999993369,3.776435000007041,4.365264999913052,4.906254999921657,5.47198999999091,6.031734999967739,6.5162149999523535,7.063414999982342,7.6037699999287724,8.153639999916777,8.678115000016987,9.22323999996297,9.744134999928065,10.300954999984242,10.810689999954775]",space,0.49872,0.0,21.0,21.0,34.0,1.0,,,,,,,,,,,,,
,,,,,,,,,,,block_1/strong_t_119_1.wav,timbre,t,strong,119.0,2.009888221,11.97709911,,,,yes,apple airpods,30,no,f,53,R,yes,1,2020-08-09_00h01.21.424,kura-B1,2020.1.2,Linux x86_64,60,,,"[""space"",""space"",""space"",""space"",""space"",""space"",""space"",""space"",""space"",""space"",""space"",""space"",""space"",""space"",""space"",""space"",""space"",""space"",""space"",""space"",""space""]","[0.3755200000014156,0.8858900000341237,1.29859000002034,1.7385150000918657,2.1966700000921264,2.7074150000698864,3.22499500005506,3.726075000013225,4.2170550000155345,4.70257500000298,5.230000000097789,5.747455000062473,6.24874000006821,6.716660000034608,7.2174800001084805,7.701890000025742,8.220085000037216,8.721160000073723,9.222660000086762,9.723720000009052,10.214785000076517]",space,0.43962,0.0,22.0,22.0,27.0,1.0,,,,,,,,,,,,,
,,,,,,,,,,,block_1/strong_t_105_1.wav,timbre,t,strong,105.0,1.984276879,14.42695262,,,,yes,apple airpods,30,no,f,53,R,yes,1,2020-08-09_00h01.21.424,kura-B1,2020.1.2,Linux x86_64,60,,,"[""space"",""space"",""space"",""space"",""space"",""space"",""space"",""space"",""space"",""space"",""space"",""space"",""space"",""space"",""space"",""space"",""space"",""space"",""space"",""space""]","[0.37801999994553626,1.2948800000594929,1.884044999955222,2.4806450000032783,3.126025000005029,3.7305750000523403,4.394725000020117,5.0522349999519065,5.6980299999704584,6.326570000033826,6.995160000049509,7.60820000001695,8.277549999998882,8.89841499994509,9.519319999963045,10.179604999953881,10.843935000011697,11.469614999950863,12.123415000038221,12.792265000054613]",space,0.30256,0.0,23.0,23.0,20.0,1.0,,,,,,,,,,,,,
,,,,,,,,,,,block_1/none_t_105_2.wav,timbre,t,none,105.0,1.938353853,15.01835385,,,,yes,apple airpods,30,no,f,53,R,yes,1,2020-08-09_00h01.21.424,kura-B1,2020.1.2,Linux x86_64,60,,,"[""space"",""space"",""space"",""space"",""space"",""space"",""space"",""space"",""space"",""space"",""space"",""space"",""space"",""space"",""space"",""space""]","[0.23423000006005168,0.9748299999628216,1.5475149999838322,2.4735700000310317,3.2767100000055507,4.194574999972247,5.113540000049397,5.88312999997288,6.63936500006821,7.519259999971837,8.555105000035837,9.30905000003986,10.169929999974556,10.902295000036247,11.771285000024363,12.567585000069812]",space,0.27788,0.0,24.0,24.0,14.0,1.0,,,,,,,,,,,,,
,,,,,,,,,,,block_1/none_t_119_1.wav,timbre,t,none,119.0,1.970403652,15.3319456,,,,yes,apple airpods,30,no,f,53,R,yes,1,2020-08-09_00h01.21.424,kura-B1,2020.1.2,Linux x86_64,60,,,"[""space"",""space"",""space"",""space"",""space"",""space"",""space"",""space"",""space"",""space"",""space"",""space"",""space"",""space"",""space"",""space"",""space"",""space"",""space"",""space"",""space"",""space""]","[0.2403700000140816,0.8138249999610707,1.498795000021346,2.127115000039339,2.8523999999742955,3.480710000032559,4.133969999966212,4.73933999997098,5.29686500004027,5.832079999963753,6.4831799999810755,7.152334999991581,7.724204999976791,8.377240000059828,8.989960000035353,9.651450000004843,10.247970000025816,10.884964999975637,11.5635150000453,12.182780000031926,12.907785000046715,13.634785000002012]",space,0.52167,0.0,25.0,25.0,39.0,1.0,,,,,,,,,,,,,
,,,,,,,,,,,block_1/strong_t_92_2.wav,timbre,t,strong,92.0,1.228007131,14.47607969,,,,yes,apple airpods,30,no,f,53,R,yes,1,2020-08-09_00h01.21.424,kura-B1,2020.1.2,Linux x86_64,60,,,"[""space"",""space"",""space"",""space"",""space"",""space"",""space"",""space"",""space"",""space"",""space"",""space"",""space"",""space"",""space"",""space"",""space"",""space"",""space"",""space"",""space""]","[0.3051899999845773,0.903760000015609,1.5076999999582767,2.1604049999732524,2.813564999960363,3.492710000020452,4.1608199999900535,4.836789999972098,5.514154999982566,6.199395000003278,6.875140000018291,7.552169999922626,8.22882999991998,8.881794999935664,9.567079999949783,10.20347499998752,10.920395000022836,11.558154999976978,12.226039999979548,12.919370000017807,13.587924999999814]",space,0.44352,0.0,26.0,26.0,3.0,1.0,,,,,,,,,,,,,
,,,,,,,,,,,block_1/strong_t_72_2.wav,timbre,t,strong,72.0,2.307367753,17.72600721,,,,yes,apple airpods,30,no,f,53,R,yes,1,2020-08-09_00h01.21.424,kura-B1,2020.1.2,Linux x86_64,60,,,"[""space"",""space"",""space"",""space"",""space"",""space"",""space"",""space"",""space"",""space"",""space"",""space"",""space"",""space"",""space"",""space"",""space"",""space"",""space"",""space"",""space""]","[0.2390649999724701,0.9360800000140443,1.513230000040494,2.3337850000243634,3.1618000000016764,3.935285000014119,4.740180000080727,5.536459999973886,6.333455000072718,7.10152000002563,7.942619999987073,8.699825000017881,9.520450000069104,10.292379999998957,11.081055000075139,11.901874999981374,12.682245000032708,13.479709999985062,14.269345000036992,15.088884999975562,15.893245000042953]",space,0.38678,0.0,27.0,27.0,6.0,1.0,,,,,,,,,,,,,
,,,,,,,,,,,block_1/medium_t_92_1.wav,timbre,t,medium,92.0,2.038979261,15.74360511,,,,yes,apple airpods,30,no,f,53,R,yes,1,2020-08-09_00h01.21.424,kura-B1,2020.1.2,Linux x86_64,60,,,"[""space"",""space"",""space"",""space"",""space"",""space"",""space"",""space"",""space"",""space"",""space"",""space"",""space"",""space"",""space"",""space"",""space"",""space"",""space""]","[0.27571000007446855,1.3705799999879673,2.1004500000271946,2.809514999971725,3.576175000052899,4.266754999989644,4.999225000035949,5.684675000025891,6.401384999975562,7.078635000041686,7.779220000025816,8.512470000074245,9.207099999999627,9.857910000020638,10.566370000015013,11.278290000045672,11.992794999969192,12.700665000011213,13.402014999999665]",space,0.345505,0.0,28.0,28.0,36.0,1.0,,,,,,,,,,,,,
,,,,,,,,,,,block_1/strong_t_92_1.wav,timbre,t,strong,92.0,1.394968876,12.52589858,,,,yes,apple airpods,30,no,f,53,R,yes,1,2020-08-09_00h01.21.424,kura-B1,2020.1.2,Linux x86_64,60,,,"[""space"",""space"",""space"",""space"",""space"",""space"",""space"",""space"",""space"",""space"",""space"",""space"",""space"",""space"",""space"",""space"",""space"",""space"",""space"",""space""]","[0.40253500000108033,1.0071449999231845,1.5485849999822676,2.1937599999364465,2.7912049998994917,3.3633050000062212,3.912484999978915,4.461359999957494,5.0133949998999014,5.639869999955408,6.23699000000488,6.785969999968074,7.419849999947473,7.980034999898635,8.556154999998398,9.102169999969192,9.725649999920279,10.280504999915138,10.878014999907464,11.445824999944307]",space,0.803885,0.0,29.0,29.0,1.0,1.0,,,,,,,,,,,,,
,,,,,,,,,,,block_1/medium_t_105_2.wav,timbre,t,medium,105.0,2.138064486,12.91584226,,,,yes,apple airpods,30,no,f,53,R,yes,1,2020-08-09_00h01.21.424,kura-B1,2020.1.2,Linux x86_64,60,,,"[""space"",""space"",""space"",""space"",""space"",""space"",""space"",""space"",""space"",""space"",""space"",""space"",""space"",""space"",""space"",""space"",""space"",""space"",""space"",""space"",""space""]","[0.23782500007655472,0.7549300000537187,1.2488700000103563,1.693665000027977,2.1942650000564754,2.711600000038743,3.229120000032708,3.7703150000888854,4.366425000014715,4.956340000033379,5.513125000055879,6.053950000088662,6.628150000004098,7.184650000068359,7.741195000009611,8.306949999998324,8.871845000074245,9.455650000018068,9.993770000059158,10.566504999995232,11.163790000020526]",space,0.701835,0.0,30.0,30.0,19.0,1.0,,,,,,,,,,,,,
,,,,,,,,,,,block_1/none_t_72_1.wav,timbre,t,none,72.0,2.370838854,21.3551926,,,,yes,apple airpods,30,no,f,53,R,yes,1,2020-08-09_00h01.21.424,kura-B1,2020.1.2,Linux x86_64,60,,,"[""space"",""space"",""space"",""space"",""space"",""space"",""space"",""space"",""space"",""space"",""space"",""space"",""space"",""space"",""space"",""space"",""space"",""space"",""space"",""space"",""space"",""space"",""space"",""space"",""space"",""space"",""space"",""space"",""space""]","[0.22802499996032566,1.0083850000519305,1.661255000042729,2.49847500002943,3.382510000024922,4.050760000012815,4.840545000042766,5.508920000051148,6.090014999965206,6.726959999999963,7.268670000019483,7.856385000050068,8.534400000004098,9.203205000027083,9.824905000044964,10.51671500003431,11.153769999975339,11.746554999961518,12.355164999957196,12.933019999996759,13.557369999936782,14.154699999955483,14.791620000032708,15.422559999977238,16.107474999967963,16.73439999995753,17.339724999968894,17.97866999998223,18.653459999943152]",space,0.389605,0.0,31.0,31.0,23.0,1.0,,,,,,,,,,,,,
,,,,,,,,,,,block_1/medium_t_72_2.wav,timbre,t,medium,72.0,1.374562099,18.5083943,,,,yes,apple airpods,30,no,f,53,R,yes,1,2020-08-09_00h01.21.424,kura-B1,2020.1.2,Linux x86_64,60,,,"[""space"",""space"",""space"",""space"",""space"",""space"",""space"",""space"",""space"",""space"",""space"",""space"",""space"",""space"",""space"",""space"",""space"",""space"",""space"",""space""]","[0.28540000005159527,0.7630400001071393,1.6472700000740588,2.5412950000027195,3.4317100000334904,4.316290000104345,5.232785000000149,6.078310000011697,6.970490000094287,7.887095000012778,8.806265000021085,9.608205000055023,10.493875000043772,11.352795000071637,12.21483499999158,13.083310000016354,14.03854500001762,14.890910000074655,15.799445000011474,16.65974000003189]",space,0.552355,0.0,32.0,32.0,28.0,1.0,,,,,,,,,,,,,
,,,,,,,,,,,block_1/none_t_92_2.wav,timbre,t,none,92.0,1.89077586,18.43372371,,,,yes,apple airpods,30,no,f,53,R,yes,1,2020-08-09_00h01.21.424,kura-B1,2020.1.2,Linux x86_64,60,,,"[""space"",""space"",""space"",""space"",""space"",""space"",""space"",""space"",""space"",""space"",""space"",""space"",""space"",""space"",""space"",""space"",""space"",""space"",""space"",""space"",""space"",""space"",""space"",""space"",""space"",""space"",""space""]","[0.27229500003159046,1.0604800001019612,1.9126700001070276,2.7184650000417605,3.5144150000996888,4.071385000017472,4.835965000092983,5.4891700000735,6.190485000028275,6.7705950000090525,7.40209000010509,7.904295000014827,8.43852500000503,8.975340000004508,9.476415000041015,10.00968500005547,10.576375000062399,11.171425000065938,11.77965000004042,12.46955500007607,13.026420000009239,13.634100000024773,14.236595000023954,14.857805000036024,15.566585000022314,16.023515000008047,16.50783500005491]",space,0.55935,0.0,33.0,33.0,18.0,1.0,,,,,,,,,,,,,
,,,,,,,,,,,block_1/strong_t_119_2.wav,timbre,t,strong,119.0,2.38266194,11.99749187,,,,yes,apple airpods,30,no,f,53,R,yes,1,2020-08-09_00h01.21.424,kura-B1,2020.1.2,Linux x86_64,60,,,"[""space"",""space"",""space"",""space"",""space"",""space"",""space"",""space"",""space"",""space"",""space"",""space"",""space"",""space"",""space"",""space"",""space"",""space"",""space"",""space"",""space""]","[0.335190000012517,0.79272500006482,1.1815600000554696,1.6271450000349432,2.0965500000165775,2.581925000064075,3.067185000050813,3.559774999972433,4.053970000008121,4.546315000043251,5.01597499998752,5.500430000014603,5.99449499999173,6.483360000071116,6.984275000053458,7.468815000029281,7.953349999967031,8.4440300000133,8.905720000038855,9.390785000054166,9.84389999997802]",space,0.57696,0.0,34.0,34.0,31.0,1.0,,,,,,,,,,,,,
,,,,,,,,,,,block_1/medium_t_92_2.wav,timbre,t,medium,92.0,2.140863801,15.18521754,,,,yes,apple airpods,30,no,f,53,R,yes,1,2020-08-09_00h01.21.424,kura-B1,2020.1.2,Linux x86_64,60,,,"[""space"",""space"",""space"",""space"",""space"",""space"",""space"",""space"",""space"",""space"",""space"",""space"",""space"",""space"",""space"",""space"",""space"",""space"",""space"",""space"",""space""]","[0.23493499995674938,1.0700449999421835,1.6805950000416487,2.309359999955632,2.9867599999997765,3.551504999981262,4.212120000040159,4.905174999963492,5.582309999968857,6.243654999998398,6.959745000000112,7.572919999947771,8.242409999947995,8.88972500001546,9.619940000004135,10.275900000007823,10.853690000018105,11.46296999999322,12.080214999965392,12.716649999958463,13.353209999972023]",space,0.452385,0.0,35.0,35.0,32.0,1.0,,,,,,,,,,,,,
,,,,,,,,,,,block_1/strong_t_81_2.wav,timbre,t,strong,81.0,1.680376519,15.8366577,,,,yes,apple airpods,30,no,f,53,R,yes,1,2020-08-09_00h01.21.424,kura-B1,2020.1.2,Linux x86_64,60,,,"[""space"",""space"",""space"",""space"",""space"",""space"",""space"",""space"",""space"",""space"",""space"",""space"",""space"",""space"",""space"",""space"",""space"",""space"",""space"",""space"",""space""]","[0.25149499997496605,0.9737749999621883,1.6049899999052286,2.30680499994196,2.9798449999652803,3.7281499999808148,4.4375799999106675,5.163509999983944,5.871054999995977,6.5960399999748915,7.3131749999010935,8.061614999896847,8.794264999916777,9.457544999895617,10.235950000002049,10.920724999974482,11.669829999911599,12.381049999967217,13.10257999994792,13.811939999926835,14.552994999918155]",space,0.49361,0.0,36.0,36.0,26.0,1.0,,,,,,,,,,,,,
,,,,,,,,,,,block_1/medium_t_105_1.wav,timbre,t,medium,105.0,2.180706288,14.37050221,,,,yes,apple airpods,30,no,f,53,R,yes,1,2020-08-09_00h01.21.424,kura-B1,2020.1.2,Linux x86_64,60,,,"[""space"",""space"",""space"",""space"",""space"",""space"",""space"",""space"",""space"",""space"",""space"",""space"",""space"",""space"",""space"",""space"",""space"",""space"",""space"",""space"",""space""]","[0.23765999998431653,1.1382599999196827,1.615819999948144,2.1646799999289215,2.6813550000078976,3.2089149999665096,3.731154999928549,4.2493150000227615,4.8629499999806285,5.4753949999576434,6.0565199999837205,6.653150000027381,7.285715000005439,7.887204999919049,8.548139999969862,9.232740000006743,9.886109999963082,10.520844999933615,11.162084999959916,11.81293499993626,12.473959999973886]",space,0.555945,0.0,37.0,37.0,16.0,1.0,,,,,,,,,,,,,
,,,,,,,,,,,block_1/none_t_72_2.wav,timbre,t,none,72.0,1.436515358,19.69406638,,,,yes,apple airpods,30,no,f,53,R,yes,1,2020-08-09_00h01.21.424,kura-B1,2020.1.2,Linux x86_64,60,,,"[""space"",""space"",""space"",""space"",""space"",""space"",""space"",""space"",""space"",""space"",""space"",""space"",""space"",""space"",""space"",""space"",""space"",""space"",""space"",""space"",""space""]","[0.27208499994594604,0.9411199999740347,1.8657599999569356,3.0940450000343844,4.0979199999710545,5.070485000032932,6.050835000001825,7.217839999939315,7.948084999923594,8.83198000001721,9.708710000035353,10.409370000008494,11.42987999995239,12.082859999965876,13.127669999958016,14.011809999938123,14.753159999963827,15.622205000021495,16.497289999970235,17.517404999933206,18.579144999966957]",space,0.437205,0.0,38.0,38.0,21.0,1.0,,,,,,,,,,,,,
,,,,,,,,,,,block_1/none_t_81_1.wav,timbre,t,none,81.0,1.412848736,15.74926597,,,,yes,apple airpods,30,no,f,53,R,yes,1,2020-08-09_00h01.21.424,kura-B1,2020.1.2,Linux x86_64,60,,,"[""space"",""space"",""space"",""space"",""space"",""space"",""space"",""space"",""space"",""space"",""space"",""space"",""space"",""space"",""space"",""space"",""space"",""space"",""space"",""space"",""space"",""space"",""space""]","[0.32064499997068197,0.8695949999382719,1.5716799999354407,2.10586000001058,2.724709999980405,3.528730000020005,4.086404999950901,4.602985000004992,5.4880600000033155,5.988855000003241,6.737469999934547,7.4627000000327826,8.28332499996759,9.073689999990165,9.700719999964349,10.322165000019595,10.950485000037588,11.55583999992814,12.168364999932237,12.717760000028647,13.3508950000396,13.903775000013411,14.460880000027828]",space,0.413235,0.0,39.0,39.0,11.0,1.0,,,,,,,,,,,,,
,,,,,,,,,,,block_2/strong_n_105_2.wav,no,n,strong,105.0,1.030135556,14.17553238,,,,yes,apple airpods,30,no,f,53,R,yes,1,2020-08-09_00h01.21.424,kura-B1,2020.1.2,Linux x86_64,60,,,,,,,,,,,,space,3.380845,"[""space"",""space"",""space"",""space"",""space"",""space"",""space"",""space"",""space"",""space"",""space"",""space"",""space"",""space"",""space"",""space"",""space"",""space"",""space"",""space"",""space""]","[0.5013449999969453,1.1368699999293312,1.6379549999255687,2.273255000007339,2.934309999924153,3.602959999931045,4.240194999962114,4.908764999941923,5.564379999996163,6.238520000013523,6.875784999923781,7.544524999917485,8.172979999915697,8.850689999992028,9.536259999964386,10.195949999964796,10.89661499997601,11.512589999940246,12.17066999990493,12.808009999920614,13.484294999972917]",space,0.767225,0.0,0.0,0.0,9.0,1.0,,
,,,,,,,,,,,block_2/weak_n_81_1.wav,no,n,weak,81.0,2.025683857,14.86613737,,,,yes,apple airpods,30,no,f,53,R,yes,1,2020-08-09_00h01.21.424,kura-B1,2020.1.2,Linux x86_64,60,,,,,,,,,,,,,,"[""space"",""space"",""space"",""space"",""space"",""space"",""space"",""space"",""space"",""space"",""space"",""space"",""space"",""space"",""space"",""space"",""space"",""space"",""space"",""space"",""space""]","[0.24211500003002584,1.1190100000239909,1.7549449999351054,2.424929999979213,3.0403650000225753,3.6753249999601394,4.279039999935776,4.996459999936633,5.640774999978021,6.237800000002608,6.834750000038184,7.495699999970384,8.164779999991879,8.745830000028946,9.374904999975115,10.011455000028946,10.692724999971688,11.317249999963678,11.954329999978654,12.550979999941774,13.17262500000652]",space,0.502165,0.0,1.0,1.0,35.0,1.0,,
,,,,,,,,,,,block_2/strong_n_72_1.wav,no,n,strong,72.0,1.979367889,17.70027492,,,,yes,apple airpods,30,no,f,53,R,yes,1,2020-08-09_00h01.21.424,kura-B1,2020.1.2,Linux x86_64,60,,,,,,,,,,,,,,"[""space"",""space"",""space"",""space"",""space"",""space"",""space"",""space"",""space"",""space"",""space"",""space"",""space"",""space"",""space"",""space"",""space"",""space"",""space"",""space"",""space""]","[0.25159499992150813,0.7439999999478459,1.6442599999718368,2.43343500001356,3.24621000001207,4.034434999921359,4.855329999933019,5.6602399999974295,6.488879999960773,7.28602499992121,8.089749999926426,8.889579999959096,9.691110000014305,10.535984999965876,11.332560000009835,12.089099999982864,12.973344999947585,13.7701249999227,14.553399999975227,15.339764999924228,16.152634999947622]",space,0.27902,0.0,2.0,2.0,33.0,1.0,,
,,,,,,,,,,,block_2/medium_n_119_1.wav,no,n,medium,119.0,1.010172499,10.57697522,,,,yes,apple airpods,30,no,f,53,R,yes,1,2020-08-09_00h01.21.424,kura-B1,2020.1.2,Linux x86_64,60,,,,,,,,,,,,,,"[""space"",""space"",""space"",""space"",""space"",""space"",""space"",""space"",""space"",""space"",""space"",""space"",""space"",""space"",""space"",""space"",""space"",""space"",""space"",""space""]","[0.3629400000208989,1.1373150000581518,1.5485650000628084,1.9621150000020862,2.3991700001060963,2.824155000038445,3.3381700000027195,3.8389850000385195,4.328525000018999,4.857080000103451,5.334650000091642,5.842835000017658,6.3454700000584126,6.821970000048168,7.33120500005316,7.832535000052303,8.365445000003092,8.826285000075586,9.336220000055619,9.844275000039488]",space,0.8535,0.0,3.0,3.0,24.0,1.0,,
,,,,,,,,,,,block_2/weak_n_92_2.wav,no,n,weak,92.0,1.908793764,14.14589127,,,,yes,apple airpods,30,no,f,53,R,yes,1,2020-08-09_00h01.21.424,kura-B1,2020.1.2,Linux x86_64,60,,,,,,,,,,,,,,"[""space"",""space"",""space"",""space"",""space"",""space"",""space"",""space"",""space"",""space"",""space"",""space"",""space"",""space"",""space"",""space"",""space"",""space"",""space"",""space""]","[0.23647999996319413,1.036599999992177,1.6540950000053272,2.259100000024773,2.8642949999775738,3.493125000037253,4.076830000034533,4.671815000008792,5.300275000045076,5.8813800000352785,6.495654999976978,7.067245000042021,7.65605999995023,8.270284999976866,8.889974999940023,9.53512499993667,10.10840000002645,10.72108000004664,11.361189999966882,12.002919999998994]",space,0.29551,0.0,4.0,4.0,6.0,1.0,,
,,,,,,,,,,,block_2/medium_n_105_1.wav,no,n,medium,105.0,1.976395362,15.17435455,,,,yes,apple airpods,30,no,f,53,R,yes,1,2020-08-09_00h01.21.424,kura-B1,2020.1.2,Linux x86_64,60,,,,,,,,,,,,,,"[""space"",""space"",""space"",""space"",""space"",""space"",""space"",""space"",""space"",""space"",""space"",""space"",""space"",""space"",""space"",""space"",""space"",""space"",""space"",""space""]","[0.2519099999917671,1.0704599999589846,1.809929999988526,2.4574749999446794,3.0519449999555945,3.664754999917932,4.285734999924898,4.866779999923892,5.487800000002608,6.06890499999281,6.684584999922663,7.247454999946058,7.8752849999582395,8.560454999911599,9.24051499995403,9.962364999926649,10.695590000017546,11.38023999996949,12.096964999916963,12.869194999919273]",space,0.286205,0.0,5.0,5.0,7.0,1.0,,
,,,,,,,,,,,block_2/weak_n_92_1.wav,no,n,weak,92.0,1.493156661,15.23787321,,,,yes,apple airpods,30,no,f,53,R,yes,1,2020-08-09_00h01.21.424,kura-B1,2020.1.2,Linux x86_64,60,,,,,,,,,,,,,,"[""space"",""space"",""space"",""space"",""space"",""space"",""space"",""space"",""space"",""space"",""space"",""space"",""space"",""space"",""space"",""space"",""space"",""space"",""space"",""space"",""space""]","[0.2519999999785796,0.9446149999275804,1.557799999951385,2.178434999892488,2.8632849999703467,3.509889999986626,4.1776099998969585,4.782389999949373,5.474984999978915,6.168334999936633,6.8205549999838695,7.505699999979697,8.18345499993302,8.822159999981523,9.512224999954924,10.126254999893717,10.787299999967217,11.495379999978468,12.14044499990996,12.808939999900758,13.501104999915697]",space,0.32471,0.0,6.0,6.0,2.0,1.0,,
,,,,,,,,,,,block_2/none_n_72_1.wav,no,n,none,72.0,2.425336639,22.99082417,,,,yes,apple airpods,30,no,f,53,R,yes,1,2020-08-09_00h01.21.424,kura-B1,2020.1.2,Linux x86_64,60,,,,,,,,,,,,,,"[""space"",""space"",""space"",""space"",""space"",""space"",""space"",""space"",""space"",""space"",""space"",""space"",""space"",""space"",""space"",""space"",""space"",""space"",""space"",""space"",""space"",""space"",""space"",""space"",""space"",""space"",""space"",""space"",""space"",""space"",""space"",""space"",""space"",""space"",""space"",""space""]","[0.23962999996729195,1.119994999957271,1.5614399999612942,2.094425000017509,2.708020000020042,3.264835000038147,4.0457050000550225,4.570779999950901,5.247055000043474,6.020570000051521,6.449570000055246,7.001735000056215,7.6530499999644235,8.272134999977425,8.721845000050962,9.234590000007302,9.768255000002682,10.36413999996148,11.002010000054725,11.638915000017732,12.219685000018217,12.752809999976307,13.294315000064671,13.83542000001762,14.328669999958947,14.79781500005629,15.314669999992475,15.823240000056103,16.428175000008196,17.009175000013784,17.526599999982864,18.164209999958985,18.72095500002615,19.264285000041127,19.798584999982268,20.384330000029877]",space,0.325165,0.0,7.0,7.0,18.0,1.0,,
,,,,,,,,,,,block_2/none_n_72_2.wav,no,n,none,72.0,1.244195676,23.89829998,,,,yes,apple airpods,30,no,f,53,R,yes,1,2020-08-09_00h01.21.424,kura-B1,2020.1.2,Linux x86_64,60,,,,,,,,,,,,,,"[""space"",""space"",""space"",""space"",""space"",""space"",""space"",""space"",""space"",""space"",""space"",""space"",""space"",""space"",""space"",""space"",""space"",""space"",""space"",""space"",""space"",""space"",""space"",""space"",""space"",""space"",""space"",""space""]","[0.2842450001044199,1.1453350000083447,2.206000000005588,3.3380200000246987,4.222820000024512,4.939540000050329,5.6079000000609085,6.5331500000320375,7.297355000046082,7.989660000079311,8.8582400000887,9.814445000025444,10.603870000108145,11.519585000001825,12.325135000050068,13.082410000031814,13.926215000101365,14.85370000009425,15.58363000000827,16.47547000006307,17.232205000007525,18.1006800000323,19.081170000019483,19.95751000009477,20.706525000045076,21.536615000106394,22.103760000085458,22.97686000005342]",space,0.4976,0.0,8.0,8.0,16.0,1.0,,
,,,,,,,,,,,block_2/strong_n_105_1.wav,no,n,strong,105.0,1.056930825,14.45525282,,,,yes,apple airpods,30,no,f,53,R,yes,1,2020-08-09_00h01.21.424,kura-B1,2020.1.2,Linux x86_64,60,,,,,,,,,,,,,,"[""space"",""space"",""space"",""space"",""space"",""space"",""space"",""space"",""space"",""space"",""space"",""space"",""space"",""space"",""space"",""space"",""space"",""space"",""space"",""space""]","[0.8900050000520423,1.6304350000573322,2.2588850000174716,2.9598600000608712,3.6287699999520555,4.314035000046715,4.966374999959953,5.647869999986142,6.335655000060797,6.989060000050813,7.682730000000447,8.327754999976605,9.022965000011027,9.664690000005066,10.393114999984391,11.098925000056624,11.762845000019297,12.420410000020638,13.082500000018626,13.742214999976568]",space,0.41919,0.0,9.0,9.0,13.0,1.0,,
,,,,,,,,,,,block_2/weak_n_72_1.wav,no,n,weak,72.0,2.399201816,17.30954195,,,,yes,apple airpods,30,no,f,53,R,yes,1,2020-08-09_00h01.21.424,kura-B1,2020.1.2,Linux x86_64,60,,,,,,,,,,,,,,"[""space"",""space"",""space"",""space"",""space"",""space"",""space"",""space"",""space"",""space"",""space"",""space"",""space"",""space"",""space"",""space"",""space"",""space"",""space"",""space""]","[0.23459500004537404,1.3400200000032783,2.0013700000708923,2.7175400000996888,3.4589250000426546,4.231690000044182,4.900345000089146,5.672944999998435,6.461929999990389,7.210554999997839,7.958970000036061,8.692115000099875,9.464440000010654,10.245190000045113,10.977784999995492,11.662460000021383,12.403389999992214,13.072495000087656,13.767620000056922,14.530765000032261]",space,0.319355,0.0,10.0,10.0,15.0,1.0,,
,,,,,,,,,,,block_2/none_n_119_2.wav,no,n,none,119.0,2.143940737,13.70121965,,,,yes,apple airpods,30,no,f,53,R,yes,1,2020-08-09_00h01.21.424,kura-B1,2020.1.2,Linux x86_64,60,,,,,,,,,,,,,,"[""space"",""space"",""space"",""space"",""space"",""space"",""space"",""space"",""space"",""space"",""space"",""space"",""space"",""space"",""space"",""space"",""space"",""space"",""space"",""space"",""space"",""space""]","[0.27964500000234693,1.0917149999877438,1.7054250000510365,2.3183699999935925,2.8511400000425056,3.4475899999961257,3.9330449999542907,4.411429999978282,4.880750000011176,5.332674999954179,5.874105000053532,6.399444999988191,6.892029999988154,7.377295000012964,7.8626850000582635,8.379910000017844,8.928504999959841,9.50226500001736,10.066785000031814,10.560019999975339,11.077264999970794,11.595504999975674]",space,0.377105,0.0,11.0,11.0,25.0,1.0,,
,,,,,,,,,,,block_2/none_n_119_1.wav,no,n,none,119.0,1.472051285,13.63313972,,,,yes,apple airpods,30,no,f,53,R,yes,1,2020-08-09_00h01.21.424,kura-B1,2020.1.2,Linux x86_64,60,,,,,,,,,,,,,,"[""space"",""space"",""space"",""space"",""space"",""space"",""space"",""space"",""space"",""space"",""space"",""space"",""space"",""space"",""space"",""space"",""space"",""space"",""space"",""space"",""space""]","[0.24569000001065433,0.8189649999840185,1.2787099999841303,1.8551449999213219,2.409044999978505,2.958314999938011,3.525694999960251,4.136384999961592,4.661964999977499,5.218649999937043,5.7914899999741465,6.3163799999747425,6.833784999907948,7.4860699999844655,8.087224999908358,8.721625000005588,9.373829999938607,9.978309999918565,10.593354999902658,11.236779999919236,11.856979999924079]",space,0.522875,0.0,12.0,12.0,22.0,1.0,,
,,,,,,,,,,,block_2/medium_n_119_2.wav,no,n,medium,119.0,2.453413839,11.51042064,,,,yes,apple airpods,30,no,f,53,R,yes,1,2020-08-09_00h01.21.424,kura-B1,2020.1.2,Linux x86_64,60,,,,,,,,,,,,,,"[""space"",""space"",""space"",""space"",""space"",""space"",""space"",""space"",""space"",""space"",""space"",""space"",""space"",""space"",""space"",""space"",""space"",""space"",""space""]","[0.24594499997328967,0.8587950000073761,1.447829999960959,1.9725200000684708,2.3778300000121817,2.7915450000436977,3.4209650000557303,3.8182050000177696,4.311379999970086,4.8200700000161305,5.353315000073053,5.886180000030436,6.412100000074133,6.867489999975078,7.390529999975115,7.922885000007227,8.400765000027604,8.86178999999538,9.314970000064932]",space,0.41388,0.0,13.0,13.0,21.0,1.0,,
,,,,,,,,,,,block_2/strong_n_81_2.wav,no,n,strong,81.0,1.892264478,17.05494022,,,,yes,apple airpods,30,no,f,53,R,yes,1,2020-08-09_00h01.21.424,kura-B1,2020.1.2,Linux x86_64,60,,,,,,,,,,,,,,"[""space"",""space"",""space"",""space"",""space"",""space"",""space"",""space"",""space"",""space"",""space"",""space"",""space"",""space"",""space"",""space"",""space"",""space"",""space"",""space"",""space""]","[0.5414299999829382,1.2893449999392033,1.974519999930635,2.731444999924861,3.5040449999505654,4.212689999956638,4.96351999999024,5.726359999971464,6.45094499993138,7.255484999972396,7.972345000016503,8.72921999997925,9.541224999935366,10.250374999945052,11.056815000018105,11.813179999939166,12.54790000000503,13.301379999960773,14.058284999919124,14.799364999984391,15.555150000029244]",space,0.35222,0.0,14.0,14.0,8.0,1.0,,
,,,,,,,,,,,block_2/none_n_81_1.wav,no,n,none,81.0,1.160099605,17.42268464,,,,yes,apple airpods,30,no,f,53,R,yes,1,2020-08-09_00h01.21.424,kura-B1,2020.1.2,Linux x86_64,60,,,,,,,,,,,,,,"[""space"",""space"",""space"",""space"",""space"",""space"",""space"",""space"",""space"",""space"",""space"",""space"",""space"",""space"",""space"",""space"",""space"",""space"",""space"",""space"",""space"",""space"",""space"",""space"",""space"",""space""]","[0.4228799999691546,1.164394999970682,1.8730399999767542,2.5104300000239164,3.2028449999634176,3.855695000034757,4.580175000010058,5.153225000016391,5.870140000013635,6.5706399999326095,7.119984999997541,7.6294999999227,8.257679999922402,8.905260000028647,9.452414999948815,10.152834999957122,10.853965000016615,11.461859999923036,12.096469999989495,12.732749999966472,13.299720000009984,13.834299999987707,14.380050000036135,14.970014999969862,15.573349999962375,16.210435000015423]",space,0.525075,0.0,15.0,15.0,29.0,1.0,,
,,,,,,,,,,,block_2/medium_n_72_2.wav,no,n,medium,72.0,2.017934227,19.05022448,,,,yes,apple airpods,30,no,f,53,R,yes,1,2020-08-09_00h01.21.424,kura-B1,2020.1.2,Linux x86_64,60,,,,,,,,,,,,,,"[""space"",""space"",""space"",""space"",""space"",""space"",""space"",""space"",""space"",""space"",""space"",""space"",""space"",""space"",""space"",""space"",""space"",""space"",""space"",""space""]","[0.21760500001255423,0.7119050000328571,1.6596600000048056,2.5441850000061095,3.425025000004098,4.353254999965429,5.253499999991618,6.098600000026636,6.951970000052825,7.9196699999738485,8.743550000013784,9.623830000055023,10.48105000006035,11.327404999989085,12.233639999991283,13.127199999988079,14.019274999969639,14.863305000006221,15.77223999996204,16.632140000001527]",space,0.53595,0.0,16.0,16.0,14.0,1.0,,
,,,,,,,,,,,block_2/weak_n_119_1.wav,no,n,weak,119.0,2.394125333,11.70850175,,,,yes,apple airpods,30,no,f,53,R,yes,1,2020-08-09_00h01.21.424,kura-B1,2020.1.2,Linux x86_64,60,,,,,,,,,,,,,,"[""space"",""space"",""space"",""space"",""space"",""space"",""space"",""space"",""space"",""space"",""space"",""space"",""space"",""space"",""space"",""space"",""space"",""space"",""space""]","[0.23507499997504056,1.053249999997206,1.7455549999140203,2.343599999905564,2.947829999960959,3.44887999992352,3.8618749999441206,4.331569999922067,4.779139999998733,5.285824999911711,5.770870000007562,6.248809999902733,6.741584999952465,7.1865849999012426,7.68757499998901,8.188994999974966,8.65062999993097,9.089914999902248,9.612289999960922]",space,0.66464,0.0,17.0,17.0,38.0,1.0,,
,,,,,,,,,,,block_2/weak_n_105_2.wav,no,n,weak,105.0,1.251032373,14.19257432,,,,yes,apple airpods,30,no,f,53,R,yes,1,2020-08-09_00h01.21.424,kura-B1,2020.1.2,Linux x86_64,60,,,,,,,,,,,,,,"[""space"",""space"",""space"",""space"",""space"",""space"",""space"",""space"",""space"",""space"",""space"",""space"",""space"",""space"",""space"",""space"",""space"",""space"",""space"",""space""]","[0.2343000000109896,1.005269999965094,1.8261449999408796,2.4735299999592826,2.980559999938123,3.659364999970421,4.26218499999959,4.819149999995716,5.535954999970272,6.300374999991618,7.04163500003051,7.686424999963492,8.355074999970384,9.032439999980852,9.685395000036806,10.234240000019781,10.827335000038147,11.44508999993559,12.057224999996834,12.7258950000396]",space,1.047665,0.0,18.0,18.0,26.0,1.0,,
,,,,,,,,,,,block_2/strong_n_92_1.wav,no,n,strong,92.0,2.132496366,14.62065963,,,,yes,apple airpods,30,no,f,53,R,yes,1,2020-08-09_00h01.21.424,kura-B1,2020.1.2,Linux x86_64,60,,,,,,,,,,,,,,"[""space"",""space"",""space"",""space"",""space"",""space"",""space"",""space"",""space"",""space"",""space"",""space"",""space"",""space"",""space"",""space"",""space"",""space"",""space"",""space"",""space""]","[0.27449500001966953,1.1990150000201538,1.708214999991469,2.3452500000130385,2.950094999978319,3.562555000069551,4.1946699999971315,4.780945000005886,5.385910000069998,6.006995000061579,6.619595000054687,7.256225000019185,7.877725000027567,8.49875000002794,9.095079999999143,9.740860000019893,10.325635000015609,10.960715000052005,11.555739999981597,12.224765000049956,12.821050000027753]",space,0.67652,0.0,19.0,19.0,37.0,1.0,,
,,,,,,,,,,,block_2/strong_n_119_1.wav,no,n,strong,119.0,2.397746816,12.26713457,,,,yes,apple airpods,30,no,f,53,R,yes,1,2020-08-09_00h01.21.424,kura-B1,2020.1.2,Linux x86_64,60,,,,,,,,,,,,,,"[""space"",""space"",""space"",""space"",""space"",""space"",""space"",""space"",""space"",""space"",""space"",""space"",""space"",""space"",""space"",""space"",""space"",""space"",""space"",""space""]","[0.2913649999536574,1.0961200000019744,1.524779999977909,1.973109999904409,2.4738899999065325,2.974959999904968,3.4816599999321625,4.014934999984689,4.5565199999837205,5.04145499994047,5.566249999916181,6.051514999940991,6.5769299999810755,7.069829999934882,7.60285499994643,8.137304999982007,8.645284999976866,9.15729999996256,9.631234999978915,10.159969999920577]",space,0.526575,0.0,20.0,20.0,19.0,1.0,,
,,,,,,,,,,,block_2/medium_n_81_1.wav,no,n,medium,81.0,1.997436703,15.99943217,,,,yes,apple airpods,30,no,f,53,R,yes,1,2020-08-09_00h01.21.424,kura-B1,2020.1.2,Linux x86_64,60,,,,,,,,,,,,,,"[""space"",""space"",""space"",""space"",""space"",""space"",""space"",""space"",""space"",""space"",""space"",""space"",""space"",""space"",""space"",""space"",""space"",""space"",""space"",""space"",""space""]","[0.23733499995432794,1.22570499998983,1.9225299999816343,2.619814999983646,3.258614999940619,3.933324999990873,4.618350000004284,5.314204999944195,6.051644999999553,6.704124999931082,7.373154999921098,8.054109999909997,8.782754999934696,9.54762500000652,10.265079999924637,10.917024999973364,11.602024999912828,12.280679999967106,12.966314999968745,13.650930000003427,14.397849999950267]",space,0.63659,0.0,21.0,21.0,31.0,1.0,,
,,,,,,,,,,,block_2/medium_n_81_2.wav,no,n,medium,81.0,1.533387433,15.23592712,,,,yes,apple airpods,30,no,f,53,R,yes,1,2020-08-09_00h01.21.424,kura-B1,2020.1.2,Linux x86_64,60,,,,,,,,,,,,,,"[""space"",""space"",""space"",""space"",""space"",""space"",""space"",""space"",""space"",""space"",""space"",""space"",""space"",""space"",""space"",""space"",""space"",""space"",""space"",""space""]","[0.31328499992378056,0.7190749999135733,1.4747450000140816,2.216314999968745,2.9319399999221787,3.6656199999852106,4.311114999931306,4.996264999965206,5.744055000017397,6.460740000009537,7.145459999912418,7.821999999927357,8.539119999972172,9.231614999938756,9.932549999910407,10.665760000003502,11.350235000019893,12.050859999959357,12.768024999997579,13.436654999968596]",space,0.74614,0.0,22.0,22.0,34.0,1.0,,
,,,,,,,,,,,block_2/strong_n_72_2.wav,no,n,strong,72.0,2.258938628,19.59540121,,,,yes,apple airpods,30,no,f,53,R,yes,1,2020-08-09_00h01.21.424,kura-B1,2020.1.2,Linux x86_64,60,,,,,,,,,,,,,,"[""space"",""space"",""space"",""space"",""space"",""space"",""space"",""space"",""space"",""space"",""space"",""space"",""space"",""space"",""space"",""space"",""space"",""space"",""space"",""space"",""space""]","[0.285024999990128,1.0039249999681488,1.6216550000244752,2.665350000024773,3.5428300000494346,4.445219999994151,5.347165000042878,6.203459999989718,7.135694999946281,8.053865000023507,8.880555000039749,9.81304999999702,10.70643999997992,11.591340000042692,12.499199999962002,13.375839999993332,14.260209999978542,15.160384999937378,16.040090000024065,16.945160000002943,17.822165000019595]",space,0.318825,0.0,23.0,23.0,30.0,1.0,,
,,,,,,,,,,,block_2/medium_n_72_1.wav,no,n,medium,72.0,2.306836655,18.27731285,,,,yes,apple airpods,30,no,f,53,R,yes,1,2020-08-09_00h01.21.424,kura-B1,2020.1.2,Linux x86_64,60,,,,,,,,,,,,,,"[""space"",""space"",""space"",""space"",""space"",""space"",""space"",""space"",""space"",""space"",""space"",""space"",""space"",""space"",""space"",""space"",""space"",""space"",""space"",""space""]","[0.2205599999288097,1.2205700000049546,2.022385000018403,2.724114999989979,3.52691000001505,4.3727949999738485,5.18027999997139,5.865214999997988,6.873649999964982,7.646249999990687,8.404789999942295,9.183459999971092,10.00813999993261,10.864479999989271,11.653464999981225,12.385959999985062,13.166869999957271,14.043669999926351,14.88107499992475,15.605174999916926]",space,0.44077,0.0,24.0,24.0,10.0,1.0,,
,,,,,,,,,,,block_2/none_n_92_2.wav,no,n,none,92.0,2.007703886,14.64294198,,,,yes,apple airpods,30,no,f,53,R,yes,1,2020-08-09_00h01.21.424,kura-B1,2020.1.2,Linux x86_64,60,,,,,,,,,,,,,,"[""space"",""space"",""space"",""space"",""space"",""space"",""space"",""space"",""space"",""space"",""space"",""space"",""space"",""space"",""space"",""space"",""space"",""space"",""space"",""space""]","[0.24210500007029623,0.9860800000606105,2.2059350000927225,2.8741650000447407,3.460369999986142,4.01698000007309,4.638765000039712,5.139265000005253,5.672835000092164,6.253645000047982,6.81160000001546,7.335950000095181,7.87690500007011,8.5140900000697,9.278630000073463,9.931405000039376,10.528455000021495,11.085190000012517,11.697924999985844,12.330905000097118]",space,0.34315,0.0,25.0,25.0,23.0,1.0,,
,,,,,,,,,,,block_2/weak_n_119_2.wav,no,n,weak,119.0,1.359763169,11.32207609,,,,yes,apple airpods,30,no,f,53,R,yes,1,2020-08-09_00h01.21.424,kura-B1,2020.1.2,Linux x86_64,60,,,,,,,,,,,,,,"[""space"",""space"",""space"",""space"",""space"",""space"",""space"",""space"",""space"",""space"",""space"",""space"",""space"",""space"",""space"",""space"",""space"",""space"",""space"",""space"",""space"",""space""]","[0.2968500000424683,0.8939249999821186,1.25956999999471,1.6726949999574572,2.1095750000094995,2.5407650000415742,3.064119999995455,3.593029999989085,4.066770000034012,4.562649999978021,5.053285000030883,5.570240000030026,6.032550000003539,6.500570000032894,6.985920000006445,7.407030000002123,7.870315000065602,8.329795000026934,8.783610000042245,9.284495000028983,9.72976000001654,10.230285000056028]",space,0.43541,0.0,26.0,26.0,36.0,1.0,,
,,,,,,,,,,,block_2/weak_n_81_2.wav,no,n,weak,81.0,1.213149696,13.09673246,,,,yes,apple airpods,30,no,f,53,R,yes,1,2020-08-09_00h01.21.424,kura-B1,2020.1.2,Linux x86_64,60,,,,,,,,,,,,,,"[""space"",""space"",""space"",""space"",""space"",""space"",""space"",""space"",""space"",""space"",""space"",""space"",""space"",""space"",""space"",""space"",""space"",""space"",""space"",""space""]","[0.27064500004053116,1.147679999936372,1.7719949999591336,2.356885000015609,2.957685000030324,3.5272049999330193,4.05238000000827,4.6284900000318885,5.223265000036918,5.7878949999576434,6.409250000026077,6.941254999954253,7.538485000026412,8.159624999971129,8.772574999951757,9.373249999945983,9.902929999982007,10.475674999994226,11.08880499994848,11.678590000024997]",space,0.45569,0.0,27.0,27.0,32.0,1.0,,
,,,,,,,,,,,block_2/none_n_81_2.wav,no,n,none,81.0,1.688814472,20.84019769,,,,yes,apple airpods,30,no,f,53,R,yes,1,2020-08-09_00h01.21.424,kura-B1,2020.1.2,Linux x86_64,60,,,,,,,,,,,,,,"[""space"",""space"",""space"",""space"",""space"",""space"",""space"",""space"",""space"",""space"",""space"",""space"",""space"",""space"",""space"",""space"",""space"",""space"",""space"",""space"",""space"",""space"",""space"",""space"",""space"",""space"",""space"",""space"",""space"",""space"",""space"",""space"",""space""]","[0.2374399999389425,0.9944799999939278,1.7552750000031665,2.4597849999554455,3.2247450000140816,3.709930000011809,4.2611399999586865,4.848020000034012,5.3729899999452755,5.932139999931678,6.550790000008419,7.052475000033155,7.593084999942221,8.11034000001382,8.747689999989234,9.272709999931976,9.80753500002902,10.37914999993518,10.943785000010394,11.452560000005178,12.097620000015013,12.759064999991097,13.332564999931492,13.868114999961108,14.385209999978542,14.891434999997728,15.600235000019893,16.156650000019,16.724734999937937,17.2945250000339,17.79591500002425,18.428349999943748,19.046504999976605]",space,0.27169,0.0,28.0,28.0,28.0,1.0,,
,,,,,,,,,,,block_2/none_n_105_2.wav,no,n,none,105.0,1.955418763,16.59637114,,,,yes,apple airpods,30,no,f,53,R,yes,1,2020-08-09_00h01.21.424,kura-B1,2020.1.2,Linux x86_64,60,,,,,,,,,,,,,,"[""space"",""space"",""space"",""space"",""space"",""space"",""space"",""space"",""space"",""space"",""space"",""space"",""space"",""space"",""space"",""space"",""space"",""space"",""space"",""space"",""space"",""space"",""space"",""space""]","[0.251505000051111,0.7861099999863654,1.6757699999725446,2.144914999953471,2.750149999978021,3.4671650000382215,4.264119999948889,4.772755000041798,5.353854999993928,5.91519500000868,6.550374999991618,7.3127000000094995,8.045380000025034,8.809914999990724,9.263039999990724,9.764074999955483,10.393760000006296,11.038919999962673,11.612719999975525,12.135939999949187,12.725465000024997,13.370450000045821,14.051254999940284,14.604105000034906]",space,0.31383,0.0,29.0,29.0,4.0,1.0,,
,,,,,,,,,,,block_2/medium_n_92_2.wav,no,n,medium,92.0,1.042358962,12.57945647,,,,yes,apple airpods,30,no,f,53,R,yes,1,2020-08-09_00h01.21.424,kura-B1,2020.1.2,Linux x86_64,60,,,,,,,,,,,,,,"[""space"",""space"",""space"",""space"",""space"",""space"",""space"",""space"",""space"",""space"",""space"",""space"",""space"",""space"",""space"",""space"",""space"",""space"",""space""]","[0.2587899999925867,1.0393300000578165,1.6056650000391528,2.221330000087619,2.8627300000516698,3.4675999999744818,4.016380000044592,4.637225000071339,5.186474999994971,5.744120000046678,6.400514999986626,6.961639999994077,7.558354999986477,8.179500000085682,8.800649999990128,9.457144999993034,10.113815000047907,10.743750000023283,11.37975500000175]",space,0.635605,0.0,30.0,30.0,1.0,1.0,,
,,,,,,,,,,,block_2/strong_n_81_1.wav,no,n,strong,81.0,1.085814619,16.04744727,,,,yes,apple airpods,30,no,f,53,R,yes,1,2020-08-09_00h01.21.424,kura-B1,2020.1.2,Linux x86_64,60,,,,,,,,,,,,,,"[""space"",""space"",""space"",""space"",""space"",""space"",""space"",""space"",""space"",""space"",""space"",""space"",""space"",""space"",""space"",""space"",""space"",""space"",""space"",""space"",""space""]","[0.5188699999125674,1.0032699999865144,1.8456799999112263,2.5904149999842048,3.335664999904111,4.131819999893196,4.828989999950863,5.597199999960139,6.370444999891333,7.087219999986701,7.891514999908395,8.608054999960586,9.341574999969453,10.142209999961779,10.9103349999059,11.6292999999132,12.347664999892004,13.116969999973662,13.904899999964982,14.638384999940172,15.404879999929108]",space,0.377365,0.0,31.0,31.0,12.0,1.0,,
,,,,,,,,,,,block_2/none_n_105_1.wav,no,n,none,105.0,1.731065446,15.85351443,,,,yes,apple airpods,30,no,f,53,R,yes,1,2020-08-09_00h01.21.424,kura-B1,2020.1.2,Linux x86_64,60,,,,,,,,,,,,,,"[""space"",""space"",""space"",""space"",""space"",""space"",""space"",""space"",""space"",""space"",""space"",""space"",""space"",""space"",""space"",""space"",""space"",""space"",""space"",""space"",""space"",""space"",""space"",""space"",""space"",""space"",""space""]","[0.21789000008720905,1.0703700000885874,1.9150500000687316,2.5235550000797957,3.0851000000257045,3.542310000048019,4.08725000009872,4.564905000035651,4.996355000068434,5.447645000065677,5.916075000073761,6.432990000001155,6.870180000085384,7.355265000020154,7.777029999997467,8.198065000004135,8.731085000094026,9.22438000002876,9.841415000031702,10.450420000008307,10.928025000030175,11.38085499999579,11.890370000037365,12.480900000082329,13.044760000077076,13.745320000103675,14.397910000057891]",space,0.619385,0.0,32.0,32.0,0.0,1.0,,
,,,,,,,,,,,block_2/none_n_92_1.wav,no,n,none,92.0,1.273053946,17.86126256,,,,yes,apple airpods,30,no,f,53,R,yes,1,2020-08-09_00h01.21.424,kura-B1,2020.1.2,Linux x86_64,60,,,,,,,,,,,,,,"[""space"",""space"",""space"",""space"",""space"",""space"",""space"",""space"",""space"",""space"",""space"",""space"",""space"",""space"",""space"",""space"",""space"",""space"",""space"",""space"",""space"",""space"",""space"",""space"",""space"",""space"",""space"",""space"",""space""]","[0.260065000038594,1.2200300000840798,1.733595000114292,2.234345000004396,2.679685000097379,3.19175500003621,3.777750000008382,4.294965000008233,4.852360000018962,5.552825000020675,6.2213550000451505,6.7711899999994785,7.3682300000218675,7.964355000061914,8.537795000011101,9.055910000111908,9.652180000091903,10.258425000007264,10.776590000023134,11.314935000031255,11.856535000028089,12.397185000008903,12.985800000024028,13.591370000038296,14.172420000075363,14.753410000004806,15.358615000033751,15.97905000008177,16.591880000079982]",space,0.488735,0.0,33.0,33.0,20.0,1.0,,
,,,,,,,,,,,block_2/weak_n_105_1.wav,no,n,weak,105.0,2.307975641,12.32461963,,,,yes,apple airpods,30,no,f,53,R,yes,1,2020-08-09_00h01.21.424,kura-B1,2020.1.2,Linux x86_64,60,,,,,,,,,,,,,,"[""space"",""space"",""space"",""space"",""space"",""space"",""space"",""space"",""space"",""space"",""space"",""space"",""space"",""space"",""space"",""space"",""space"",""space"",""space"",""space"",""space"",""space""]","[0.23474999994505197,0.672154999920167,1.140404999954626,1.5622250000014901,2.007594999973662,2.485314999939874,2.957869999925606,3.4554149999748915,3.960084999911487,4.428190000005998,4.895774999982677,5.397059999988414,5.936749999993481,6.382675000000745,6.835029999958351,7.343965000007302,7.877329999930225,8.346179999993183,8.807444999925792,9.285289999912493,9.775084999972023,10.2721550000133]",space,0.43523,0.0,34.0,34.0,27.0,1.0,,
,,,,,,,,,,,block_2/weak_n_72_2.wav,no,n,weak,72.0,1.8411197,21.80211743,,,,yes,apple airpods,30,no,f,53,R,yes,1,2020-08-09_00h01.21.424,kura-B1,2020.1.2,Linux x86_64,60,,,,,,,,,,,,,,"[""space"",""space"",""space"",""space"",""space"",""space"",""space"",""space"",""space"",""space"",""space"",""space"",""space"",""space"",""space"",""space"",""space"",""space"",""space"",""space""]","[0.24121499992907047,0.7584100000094622,1.994194999919273,3.1416699999244884,4.154314999934286,5.039514999953099,6.186649999930523,7.063859999994747,8.195699999923818,9.216024999972433,10.219854999915697,11.245029999990948,12.236489999922924,13.289244999992661,14.318944999948144,15.354479999979958,16.4934549999889,17.459789999993518,18.47000999993179,19.56993999995757]",space,0.418235,0.0,35.0,35.0,11.0,1.0,,
,,,,,,,,,,,block_2/medium_n_92_1.wav,no,n,medium,92.0,1.88300721,17.00042218,,,,yes,apple airpods,30,no,f,53,R,yes,1,2020-08-09_00h01.21.424,kura-B1,2020.1.2,Linux x86_64,60,,,,,,,,,,,,,,"[""space"",""space"",""space"",""space"",""space"",""space"",""space"",""space"",""space"",""space"",""space"",""space"",""space"",""space"",""space"",""space"",""space"",""space"",""space"",""space""]","[0.2516849999083206,0.8067549999104813,1.371394999907352,2.105604999931529,2.948949999990873,3.7853949998971075,4.534514999948442,5.2908949999837205,6.0653699999675155,6.844259999925271,7.657414999906905,8.421724999905564,9.234880000003614,9.991594999912195,10.811799999908544,11.595249999896623,12.4139149999246,13.201490000006743,14.006534999934956,14.794914999976754]",space,0.335525,0.0,36.0,36.0,5.0,1.0,,
,,,,,,,,,,,block_2/medium_n_105_2.wav,no,n,medium,105.0,1.832509907,11.95341694,,,,yes,apple airpods,30,no,f,53,R,yes,1,2020-08-09_00h01.21.424,kura-B1,2020.1.2,Linux x86_64,60,,,,,,,,,,,,,,"[""space"",""space"",""space"",""space"",""space"",""space"",""space"",""space"",""space"",""space"",""space"",""space"",""space"",""space"",""space"",""space"",""space"",""space"",""space"",""space""]","[0.24409499997273088,1.0481500000460073,1.6378150000236928,2.173064999980852,2.6149000000441447,3.084815000067465,3.6092700000153854,4.1188250000122935,4.66195500001777,5.168964999960735,5.69769499998074,6.2187449999619275,6.712635000003502,7.189505000016652,7.714975000009872,8.239780000061728,8.757240000064485,9.36171500000637,9.878945000004023,10.404749999986961]",space,0.62121,0.0,37.0,37.0,3.0,1.0,,
,,,,,,,,,,,block_2/strong_n_119_2.wav,no,n,strong,119.0,1.626584736,10.88871625,,,,yes,apple airpods,30,no,f,53,R,yes,1,2020-08-09_00h01.21.424,kura-B1,2020.1.2,Linux x86_64,60,,,,,,,,,,,,,,"[""space"",""space"",""space"",""space"",""space"",""space"",""space"",""space"",""space"",""space"",""space"",""space"",""space"",""space"",""space"",""space"",""space"",""space"",""space"",""space"",""space""]","[0.31132500001695007,0.8286849999567494,1.1872549999970943,1.5833449999336153,2.022649999940768,2.489930000039749,2.9751199999591336,3.436254999949597,3.905505000031553,4.3775799999712035,4.835469999932684,5.363810000009835,5.7979749999940395,6.2916849999455735,6.760089999996126,7.201525000040419,7.674630000023171,8.128094999934547,8.621595000033267,9.090465000015683,9.559320000000298]",space,0.526365,0.0,38.0,38.0,17.0,1.0,,
,,,,,,,,,,,block_2/strong_n_92_2.wav,no,n,strong,92.0,1.994887374,15.49683749,,,,yes,apple airpods,30,no,f,53,R,yes,1,2020-08-09_00h01.21.424,kura-B1,2020.1.2,Linux x86_64,60,,,,,,,,,,,,,,"[""space"",""space"",""space"",""space"",""space"",""space"",""space"",""space"",""space"",""space"",""space"",""space"",""space"",""space"",""space"",""space"",""space"",""space"",""space"",""space"",""space""]","[0.2694699999410659,0.8360600000014529,1.3375199999427423,2.028429999947548,2.7448650000151247,3.429824999999255,4.115129999932833,4.80687999993097,5.492274999967776,6.20168499997817,6.934269999968819,7.6423899999354035,8.321599999908358,9.012434999924153,9.697174999979325,10.42224499990698,11.115004999912344,11.794104999979027,12.483959999983199,13.16934499994386,13.894809999968857]",space,0.669385,0.0,39.0,39.0,39.0,1.0,,
,,,,,,,,,,,,,,,,,,,,,yes,apple airpods,30,no,f,53,R,yes,1,2020-08-09_00h01.21.424,kura-B1,2020.1.2,Linux x86_64,60,,,,,,,,,,,,,,,,,,,,,,,space,6.33278
