key_resp.keys,key_resp.rt,practice_taps.keys,practice_taps.rt,keyresp.keys,keyresp.rt,practice_stims_loop.thisRepN,practice_stims_loop.thisTrialN,practice_stims_loop.thisN,practice_stims_loop.thisIndex,practice_stims_loop.ran,sndfile,type,tempo,cond,version,delay,dur,Participant Initials,"If you are a MTurk worker, what is your MTurk worker ID?'",Are you wearing headphones?,What are the headphone make and model?,"How many years of musical training, if any, do you have?",Do you have any hearing problems? Please describe,What is your sex (f/m/decline)?,What is your age?,What is your handedness (R/L/ambi)?,Are you currently in a secure and quiet room without a possible interruption?,session,date,expName,psychopyVersion,OS,frameRate,instructions_prompt.keys,instructions_prompt.rt,block1_taps.keys,block1_taps.rt,key_resp_2.keys,key_resp_2.rt,trials.thisRepN,trials.thisTrialN,trials.thisN,trials.thisIndex,trials.ran,key_resp2.keys,key_resp2.rt,block2_taps.keys,block2_taps.rt,key_resp_3.keys,key_resp_3.rt,trials_2.thisRepN,trials_2.thisTrialN,trials_2.thisN,trials_2.thisIndex,trials_2.ran,key_resp_4.keys,key_resp_4.rt,"If you are not an MTurk worker, please provide your email address"
space,14.74483,"[""space"",""space"",""space"",""space"",""space"",""space"",""space"",""space"",""space"",""space"",""space"",""space"",""space"",""space"",""space"",""space"",""space"",""space"",""space"",""space""]","[1.1459000001195818,1.5213500000536442,2.06802500016056,2.625260000117123,3.187804999994114,3.798739999998361,4.385725000174716,4.956680000061169,5.559665000066161,6.1735100001096725,6.731830000178888,7.2794850000645965,7.851910000201315,8.42534500011243,9.034480000147596,9.664615000132471,10.265495000174269,10.846830000169575,10.867255000164732,11.39261500001885]",space,2.303295,0.0,0.0,0.0,0.0,1.0,block_1/medium_n_105_3.wav,no,n,medium,105.0,1.683245346,13.36533151,,,no,,none,no,,,,,1,2020-09-16_12h21.37.513,kura-A2,2020.1.2,Win32,60,,,,,,,,,,,,,,,,,,,,,,,,,
,,"[""space"",""space"",""space"",""space"",""space"",""space"",""space"",""space"",""space"",""space"",""space"",""space"",""space"",""space"",""space"",""space"",""space"",""space"",""space"",""space"",""space"",""space"",""space"",""space"",""space"",""space"",""space"",""space"",""space"",""space"",""space"",""space"",""space""]","[0.44773500016890466,0.9708849999587983,1.405765000032261,1.9421550000552088,2.3902800001669675,2.871110000181943,3.3438250001054257,3.813585000112653,3.8347700000740588,4.2947100000455976,4.315780000062659,4.772465000161901,4.793065000092611,5.282425000099465,5.302015000022948,5.778675000183284,5.7995649999938905,6.322129999985918,6.343085000058636,6.825440000044182,6.8481250000186265,7.331540000159293,7.825900000054389,7.849290000041947,8.364234999986365,8.385810000123456,8.914560000179335,8.934665000066161,9.420450000092387,9.44283500011079,9.964120000135154,9.983080000150949,10.43197500007227]",space,1.058865,0.0,1.0,1.0,1.0,1.0,block_2/medium_t_119_4.wav,timbre,t,medium,119.0,2.073396767,11.89421309,,,no,,none,no,,,,,1,2020-09-16_12h21.37.513,kura-A2,2020.1.2,Win32,60,,,,,,,,,,,,,,,,,,,,,,,,,
,,"[""space"",""space"",""space"",""space"",""space"",""space"",""space"",""space"",""space"",""space"",""space"",""space"",""space"",""space"",""space"",""space"",""space"",""space"",""space"",""space"",""space"",""space"",""space"",""space"",""space"",""space"",""space"",""space"",""space""]","[0.42667999980039895,1.0631999999750406,1.5421149998437613,2.025734999915585,2.046519999857992,2.5503000000026077,3.034324999898672,3.0524599999189377,3.584114999976009,3.6049999999813735,4.117164999945089,4.1374849998392165,4.586579999886453,4.607309999875724,5.107420000014827,5.608024999964982,5.629029999952763,6.1535499999299645,6.6324099998455495,6.652920000022277,7.154799999902025,7.622824999969453,8.125309999799356,8.633689999813214,9.105449999915436,9.126539999851957,9.616350000025705,10.15453499997966,10.472374999895692]",space,1.335005,0.0,2.0,2.0,3.0,1.0,block_2/strong_t_119_4.wav,timbre,t,strong,119.0,2.380207574,12.24809873,,,no,,none,no,,,,,1,2020-09-16_12h21.37.513,kura-A2,2020.1.2,Win32,60,,,,,,,,,,,,,,,,,,,,,,,,,
,,"[""space"",""space"",""space"",""space"",""space"",""space"",""space"",""space"",""space"",""space"",""space"",""space"",""space"",""space"",""space"",""space"",""space"",""space"",""space"",""space"",""space"",""space"",""space"",""space"",""space"",""space"",""space""]","[0.31921999994665384,0.7181700000073761,1.314669999992475,2.0199599999468774,2.9383799999486655,2.958600000012666,3.822764999931678,4.763615000061691,4.782589999958873,5.356845000060275,5.379930000053719,6.209324999945238,7.157695000059903,7.9657950000837445,7.986975000007078,8.804759999969974,9.604354999959469,11.384599999990314,12.128909999970347,12.1552349999547,12.961205000057817,12.997849999926984,13.848105000099167,13.878759999992326,14.663799999980256,14.692425000015646,15.49900500010699]",space,4.52926,0.0,3.0,3.0,2.0,1.0,block_1/weak_n_72_4.wav,no,n,weak,72.0,1.922330121,17.89675189,,,no,,none,no,,,,,1,2020-09-16_12h21.37.513,kura-A2,2020.1.2,Win32,60,,,,,,,,,,,,,,,,,,,,,,,,,
,,,,,,,,,,,block_1/none_n_81_4.wav,no,n,none,81.0,2.242955119,22.19488256,,,no,,none,no,,,,,1,2020-09-16_12h21.37.513,kura-A2,2020.1.2,Win32,60,space,7.73418,"[""space"",""space"",""space"",""space"",""space"",""space"",""space"",""space"",""space"",""space"",""space"",""space"",""space"",""space"",""space"",""space"",""space"",""space"",""space"",""space"",""space"",""space"",""space"",""space"",""space"",""space"",""space"",""space"",""space"",""space"",""space"",""space"",""space""]","[0.5439999999944121,1.122254999820143,1.6275149998255074,2.23301999992691,2.884519999846816,3.4825799998361617,4.11559999990277,4.790739999851212,5.4894049998838454,6.0553799998015165,6.705254999920726,7.244944999925792,7.926569999894127,8.676254999823868,9.391719999955967,9.413354999851435,10.085160000016913,10.734704999951646,11.388069999869913,12.105844999896362,12.797314999857917,13.402194999856874,14.045029999921098,14.686310000019148,14.707285000011325,15.345409999834374,16.00588499987498,16.646774999797344,17.288484999909997,17.988639999879524,18.673134999815375,19.387415000004694,20.09825999988243]",space,3.39083,0.0,0.0,0.0,26.0,1.0,,,,,,,,,,,,,,
,,,,,,,,,,,block_1/strong_n_105_3.wav,no,n,strong,105.0,1.156897655,12.38746455,,,no,,none,no,,,,,1,2020-09-16_12h21.37.513,kura-A2,2020.1.2,Win32,60,,,"[""space"",""space"",""space"",""space"",""space"",""space"",""space"",""space"",""space"",""space"",""space"",""space"",""space"",""space"",""space"",""space"",""space"",""space"",""space"",""space"",""space""]","[0.5335649999324232,1.1574799998197705,1.7393099998589605,2.3368499998468906,2.882884999969974,3.4424550000112504,4.036379999946803,4.602274999953806,5.169844999909401,5.744754999876022,6.353074999991804,6.932174999965355,7.489984999876469,8.032114999834448,8.65652499999851,9.21159500000067,9.782524999929592,10.35215499997139,10.9238249999471,10.94469999987632,11.501554999966174]",space,1.22876,0.0,1.0,1.0,9.0,1.0,,,,,,,,,,,,,,
,,,,,,,,,,,block_1/medium_n_92_3.wav,no,n,medium,92.0,1.602440637,13.28810957,,,no,,none,no,,,,,1,2020-09-16_12h21.37.513,kura-A2,2020.1.2,Win32,60,,,"[""space"",""space"",""space"",""space"",""space"",""space"",""space"",""space"",""space"",""space"",""space"",""space"",""space"",""space"",""space"",""space"",""space"",""space"",""space"",""space"",""space"",""space"",""space"",""space""]","[0.3944099999498576,0.9916900000534952,1.6000950001180172,2.159450000151992,2.7563849999569356,3.3742750000674278,3.995210000080988,4.016060000052676,4.562975000124425,5.219180000014603,5.239195000147447,5.783005000092089,6.428899999940768,6.45022500003688,7.083770000142977,7.699345000088215,8.283694999990985,8.869260000064969,9.472190000116825,9.492980000097305,10.068930000066757,10.681959999958053,11.463470000075176,11.496545000001788]",space,0.79328,0.0,2.0,2.0,2.0,1.0,,,,,,,,,,,,,,
,,,,,,,,,,,block_1/weak_n_72_4.wav,no,n,weak,72.0,1.441009476,17.41543124,,,no,,none,no,,,,,1,2020-09-16_12h21.37.513,kura-A2,2020.1.2,Win32,60,,,"[""space"",""space"",""space"",""space"",""space"",""space"",""space"",""space"",""space"",""space"",""space"",""space"",""space"",""space"",""space"",""space"",""space"",""space"",""space"",""space"",""space"",""space"",""space"",""space"",""space"",""space"",""space"",""space"",""space"",""space"",""space"",""space"",""space"",""space"",""space"",""space"",""space"",""space"",""space"",""space"",""space"",""space"",""space"",""space"",""space"",""space""]","[0.4341100000310689,1.1411550000775605,1.8636650000698864,2.884800000116229,2.905585000058636,3.7913200000766665,4.353684999980032,4.374529999913648,4.7397600000258535,5.143085000105202,5.164959999965504,5.531764999963343,5.978714999975637,6.35666500008665,6.7671350000891834,7.1684699999168515,7.600534999975935,7.621460000053048,7.997694999910891,8.39776000007987,8.784549999982119,9.211714999983087,9.60496999998577,10.035494999960065,10.438469999935478,10.816115000052378,11.192705000052229,11.601474999915808,11.622385000111535,11.980495000025257,12.001124999951571,12.450345000019297,12.855935000116006,13.258584999945015,13.639265000121668,14.03425500006415,14.054569999920204,14.442104999907315,14.463105000089854,14.85531000001356,14.876225000014529,15.213190000038594,15.707984999986365,15.729120000032708,16.09451500000432,17.3220100000035]",space,1.12872,0.0,3.0,3.0,4.0,1.0,,,,,,,,,,,,,,
,,,,,,,,,,,block_1/strong_n_72_3.wav,no,n,strong,72.0,2.03136762,17.09667374,,,no,,none,no,,,,,1,2020-09-16_12h21.37.513,kura-A2,2020.1.2,Win32,60,,,"[""space"",""space"",""space"",""space"",""space"",""space"",""space"",""space"",""space"",""space"",""space"",""space"",""space"",""space"",""space"",""space"",""space"",""space"",""space"",""space"",""space"",""space"",""space"",""space"",""space"",""space"",""space"",""space"",""space"",""space"",""space""]","[0.6070000000763685,1.489850000012666,2.2511950000189245,2.271794999949634,3.0997699999716133,3.8067799999844283,3.8266249999869615,4.53802499989979,4.559064999921247,5.261799999978393,5.967160000000149,5.987579999957234,6.716095000039786,6.736520000034943,7.527920000022277,7.549240000080317,8.366119999904186,8.386930000036955,9.170819999882951,9.191515000071377,9.954909999854863,10.746915000025183,11.533964999951422,12.243849999969825,12.266584999859333,13.014685000060126,13.765214999904856,14.597589999902993,14.617020000005141,15.323834999930114,15.346360000083223]",space,2.19066,0.0,4.0,4.0,32.0,1.0,,,,,,,,,,,,,,
,,,,,,,,,,,block_1/weak_n_92_4.wav,no,n,weak,92.0,2.208253857,14.29442166,,,no,,none,no,,,,,1,2020-09-16_12h21.37.513,kura-A2,2020.1.2,Win32,60,,,"[""space"",""space"",""space"",""space"",""space"",""space"",""space"",""space"",""space"",""space"",""space"",""space"",""space"",""space"",""space"",""space"",""space"",""space"",""space"",""space"",""space"",""space""]","[0.5273250001482666,1.4813950001262128,2.073735000099987,2.1013250001706183,2.746240000007674,3.3345600001048297,3.366060000145808,3.918210000032559,4.501930000027642,5.1118100001476705,5.7544150000903755,6.332970000104979,6.944510000059381,7.505240000085905,8.125110000139102,8.736455000005662,9.388830000068992,9.990930000087246,10.551540000131354,10.572145000100136,11.200135000050068,11.802520000142977]",space,1.034785,0.0,5.0,5.0,15.0,1.0,,,,,,,,,,,,,,
,,,,,,,,,,,block_1/none_n_105_3.wav,no,n,none,105.0,2.216733946,14.87818519,,,no,,none,no,,,,,1,2020-09-16_12h21.37.513,kura-A2,2020.1.2,Win32,60,,,"[""space"",""space"",""space"",""space"",""space"",""space"",""space"",""space"",""space"",""space"",""space"",""space"",""space"",""space"",""space"",""space"",""space"",""space"",""space"",""space"",""space"",""space"",""space"",""space"",""space"",""space"",""space"",""space"",""space""]","[0.4208050000015646,1.0590699999593198,1.6828950000926852,2.8247700000647455,3.3703499999828637,3.947609999915585,4.426569999894127,4.932980000041425,5.4245649999938905,5.94952500006184,6.400214999914169,6.941325000021607,7.449264999944717,7.91825499990955,7.939089999999851,8.44090999988839,8.926794999977574,9.422164999879897,9.920399999944493,9.940965000074357,10.447500000009313,10.468279999913648,10.92593999998644,11.500705000013113,11.526784999994561,12.036384999984875,12.529459999874234,12.548889999976382,14.673010000027716]",space,1.12773,0.0,6.0,6.0,6.0,1.0,,,,,,,,,,,,,,
,,,,,,,,,,,block_1/none_n_81_3.wav,no,n,none,81.0,1.098648096,17.74277508,,,no,,none,no,,,,,1,2020-09-16_12h21.37.513,kura-A2,2020.1.2,Win32,60,,,"[""space"",""space"",""space"",""space"",""space"",""space"",""space"",""space"",""space"",""space"",""space"",""space"",""space"",""space"",""space"",""space"",""space"",""space"",""space"",""space"",""space"",""space"",""space"",""space"",""space"",""space"",""space"",""space"",""space"",""space"",""space"",""space"",""space"",""space"",""space"",""space"",""space"",""space"",""space"",""space"",""space"",""space"",""space""]","[0.3352000000886619,0.9455949999392033,1.4924850000534207,1.9687649998813868,1.9894649998750538,2.5374549999833107,3.0703400000929832,3.5759199999738485,4.040569999953732,4.5609999999869615,5.088615000015125,5.109570000087842,5.6150149998720735,5.635609999997541,6.163865000009537,6.631280000088736,7.147660000016913,7.168340000091121,7.632655000081286,7.6571299999486655,8.163100000005215,8.67496500001289,8.696639999980107,9.177009999984875,9.648444999940693,10.141779999947175,10.163234999869019,10.712564999936149,11.27401000005193,11.778875000076368,11.797865000087768,12.307199999922886,12.328639999963343,12.819609999889508,12.84057500003837,13.371159999864176,13.906190000008792,14.45706499996595,14.479069999884814,15.074365000007674,15.599099999992177,16.150119999889284,16.752949999878183]",space,1.57733,0.0,7.0,7.0,29.0,1.0,,,,,,,,,,,,,,
,,,,,,,,,,,block_1/weak_n_72_3.wav,no,n,weak,72.0,1.008682366,16.87657352,,,no,,none,no,,,,,1,2020-09-16_12h21.37.513,kura-A2,2020.1.2,Win32,60,,,"[""space"",""space"",""space"",""space"",""space"",""space"",""space"",""space"",""space"",""space""]","[0.5411249999888241,1.1221449999138713,1.9639500000048429,2.6580100001301616,3.424125000135973,4.162380000110716,4.915365000022575,5.702270000008866,8.077070000115782,10.298445000080392]",space,5.2011,0.0,8.0,8.0,8.0,1.0,,,,,,,,,,,,,,
,,,,,,,,,,,block_1/strong_n_72_4.wav,no,n,strong,72.0,1.599228342,16.96784512,,,no,,none,no,,,,,1,2020-09-16_12h21.37.513,kura-A2,2020.1.2,Win32,60,,,"[""space"",""space"",""space"",""space"",""space"",""space"",""space"",""space"",""space"",""space"",""space"",""space"",""space"",""space"",""space"",""space"",""space"",""space"",""space"",""space"",""space"",""space"",""space"",""space"",""space"",""space"",""space"",""space"",""space""]","[0.7198700001463294,1.3029750001151115,2.243144999956712,2.9802500000223517,3.849129999987781,3.8686750000342727,4.644169999985024,4.666674999985844,5.477420000126585,5.498910000082105,6.298720000078902,6.319045000011101,7.036874999990687,7.057750000152737,7.834425000008196,8.64155500009656,9.430515000130981,9.450889999978244,10.230514999944717,10.251325000077486,11.00164999999106,11.022564999992028,11.780079999938607,12.604629999957979,12.625440000090748,13.413995000068098,14.162430000025779,14.988679999951273,15.73820500005968]",space,3.289745,0.0,9.0,9.0,35.0,1.0,,,,,,,,,,,,,,
,,,,,,,,,,,block_1/medium_n_72_3.wav,no,n,medium,72.0,2.102023577,18.17590113,,,no,,none,no,,,,,1,2020-09-16_12h21.37.513,kura-A2,2020.1.2,Win32,60,,,"[""space"",""space"",""space"",""space"",""space"",""space"",""space"",""space"",""space"",""space"",""space"",""space"",""space"",""space"",""space"",""space"",""space"",""space"",""space"",""space"",""space"",""space"",""space""]","[0.25571499997749925,0.7183000000659376,1.6529899998567998,2.412934999912977,3.170759999891743,3.9825699999928474,4.8423349999357015,5.7231149999424815,5.74386000004597,6.518234999850392,6.538934999844059,7.375049999915063,8.128729999996722,9.02477000001818,9.844324999954551,10.73953999998048,11.522559999953955,12.340014999965206,13.164175000041723,13.957579999929294,14.796485000057146,15.645969999954104,16.451224999967963]",space,0.93421,0.0,10.0,10.0,13.0,1.0,,,,,,,,,,,,,,
,,,,,,,,,,,block_1/weak_n_105_4.wav,no,n,weak,105.0,1.436012468,12.20911904,,,no,,none,no,,,,,1,2020-09-16_12h21.37.513,kura-A2,2020.1.2,Win32,60,,,"[""space"",""space"",""space"",""space"",""space"",""space"",""space"",""space"",""space"",""space"",""space"",""space"",""space"",""space"",""space"",""space"",""space"",""space"",""space"",""space"",""space""]","[0.22548999986611307,0.7118400000035763,1.2850799998268485,1.9338849999476224,2.5211499999277294,3.0745399999432266,3.627779999980703,4.211834999965504,4.777984999818727,5.270129999844357,5.788044999819249,6.3148349998518825,6.82090499997139,7.347970000002533,7.857464999891818,8.400434999959543,8.891575000016019,9.415864999871701,9.964524999959394,10.484149999916553,11.003469999879599]",space,0.65113,0.0,11.0,11.0,28.0,1.0,,,,,,,,,,,,,,
,,,,,,,,,,,block_1/medium_n_81_4.wav,no,n,medium,81.0,1.742854158,16.25138024,,,no,,none,no,,,,,1,2020-09-16_12h21.37.513,kura-A2,2020.1.2,Win32,60,,,"[""space"",""space"",""space"",""space"",""space"",""space"",""space"",""space"",""space"",""space"",""space"",""space"",""space"",""space"",""space"",""space"",""space"",""space"",""space"",""space"",""space"",""space"",""space"",""space"",""space"",""space"",""space"",""space"",""space"",""space""]","[0.2411400000564754,0.7843200000934303,1.5710899999830872,2.3041950000915676,3.061500000068918,3.7633799999020994,4.524045000085607,5.239615000085905,5.260400000028312,6.000100000062957,6.019409999949858,6.754669999936596,7.470585000002757,8.232379999943078,8.944029999896884,8.9646650000941,9.671554999891669,9.69293999997899,10.383295000065118,10.40398499998264,11.086665000068024,11.107199999969453,11.863519999897107,12.60450499993749,12.625225000083447,13.318674999987707,13.339314999990165,14.045750000048429,14.767389999935403,14.788140000076964]",space,0.90445,0.0,12.0,12.0,38.0,1.0,,,,,,,,,,,,,,
,,,,,,,,,,,block_1/none_n_119_3.wav,no,n,none,119.0,1.932281918,14.89500301,,,no,,none,no,,,,,1,2020-09-16_12h21.37.513,kura-A2,2020.1.2,Win32,60,,,"[""space"",""space"",""space"",""space"",""space"",""space"",""space"",""space"",""space"",""space"",""space"",""space"",""space"",""space"",""space"",""space"",""space"",""space"",""space"",""space"",""space"",""space"",""space"",""space"",""space"",""space"",""space"",""space"",""space"",""space"",""space""]","[0.23627999983727932,0.7116449999157339,1.3112349999137223,1.3357799998484552,1.9427749998867512,1.9644349999725819,2.386594999814406,2.817449999973178,3.2734899998176843,3.793119999812916,4.248209999874234,4.6848549998831,5.198469999944791,5.670564999803901,6.146914999932051,6.6545700000133365,7.140649999957532,7.590834999922663,8.00611999980174,8.419104999862611,8.823534999974072,9.211944999871776,9.635624999878928,10.107899999944493,10.529755000025034,10.96775499987416,11.344804999884218,11.71470499993302,12.114575000014156,12.527944999979809,13.02741999994032]",space,1.058925,0.0,13.0,13.0,24.0,1.0,,,,,,,,,,,,,,
,,,,,,,,,,,block_1/weak_n_105_3.wav,no,n,weak,105.0,1.738990723,13.41450093,,,no,,none,no,,,,,1,2020-09-16_12h21.37.513,kura-A2,2020.1.2,Win32,60,,,"[""space"",""space"",""space"",""space"",""space"",""space"",""space"",""space"",""space"",""space"",""space"",""space"",""space"",""space"",""space"",""space"",""space"",""space"",""space"",""space"",""space"",""space"",""space"",""space"",""space""]","[0.30874500004574656,0.8759950001258403,0.898784999968484,1.4459899999201298,1.9453700000885874,2.5883100000210106,3.1285449999850243,3.5770900000352412,3.982619999907911,4.4490750001277775,5.019629999995232,5.543074999935925,6.02394500002265,6.476860000053421,6.890864999964833,7.317620000103489,7.829704999923706,8.365320000099018,8.907275000121444,9.563864999916404,10.134069999912754,10.736569999950007,11.296510000014678,11.878250000067055,11.898760000010952]",space,1.04745,0.0,14.0,14.0,27.0,1.0,,,,,,,,,,,,,,
,,,,,,,,,,,block_1/none_n_72_4.wav,no,n,none,72.0,1.118979514,23.86124709,,,no,,none,no,,,,,1,2020-09-16_12h21.37.513,kura-A2,2020.1.2,Win32,60,,,"[""space"",""space"",""space"",""space"",""space"",""space"",""space"",""space"",""space"",""space"",""space"",""space"",""space"",""space"",""space"",""space"",""space"",""space"",""space"",""space"",""space"",""space"",""space"",""space"",""space"",""space"",""space"",""space"",""space"",""space"",""space"",""space"",""space"",""space"",""space"",""space"",""space"",""space"",""space"",""space"",""space"",""space"",""space"",""space"",""space"",""space"",""space"",""space""]","[0.21085000014863908,0.8170650000683963,1.4924149999860674,2.0622400001157075,2.8178749999497086,3.550400000065565,3.571114999940619,4.148999999975786,4.807220000075176,4.82776500005275,5.4526450000703335,6.115840000100434,6.7483300000894815,7.331550000002608,7.97588500007987,8.631185000063851,9.310100000118837,10.06144000007771,10.097440000157803,10.780585000058636,10.800775000127032,11.563540000002831,12.24182500015013,12.996904999949038,13.017400000011548,13.702655000146478,13.723490000003949,14.329020000062883,14.347315000137314,15.07092500012368,15.091365000000224,15.805900000035763,16.59713999996893,16.617839999962598,17.295150000136346,18.0175749999471,18.03826000005938,18.688439999939874,18.711005000164732,19.47008500015363,19.490710000041872,20.119385000085458,20.811495000030845,21.56099999998696,21.59447000012733,22.313740000128746,22.994570000097156,23.016710000112653]",space,1.205935,0.0,15.0,15.0,21.0,1.0,,,,,,,,,,,,,,
,,,,,,,,,,,block_1/weak_n_119_4.wav,no,n,weak,119.0,2.305568033,13.07926418,,,no,,none,no,,,,,1,2020-09-16_12h21.37.513,kura-A2,2020.1.2,Win32,60,,,"[""space"",""space"",""space"",""space"",""space"",""space"",""space"",""space"",""space"",""space"",""space"",""space"",""space"",""space"",""space"",""space"",""space"",""space"",""space"",""space"",""space"",""space"",""space"",""space"",""space"",""space"",""space"",""space"",""space"",""space"",""space"",""space"",""space"",""space"",""space""]","[0.7573550001252443,0.7779900000896305,1.0916550001129508,1.4584600001107901,1.8214549999684095,2.129160000011325,2.419854999985546,2.730170000111684,3.0185050000436604,3.3408350001554936,3.645754999946803,3.9502100001554936,4.232195000164211,4.556959999958053,4.8990100000519305,5.265720000024885,5.524570000125095,5.876305000158027,6.256535000167787,6.566250000149012,6.869635000126436,7.1606750001665205,7.494274999946356,7.814750000135973,7.835255000041798,8.114190000109375,8.443974999943748,8.747340000001714,9.03366499999538,9.356765000149608,9.692915000021458,10.013440000126138,10.291339999996126,10.604879999998957,10.893415000056848]",space,1.043375,0.0,16.0,16.0,31.0,1.0,,,,,,,,,,,,,,
,,,,,,,,,,,block_1/weak_n_92_3.wav,no,n,weak,92.0,1.887522896,14.6307882,,,no,,none,no,,,,,1,2020-09-16_12h21.37.513,kura-A2,2020.1.2,Win32,60,,,"[""space"",""space"",""space"",""space"",""space"",""space"",""space"",""space"",""space"",""space"",""space"",""space"",""space"",""space"",""space"",""space"",""space"",""space"",""space"",""space"",""space"",""space"",""space"",""space"",""space"",""space"",""space"",""space"",""space"",""space"",""space"",""space""]","[0.236134999897331,0.6110599997919053,1.373759999871254,1.3945700000040233,1.9831599998287857,2.0020500000100583,2.621854999801144,3.300889999838546,3.3206849999260157,3.9607849998865277,3.9825199998449534,4.537194999866188,4.557934999931604,5.207769999979064,5.8232349997852,6.553774999920279,7.18957499996759,7.210519999964163,7.837654999922961,7.858609999995679,8.493349999887869,8.514644999988377,9.198554999893531,9.213709999807179,9.813669999828562,10.458529999945313,10.480429999995977,11.130009999964386,11.719879999989644,12.423764999955893,13.108669999986887,13.130374999949709]",space,0.96813,0.0,17.0,17.0,5.0,1.0,,,,,,,,,,,,,,
,,,,,,,,,,,block_1/strong_n_92_4.wav,no,n,strong,92.0,2.276261723,15.98016195,,,no,,none,no,,,,,1,2020-09-16_12h21.37.513,kura-A2,2020.1.2,Win32,60,,,"[""space"",""space"",""space"",""space"",""space"",""space"",""space"",""space"",""space"",""space"",""space"",""space"",""space"",""space"",""space"",""space"",""space"",""space"",""space"",""space"",""space"",""space"",""space"",""space"",""space"",""space"",""space"",""space"",""space"",""space"",""space""]","[0.8118150001391768,1.3915550000965595,1.9839449999853969,2.0046500000171363,2.7052550001535565,3.45320999994874,3.474225000012666,4.208325000014156,4.88404000014998,5.565170000074431,6.2617000001482666,6.989005000097677,7.009785000002012,7.711145000066608,7.731900000013411,8.409420000156388,9.114555000094697,9.133619999978691,9.816910000052303,9.837910000002012,10.531614999985322,10.552430000156164,11.28429999994114,11.980405000038445,12.000800000037998,12.65229000011459,12.673410000046715,13.374539999989793,13.396115000126883,14.097360000014305,14.122549999970943]",space,0.798065,0.0,18.0,18.0,34.0,1.0,,,,,,,,,,,,,,
,,,,,,,,,,,block_1/none_n_72_3.wav,no,n,none,72.0,1.892162994,23.61892036,,,no,,none,no,,,,,1,2020-09-16_12h21.37.513,kura-A2,2020.1.2,Win32,60,,,"[""space"",""space"",""space"",""space"",""space"",""space"",""space"",""space"",""space"",""space"",""space"",""space"",""space"",""space"",""space"",""space"",""space"",""space"",""space"",""space"",""space"",""space"",""space"",""space"",""space"",""space"",""space"",""space"",""space"",""space"",""space"",""space"",""space"",""space"",""space"",""space"",""space"",""space"",""space"",""space"",""space"",""space"",""space"",""space"",""space""]","[0.21351000014692545,0.2825550001580268,0.8449200000613928,1.2564499999862164,1.772035000147298,2.2924800000619143,2.742195000173524,3.218550000106916,3.6978600001893938,4.247680000029504,4.268170000053942,4.764190000016242,5.338579999981448,5.821274999994785,6.306865000165999,6.754070000024512,7.275940000079572,7.735165000194684,8.308930000057444,8.807849999982864,9.346345000201836,9.829455000115559,10.346110000042245,10.83994000009261,11.2636750000529,11.692945000017062,12.182420000201091,12.678560000145808,13.246415000176057,13.752384999999776,14.26878000004217,14.747540000127628,15.352560000028461,15.88954500015825,16.426990000065416,17.030410000123084,17.594610000029206,18.153360000113025,18.703585000010207,19.23219500016421,19.748105000006035,20.26077500008978,20.792379999998957,21.293030000058934,21.812695000087842]",space,1.954685,0.0,19.0,19.0,18.0,1.0,,,,,,,,,,,,,,
,,,,,,,,,,,block_1/medium_n_105_4.wav,no,n,medium,105.0,1.402482856,15.80924023,,,no,,none,no,,,,,1,2020-09-16_12h21.37.513,kura-A2,2020.1.2,Win32,60,,,"[""space"",""space"",""space"",""space"",""space"",""space"",""space"",""space"",""space"",""space"",""space"",""space"",""space"",""space"",""space"",""space"",""space"",""space"",""space"",""space"",""space"",""space"",""space"",""space"",""space"",""space""]","[0.2129899999126792,0.6354249999858439,1.220519999973476,1.8533799999859184,2.5960399999748915,3.3739999998360872,4.137334999861196,4.744024999905378,5.315925000002608,5.336959999985993,5.953534999862313,6.583145000040531,6.614700000034645,7.4260199998971075,8.233424999983981,8.935524999862537,9.680799999972805,10.41698500001803,11.097330000018701,11.731935000047088,12.59614499984309,12.615489999996498,13.354254999896511,13.375079999910668,14.020795000018552,14.041639999952167]",space,0.917525,0.0,20.0,20.0,12.0,1.0,,,,,,,,,,,,,,
,,,,,,,,,,,block_1/medium_n_105_3.wav,no,n,medium,105.0,2.417465983,14.09955215,,,no,,none,no,,,,,1,2020-09-16_12h21.37.513,kura-A2,2020.1.2,Win32,60,,,"[""space"",""space"",""space"",""space"",""space"",""space"",""space"",""space"",""space"",""space"",""space"",""space"",""space"",""space"",""space"",""space"",""space"",""space"",""space"",""space"",""space"",""space"",""space"",""space""]","[0.5059049997944385,0.8834599999245256,1.468699999852106,2.083824999863282,2.649269999936223,3.202644999837503,3.82585999998264,4.388569999951869,4.989129999885336,5.582389999879524,6.1319149998016655,6.742769999895245,7.301664999919012,7.894254999933764,8.472484999801964,9.083619999932125,9.660794999916106,10.198419999796897,10.219114999985322,10.78730500000529,11.381189999869093,11.40182499983348,12.001674999948591,13.906619999790564]",space,1.155955,0.0,21.0,21.0,0.0,1.0,,,,,,,,,,,,,,
,,,,,,,,,,,block_1/none_n_105_4.wav,no,n,none,105.0,1.493653366,16.97025201,,,no,,none,no,,,,,1,2020-09-16_12h21.37.513,kura-A2,2020.1.2,Win32,60,,,"[""space"",""space"",""space"",""space"",""space"",""space"",""space"",""space"",""space"",""space"",""space"",""space"",""space"",""space"",""space"",""space"",""space"",""space"",""space"",""space"",""space"",""space"",""space"",""space"",""space"",""space"",""space"",""space"",""space"",""space"",""space"",""space"",""space"",""space"",""space"",""space""]","[0.28630499984137714,0.6095099998638034,1.095119999954477,1.4898349998984486,1.9235449999105185,2.3005450000055134,2.7329749998170882,3.09751999983564,3.474289999809116,3.8666899998206645,4.2601899998262525,4.744104999816045,5.176874999888241,5.623344999970868,6.093584999907762,6.522734999889508,6.959459999809042,7.429064999800175,7.8604349999222904,8.273134999908507,8.702859999844804,9.123894999967888,9.593609999865294,10.057049999944866,10.522074999986216,10.980129999807104,11.39388499991037,11.823579999851063,12.28004499990493,12.738944999873638,13.158869999926537,13.563819999806583,14.008894999977201,14.434714999981225,14.90857999981381,15.419094999786466]",space,1.57482,0.0,22.0,22.0,14.0,1.0,,,,,,,,,,,,,,
,,,,,,,,,,,block_1/medium_n_81_3.wav,no,n,medium,81.0,1.199970007,16.72060493,,,no,,none,no,,,,,1,2020-09-16_12h21.37.513,kura-A2,2020.1.2,Win32,60,,,"[""space"",""space"",""space"",""space"",""space"",""space"",""space"",""space"",""space"",""space"",""space"",""space"",""space"",""space"",""space"",""space"",""space"",""space"",""space"",""space"",""space"",""space"",""space"",""space"",""space"",""space"",""space"",""space"",""space"",""space"",""space"",""space"",""space"",""space"",""space"",""space"",""space"",""space"",""space""]","[0.3545750000048429,1.1100449999794364,1.7167249999474734,2.116124999942258,2.647144999820739,3.1219449997879565,3.559944999869913,3.9732949999161065,4.382954999804497,4.784969999920577,5.205674999859184,5.615054999943823,6.011844999855384,6.390509999822825,6.776059999829158,7.168904999969527,7.552099999971688,7.932479999959469,8.306354999775067,8.680444999830797,9.048329999903217,9.440504999831319,9.852694999892265,10.250579999992624,10.675364999799058,11.080139999976382,11.480009999824688,11.871224999893457,12.289404999930412,12.679109999909997,13.08426499995403,13.487809999845922,13.895524999825284,14.251759999897331,14.64638499985449,15.056079999776557,15.468194999964908,15.874079999979585,16.01628499990329]",space,1.03692,0.0,23.0,23.0,33.0,1.0,,,,,,,,,,,,,,
,,,,,,,,,,,block_1/strong_n_92_3.wav,no,n,strong,92.0,1.754608557,14.24499404,,,no,,none,no,,,,,1,2020-09-16_12h21.37.513,kura-A2,2020.1.2,Win32,60,,,"[""space"",""space"",""space"",""space"",""space"",""space"",""space"",""space"",""space"",""space"",""space"",""space"",""space"",""space"",""space"",""space"",""space"",""space"",""space"",""space"",""space""]","[0.30240499996580184,0.6986450001131743,1.507075000088662,2.140825000125915,2.777530000079423,3.3710050000809133,3.99034500005655,4.634899999946356,5.242649999912828,5.853260000003502,6.5031749999616295,7.148849999997765,7.754165000049397,8.414989999961108,9.074204999953508,9.685564999934286,10.358835000079125,10.922275000018999,11.563344999914989,12.212340000085533,12.840649999910966]",space,0.675545,0.0,24.0,24.0,39.0,1.0,,,,,,,,,,,,,,
,,,,,,,,,,,block_1/strong_n_105_4.wav,no,n,strong,105.0,1.30585928,13.14087062,,,no,,none,no,,,,,1,2020-09-16_12h21.37.513,kura-A2,2020.1.2,Win32,60,,,"[""space"",""space"",""space"",""space"",""space"",""space"",""space"",""space"",""space"",""space"",""space"",""space"",""space"",""space"",""space"",""space"",""space"",""space"",""space"",""space"",""space""]","[0.3161199998576194,0.7173799998126924,1.3897700000088662,1.9944549999199808,2.57820999994874,3.198429999873042,3.808509999886155,4.400254999985918,5.002684999955818,5.574209999991581,6.202354999957606,6.8064099999610335,6.827365000033751,7.3906300000380725,7.980784999905154,8.61288999998942,9.187304999912158,9.80066499998793,10.362514999927953,10.995949999894947,11.566349999979138]",space,0.617105,0.0,25.0,25.0,3.0,1.0,,,,,,,,,,,,,,
,,,,,,,,,,,block_1/none_n_92_4.wav,no,n,none,92.0,1.296817987,15.18938035,,,no,,none,no,,,,,1,2020-09-16_12h21.37.513,kura-A2,2020.1.2,Win32,60,,,"[""space"",""space"",""space"",""space"",""space"",""space"",""space"",""space"",""space"",""space"",""space"",""space"",""space"",""space"",""space"",""space"",""space"",""space"",""space"",""space"",""space"",""space"",""space"",""space"",""space"",""space""]","[0.2043550000526011,0.6627400000579655,1.2924699999857694,1.9669650001451373,2.6349349999800324,3.173105000052601,3.7864699999336153,4.16330000013113,4.615849999943748,5.033075000159442,5.479500000132248,6.0445000000763685,6.709980000043288,7.348200000124052,7.9578050000127405,8.497190000023693,9.127305000089109,9.72355500003323,10.229490000056103,10.71436500013806,11.20791000011377,11.720110000111163,12.265524999937043,12.76710500009358,13.30951500008814,13.79325500014238]",space,0.73576,0.0,26.0,26.0,19.0,1.0,,,,,,,,,,,,,,
,,,,,,,,,,,block_1/strong_n_81_3.wav,no,n,strong,81.0,1.6043637,15.60930701,,,no,,none,no,,,,,1,2020-09-16_12h21.37.513,kura-A2,2020.1.2,Win32,60,,,"[""space"",""space"",""space"",""space"",""space"",""space"",""space"",""space"",""space"",""space"",""space"",""space"",""space"",""space"",""space"",""space"",""space"",""space"",""space"",""space""]","[0.6105899999383837,1.5333349998109043,2.2099249998573214,2.9593849999364465,3.6802399998996407,4.415464999852702,5.098659999901429,5.806914999848232,6.478780000004917,7.221229999791831,7.928959999931976,8.63242999999784,9.378554999828339,10.102489999961108,10.817409999901429,11.504465000005439,12.196174999931827,12.899384999880567,13.630049999803305,14.389999999897555]",space,1.155155,0.0,27.0,27.0,10.0,1.0,,,,,,,,,,,,,,
,,,,,,,,,,,block_1/medium_n_72_4.wav,no,n,medium,72.0,1.204769933,15.71334136,,,no,,none,no,,,,,1,2020-09-16_12h21.37.513,kura-A2,2020.1.2,Win32,60,,,"[""space"",""space"",""space"",""space"",""space"",""space"",""space"",""space"",""space"",""space"",""space"",""space"",""space"",""space"",""space"",""space"",""space"",""space"",""space"",""space"",""space"",""space""]","[0.19983000005595386,0.6269400001037866,1.5161000001244247,2.2328000001143664,2.2535000001080334,3.0070800001267344,3.6781349999364465,4.4425699999555945,5.210775000043213,5.9441700000315905,6.689049999928102,7.431695000035688,8.145045000128448,8.874335000058636,9.600379999959841,10.318244999973103,11.096515000099316,11.883570000063628,12.531690000090748,13.2965550001245,13.999479999998584,14.747995000099763]",space,0.18349,0.0,28.0,28.0,7.0,1.0,,,,,,,,,,,,,,
,,,,,,,,,,,block_1/strong_n_81_4.wav,no,n,strong,81.0,1.727706814,17.69954355,,,no,,none,no,,,,,1,2020-09-16_12h21.37.513,kura-A2,2020.1.2,Win32,60,,,"[""space"",""space"",""space"",""space"",""space"",""space"",""space"",""space"",""space"",""space"",""space"",""space"",""space"",""space"",""space"",""space"",""space"",""space"",""space"",""space"",""space""]","[0.4352400000207126,0.8668700000271201,1.762214999878779,2.586989999981597,3.36758999992162,4.16645499994047,5.002909999806434,5.852375000016764,6.604084999999031,7.427024999866262,8.260399999795482,8.965989999938756,9.819979999912903,10.663514999905601,11.46089500002563,12.287574999965727,13.068304999964312,13.91266499995254,14.705089999828488,15.550739999860525,16.386255000019446]",space,3.31214,0.0,29.0,29.0,1.0,1.0,,,,,,,,,,,,,,
,,,,,,,,,,,block_1/strong_n_119_4.wav,no,n,strong,119.0,1.980480326,12.048825,,,no,,none,no,,,,,1,2020-09-16_12h21.37.513,kura-A2,2020.1.2,Win32,60,,,"[""space"",""space"",""space"",""space"",""space"",""space"",""space"",""space"",""space"",""space"",""space"",""space"",""space"",""space"",""space"",""space"",""space"",""space"",""space"",""space"",""space""]","[0.3716900001745671,0.8738850001245737,1.2264849999919534,1.7219500001519918,2.250715000089258,2.753950000042096,3.2279050000943244,3.7281650002114475,4.24945000000298,4.79878000007011,5.293710000114515,5.792520000133663,6.2996150001417845,6.783235000213608,7.291315000038594,7.816185000119731,8.29317000019364,8.7825600001961,9.304205000167713,9.807625000132248,10.32704500015825]",space,2.050915,0.0,30.0,30.0,23.0,1.0,,,,,,,,,,,,,,
,,,,,,,,,,,block_1/weak_n_81_3.wav,no,n,weak,81.0,1.412334255,16.47029344,,,no,,none,no,,,,,1,2020-09-16_12h21.37.513,kura-A2,2020.1.2,Win32,60,,,"[""space"",""space"",""space"",""space"",""space"",""space"",""space"",""space"",""space"",""space"",""space"",""space"",""space"",""space"",""space"",""space"",""space"",""space"",""space"",""space"",""space"",""space"",""space"",""space"",""space"",""space"",""space"",""space"",""space"",""space"",""space"",""space""]","[0.22280999994836748,0.7842299998737872,1.3016200000420213,1.7583449999801815,2.217814999865368,2.7348449998535216,3.2189249999355525,3.7445199999492615,4.250434999819845,4.728714999975637,5.216439999872819,5.727835000026971,6.201274999883026,6.7400249999482185,7.244109999854118,7.710104999830946,8.187685000011697,8.69120500003919,9.140894999960437,9.640724999830127,10.091139999916777,10.573734999867156,11.074784999946132,11.553605000022799,12.030180000001565,12.517555000027642,12.994779999833554,13.487579999957234,13.921184999868274,14.403119999915361,14.888414999935776,15.336834999965504]",space,1.565995,0.0,31.0,31.0,30.0,1.0,,,,,,,,,,,,,,
,,,,,,,,,,,block_1/weak_n_81_4.wav,no,n,weak,81.0,2.484743178,17.5438815,,,no,,none,no,,,,,1,2020-09-16_12h21.37.513,kura-A2,2020.1.2,Win32,60,,,"[""space"",""space"",""space"",""space"",""space"",""space"",""space"",""space"",""space"",""space"",""space"",""space"",""space"",""space"",""space"",""space"",""space"",""space"",""space"",""space"",""space"",""space"",""space"",""space"",""space"",""space"",""space"",""space"",""space"",""space"",""space"",""space"",""space"",""space"",""space"",""space"",""space""]","[0.4980750000104308,1.0683899999130517,1.8736399998888373,2.6439249999821186,3.4608399998396635,3.9162800000049174,3.9362749999854714,4.30383999994956,4.656489999964833,5.026394999818876,5.408824999816716,5.787049999926239,6.199395000003278,6.585834999801591,7.03821499994956,7.425889999838546,7.856824999907985,8.237154999980703,8.577769999857992,8.977674999972805,9.363784999819472,9.725024999817833,10.108269999967888,10.50493499985896,10.88698499999009,11.270459999796003,11.630939999828115,12.009899999946356,12.349114999873564,12.737005000002682,13.114300000015646,13.496604999992996,13.872814999893308,14.235905000008643,14.605549999978393,15.004794999957085,15.379979999968782]",space,0.981225,0.0,32.0,32.0,36.0,1.0,,,,,,,,,,,,,,
,,,,,,,,,,,block_1/medium_n_92_4.wav,no,n,medium,92.0,1.438882438,14.02917722,,,no,,none,no,,,,,1,2020-09-16_12h21.37.513,kura-A2,2020.1.2,Win32,60,,,"[""space"",""space"",""space"",""space"",""space"",""space"",""space"",""space"",""space"",""space"",""space"",""space"",""space"",""space"",""space"",""space"",""space"",""space"",""space"",""space"",""space""]","[0.4556700000539422,1.0229299999773502,1.549434999935329,2.195145000005141,2.7995500001125038,3.4038650000002235,4.05003000004217,4.715109999990091,5.364335000049323,6.0023499999661,6.59862000006251,7.244034999981523,7.866039999993518,8.473209999967366,9.139725000131875,9.791225000051782,10.4059300001245,10.997914999956265,11.628525000065565,12.26878000004217,12.906829999992624]",space,1.531845,0.0,33.0,33.0,11.0,1.0,,,,,,,,,,,,,,
,,,,,,,,,,,block_1/none_n_92_3.wav,no,n,none,92.0,2.336707073,18.23675242,,,no,,none,no,,,,,1,2020-09-16_12h21.37.513,kura-A2,2020.1.2,Win32,60,,,"[""space"",""space"",""space"",""space"",""space"",""space"",""space"",""space"",""space"",""space"",""space"",""space"",""space"",""space"",""space"",""space"",""space"",""space"",""space"",""space"",""space"",""space""]","[0.5073599999304861,1.0279399999417365,1.5278199999593198,2.1011799999978393,2.688194999936968,3.3062849999405444,4.045360000105575,4.61985499993898,5.140270000090823,5.672289999900386,6.2086050000507385,6.746444999938831,7.2665899998974055,7.779455000068992,8.310714999912307,8.831865000072867,9.33339500008151,9.889900000067428,10.38259999989532,10.948629999998957,11.50609999988228,12.03872499987483]",space,1.55022,0.0,34.0,34.0,25.0,1.0,,,,,,,,,,,,,,
,,,,,,,,,,,block_1/medium_n_119_3.wav,no,n,medium,119.0,1.238363393,11.09976929,,,no,,none,no,,,,,1,2020-09-16_12h21.37.513,kura-A2,2020.1.2,Win32,60,,,"[""space"",""space"",""space"",""space"",""space"",""space"",""space"",""space"",""space"",""space"",""space"",""space"",""space"",""space"",""space"",""space"",""space"",""space"",""space"",""space"",""space"",""space""]","[0.3016800000332296,0.7197050000540912,1.2451850001234561,1.8642450000625104,2.361415000166744,2.877925000153482,3.3892600000835955,3.821480000158772,4.249580000061542,4.717715000035241,5.162860000040382,5.686680000042543,6.19990500016138,6.703890000004321,7.1525900000706315,7.621435000095516,8.126725000096485,8.637435000156984,8.65813500015065,9.139985000016168,9.587215000065044,10.05801000003703]",space,1.158785,0.0,35.0,35.0,22.0,1.0,,,,,,,,,,,,,,
,,,,,,,,,,,block_1/medium_n_119_4.wav,no,n,medium,119.0,1.261396351,9.568471181,,,no,,none,no,,,,,1,2020-09-16_12h21.37.513,kura-A2,2020.1.2,Win32,60,,,"[""space"",""space"",""space"",""space"",""space"",""space"",""space"",""space"",""space"",""space"",""space"",""space"",""space"",""space"",""space"",""space"",""space"",""space"",""space"",""space""]","[0.43647499987855554,0.8278899998404086,1.175054999999702,1.5728649999946356,1.9665599998552352,2.35810499987565,2.8046599999070168,3.1694199999328703,3.586034999927506,4.032194999977946,4.461119999876246,4.948719999985769,5.39629999990575,5.854954999871552,6.3046849998645484,6.767729999963194,7.220809999853373,7.6920449999161065,8.134029999841005,8.519994999980554]",space,0.56578,0.0,36.0,36.0,17.0,1.0,,,,,,,,,,,,,,
,,,,,,,,,,,block_1/none_n_119_4.wav,no,n,none,119.0,2.009432028,15.37111003,,,no,,none,no,,,,,1,2020-09-16_12h21.37.513,kura-A2,2020.1.2,Win32,60,,,"[""space"",""space"",""space"",""space"",""space"",""space"",""space"",""space"",""space"",""space"",""space"",""space"",""space"",""space"",""space"",""space"",""space"",""space"",""space"",""space"",""space"",""space"",""space"",""space"",""space"",""space"",""space"",""space"",""space"",""space""]","[0.21207500016316772,0.6810100001748651,1.1126200000289828,1.629640000173822,2.2392750000581145,2.6574750000145286,3.202745000133291,3.752515000058338,4.215515000047162,4.737205000128597,5.259955000132322,5.768055000109598,6.270100000081584,6.782005000161007,7.192130000097677,7.671490000095218,8.119700000155717,8.552360000088811,9.030855000019073,9.430900000035763,9.865290000103414,10.314040000084788,10.7206999999471,11.142029999988154,11.550820000004023,11.918844999978319,12.314900000113994,12.775185000151396,13.201744999969378,13.620875000022352]",space,0.708855,0.0,37.0,37.0,20.0,1.0,,,,,,,,,,,,,,
,,,,,,,,,,,block_1/weak_n_119_3.wav,no,n,weak,119.0,2.459758036,10.81612992,,,no,,none,no,,,,,1,2020-09-16_12h21.37.513,kura-A2,2020.1.2,Win32,60,,,"[""space"",""space"",""space"",""space"",""space"",""space"",""space"",""space"",""space"",""space"",""space"",""space"",""space"",""space"",""space"",""space"",""space"",""space"",""space"",""space"",""space""]","[0.4365550000220537,1.1279700000304729,1.6454000000376254,1.6664150001015514,2.0705099999904633,2.5619500000029802,2.5829549999907613,2.923725000116974,3.403704999946058,3.812360000098124,4.2376850000582635,4.6399250000249594,5.0876150000840425,5.525730000110343,5.974210000131279,6.375059999991208,6.782610000111163,7.198515000054613,7.657984999939799,8.123930000001565,8.589660000056028]",space,1.605835,0.0,38.0,38.0,37.0,1.0,,,,,,,,,,,,,,
,,,,,,,,,,,block_1/strong_n_119_3.wav,no,n,strong,119.0,1.213627968,10.9792062,,,no,,none,no,,,,,1,2020-09-16_12h21.37.513,kura-A2,2020.1.2,Win32,60,,,"[""space"",""space"",""space"",""space"",""space"",""space"",""space"",""space"",""space"",""space"",""space"",""space"",""space"",""space"",""space"",""space"",""space"",""space"",""space"",""space"",""space""]","[0.2372550000436604,0.7032300001010299,1.2541849999688566,1.7271249999757856,2.2194400001317263,2.693330000154674,3.2035950000863522,3.663105000043288,4.183785000117496,4.64234000002034,5.149555000010878,5.621715000132099,6.087925000116229,6.623430000152439,7.167155000148341,7.614545000018552,8.100400000112131,8.588974999962375,9.05879499996081,9.568230000091717,10.074660000158474]",space,0.911525,0.0,39.0,39.0,16.0,1.0,,,,,,,,,,,,,,
,,,,,,,,,,,block_2/strong_t_105_3.wav,timbre,t,strong,105.0,1.973938856,13.50654657,,,no,,none,no,,,,,1,2020-09-16_12h21.37.513,kura-A2,2020.1.2,Win32,60,,,,,,,,,,,,space,69.474915,"[""space"",""space"",""space"",""space"",""space"",""space"",""space"",""space"",""space"",""space"",""space"",""space"",""space"",""space"",""space"",""space"",""space"",""space"",""space"",""space"",""space"",""space"",""space"",""space"",""space"",""space"",""space""]","[0.8621600000187755,1.3331699999980628,1.9299149999860674,2.5010150000452995,3.082345000002533,3.6711349999532104,4.271290000062436,4.887864999938756,5.44969499995932,6.000779999885708,6.622689999872819,6.643434999976307,7.140575000084937,7.748189999954775,8.34340999997221,8.36405500001274,8.937699999893084,8.958385000005364,9.526474999962375,9.547409999882802,10.096769999945536,10.11813999991864,10.740244999993593,11.28502000006847,11.305549999931827,11.924080000026152,11.946345000062138]",space,2.472055,0.0,0.0,0.0,21.0,1.0,,,
,,,,,,,,,,,block_2/medium_t_92_3.wav,timbre,t,medium,92.0,1.388240232,13.37372776,,,no,,none,no,,,,,1,2020-09-16_12h21.37.513,kura-A2,2020.1.2,Win32,60,,,,,,,,,,,,,,"[""space"",""space"",""space"",""space"",""space"",""space"",""space"",""space"",""space"",""space"",""space"",""space"",""space"",""space"",""space"",""space"",""space"",""space"",""space"",""space"",""space"",""space"",""space"",""space"",""space"",""space"",""space""]","[0.483669999986887,0.8381499999668449,1.3837150000035763,2.002790000056848,2.596350000007078,3.2122199998702854,3.884709999896586,4.44328000000678,4.467135000042617,5.033460000064224,5.623625000007451,6.265149999875575,6.855509999906644,6.918464999878779,7.4369250000454485,7.46576499985531,7.992369999876246,8.590349999954924,9.231529999990016,9.858449999941513,9.880434999940917,10.419729999965057,11.037609999999404,11.624559999909252,11.646769999992102,12.254100000020117,12.279919999884441]",space,1.22344,0.0,1.0,1.0,35.0,1.0,,,
,,,,,,,,,,,block_2/medium_t_72_4.wav,timbre,t,medium,72.0,1.912133969,19.94959429,,,no,,none,no,,,,,1,2020-09-16_12h21.37.513,kura-A2,2020.1.2,Win32,60,,,,,,,,,,,,,,"[""space"",""space"",""space"",""space"",""space"",""space"",""space"",""space"",""space"",""space"",""space"",""space"",""space"",""space"",""space"",""space"",""space"",""space"",""space"",""space"",""space"",""space"",""space"",""space"",""space"",""space"",""space"",""space"",""space"",""space"",""space"",""space"",""space"",""space"",""space"",""space"",""space"",""space"",""space""]","[0.22705499990843236,0.9008299999404699,2.030809999909252,2.812129999976605,3.6247549999970943,4.0755099998787045,4.632424999959767,5.082674999954179,5.538889999967068,5.991649999981746,6.439234999939799,6.885589999845251,7.320324999978766,7.7620849998202175,8.200624999823049,8.627424999838695,9.09205499989912,9.536719999974594,9.977689999854192,10.400380000006407,10.84317999985069,11.281719999853522,11.729554999852553,12.163179999915883,12.643914999905974,13.096314999973401,13.518274999922141,13.941454999847338,14.409889999777079,14.430729999905452,14.839889999944717,15.311974999960512,15.762869999976829,16.206419999944046,16.670679999981076,17.07109499978833,17.50003999983892,17.956039999844506,18.384044999955222]",space,1.09636,0.0,2.0,2.0,36.0,1.0,,,
,,,,,,,,,,,block_2/medium_t_119_3.wav,timbre,t,medium,119.0,1.894752713,10.65330147,,,no,,none,no,,,,,1,2020-09-16_12h21.37.513,kura-A2,2020.1.2,Win32,60,,,,,,,,,,,,,,"[""space"",""space"",""space"",""space"",""space"",""space"",""space"",""space"",""space"",""space"",""space"",""space"",""space"",""space"",""space"",""space"",""space"",""space"",""space"",""space"",""space"",""space"",""space"",""space"",""space""]","[0.5169650001917034,0.967780000064522,1.3775750000495464,1.8277950000483543,2.259600000223145,2.725275000091642,3.1740149999968708,3.6180950000416487,4.07524500018917,4.519730000058189,4.966670000227168,4.987175000132993,5.374790000030771,5.395315000088885,5.8041150001809,5.829875000054017,6.282115000067279,6.302185000153258,6.752260000212118,6.773054999997839,7.2147400001995265,7.66222000005655,8.120010000187904,8.581395000219345,9.023780000163242]",space,0.820025,0.0,3.0,3.0,37.0,1.0,,,
,,,,,,,,,,,block_2/medium_t_81_3.wav,timbre,t,medium,81.0,1.280563259,13.87394194,,,no,,none,no,,,,,1,2020-09-16_12h21.37.513,kura-A2,2020.1.2,Win32,60,,,,,,,,,,,,,,"[""space"",""space"",""space"",""space"",""space"",""space"",""space"",""space"",""space"",""space"",""space"",""space"",""space"",""space"",""space"",""space"",""space"",""space"",""space"",""space"",""space"",""space"",""space"",""space"",""space"",""space"",""space"",""space"",""space"",""space"",""space"",""space"",""space"",""space"",""space""]","[0.22661000001244247,0.5556699999142438,1.061479999916628,1.5599950000178069,2.1347349998541176,2.5442599998787045,3.0632149998564273,3.711559999966994,4.522809999994934,4.933059999952093,5.309295000042766,5.633559999987483,5.970754999900237,6.306050000013784,6.65586999990046,7.001394999912009,7.3231299999170005,7.652824999997392,7.95691499998793,8.264484999934211,8.587000000057742,8.926509999902919,9.253844999941066,9.572609999915585,9.910944999894127,10.223879999946803,10.516730000032112,10.846919999923557,11.14473499986343,11.454789999872446,11.736885000020266,12.029575000051409,12.348359999945387,12.638705000048503,12.967554999981076]",space,1.486655,0.0,4.0,4.0,8.0,1.0,,,
,,,,,,,,,,,block_2/weak_t_81_4.wav,timbre,t,weak,81.0,1.138387897,14.33417021,,,no,,none,no,,,,,1,2020-09-16_12h21.37.513,kura-A2,2020.1.2,Win32,60,,,,,,,,,,,,,,"[""space"",""space"",""space"",""space"",""space"",""space"",""space"",""space"",""space"",""space"",""space"",""space"",""space"",""space"",""space"",""space"",""space"",""space"",""space"",""space"",""space""]","[0.23857500008307397,0.8436799999326468,1.5679099999833852,2.2065300000831485,2.861130000092089,3.4963199999183416,4.128909999970347,4.811824999982491,5.492450000019744,6.13465499994345,6.7602399999741465,7.418689999962226,8.084685000125319,8.77250500000082,9.43106499989517,10.066124999895692,10.751105000032112,11.416110000107437,12.09324000007473,12.766550000058487,13.473585000028834]",space,1.2849,0.0,5.0,5.0,0.0,1.0,,,
,,,,,,,,,,,block_2/none_t_105_3.wav,timbre,t,none,105.0,1.906849656,15.72757528,,,no,,none,no,,,,,1,2020-09-16_12h21.37.513,kura-A2,2020.1.2,Win32,60,,,,,,,,,,,,,,"[""space"",""space"",""space"",""space"",""space"",""space"",""space"",""space"",""space"",""space"",""space"",""space"",""space"",""space"",""space"",""space"",""space"",""space"",""space"",""space"",""space"",""space"",""space"",""space"",""space"",""space""]","[0.20611999998800457,0.6614050001371652,1.4468050000723451,2.151255000149831,2.768404999980703,3.455000000074506,4.0211050000507385,4.545135000022128,5.033735000062734,5.50389500008896,6.0425950000062585,6.624880000017583,7.116830000188202,7.605519999982789,8.07084000017494,8.575124999973923,9.061585000017658,9.535085000097752,10.024455000180751,10.534500000067055,11.035135000012815,11.563235000008717,12.097525000106543,12.666840000078082,13.25650000013411,13.856890000170097]",space,0.95209,0.0,6.0,6.0,14.0,1.0,,,
,,,,,,,,,,,block_2/none_t_72_3.wav,timbre,t,none,72.0,1.763210745,21.95785927,,,no,,none,no,,,,,1,2020-09-16_12h21.37.513,kura-A2,2020.1.2,Win32,60,,,,,,,,,,,,,,"[""space"",""space"",""space"",""space"",""space"",""space"",""space"",""space"",""space"",""space"",""space"",""space"",""space"",""space"",""space"",""space"",""space"",""space"",""space"",""space"",""space"",""space"",""space"",""space"",""space"",""space"",""space"",""space"",""space"",""space"",""space"",""space"",""space"",""space"",""space"",""space"",""space"",""space"",""space"",""space"",""space"",""space""]","[0.5171749999281019,1.136594999814406,1.5186449999455363,1.9971549999900162,2.4847749997861683,2.9886249999981374,3.4256899999454618,3.8959449999965727,4.334114999976009,4.825219999998808,5.2730749999172986,5.7019649997819215,6.226909999968484,6.754884999943897,7.326774999964982,7.83919999981299,8.300004999851808,8.7746249998454,9.274914999958128,9.76515999995172,10.239229999948293,10.719329999992624,11.191954999929294,11.610409999964759,12.123214999912307,12.589884999906644,13.146164999809116,13.67409999994561,14.149319999851286,14.622340000001714,15.129009999800473,15.606239999877289,16.09171499987133,16.596434999955818,17.097699999809265,17.58957999991253,18.026079999981448,18.47139499988407,18.948919999878854,19.366599999833852,19.840480000013486,20.269594999961555]",space,1.078735,0.0,7.0,7.0,19.0,1.0,,,
,,,,,,,,,,,block_2/medium_t_119_4.wav,timbre,t,medium,119.0,2.1713947,11.99221103,,,no,,none,no,,,,,1,2020-09-16_12h21.37.513,kura-A2,2020.1.2,Win32,60,,,,,,,,,,,,,,"[""space"",""space"",""space"",""space"",""space"",""space"",""space"",""space"",""space"",""space"",""space"",""space"",""space"",""space"",""space"",""space"",""space"",""space"",""space"",""space"",""space"",""space""]","[0.20418499992229044,0.5698499998543411,1.0395100000314415,1.4727799999527633,1.906650000018999,2.400439999997616,2.9156499998643994,3.3711399999447167,3.857395000057295,4.346004999941215,4.82685499987565,5.310164999915287,5.8271949999034405,6.358694999944419,6.8861249999608845,6.906870000064373,7.375114999944344,7.871709999861196,8.413979999953881,8.94776999996975,9.47084499988705,10.009704999858513]",space,0.50453,0.0,8.0,8.0,30.0,1.0,,,
,,,,,,,,,,,block_2/medium_t_81_4.wav,timbre,t,medium,81.0,2.313262111,15.10881767,,,no,,none,no,,,,,1,2020-09-16_12h21.37.513,kura-A2,2020.1.2,Win32,60,,,,,,,,,,,,,,"[""space"",""space"",""space"",""space"",""space"",""space"",""space"",""space"",""space"",""space"",""space"",""space"",""space"",""space"",""space"",""space"",""space"",""space"",""space"",""space"",""space"",""space"",""space"",""space""]","[0.3430200000293553,0.6191650000400841,1.1234750000294298,1.7294650000985712,2.502840000204742,3.204060000134632,3.8208300000987947,4.451330000068992,5.115585000021383,5.7604700000956655,6.4164050000254065,7.089894999982789,7.798829999985173,7.81938000000082,8.489580000052229,9.149345000041649,9.800640000030398,9.821740000043064,10.450535000069067,11.089985000202432,11.70663999998942,12.35759500018321,12.379385000094771,13.046235000016168]",space,0.65924,0.0,9.0,9.0,2.0,1.0,,,
,,,,,,,,,,,block_2/weak_t_119_4.wav,timbre,t,weak,119.0,2.497661912,13.1066415,,,no,,none,no,,,,,1,2020-09-16_12h21.37.513,kura-A2,2020.1.2,Win32,60,,,,,,,,,,,,,,"[""space"",""space"",""space"",""space"",""space"",""space"",""space"",""space"",""space"",""space"",""space"",""space"",""space"",""space"",""space"",""space"",""space"",""space"",""space"",""space"",""space"",""space"",""space"",""space"",""space"",""space""]","[0.32665999978780746,0.3473849999718368,0.6248299998696893,1.035179999889806,1.5119149999227375,2.011014999821782,2.5042949998751283,2.9918699997942895,3.463679999811575,3.940279999980703,4.407594999996945,4.87165499990806,5.3351349998265505,5.7791299999225885,5.799624999985099,6.215169999981299,6.68169999984093,7.187784999841824,7.683319999836385,8.195665000006557,8.672949999803677,9.090484999818727,9.506594999926165,9.94723999989219,10.39144999999553,10.870054999832064]",space,0.71939,0.0,10.0,10.0,11.0,1.0,,,
,,,,,,,,,,,block_2/weak_t_119_3.wav,timbre,t,weak,119.0,2.134308914,11.54587354,,,no,,none,no,,,,,1,2020-09-16_12h21.37.513,kura-A2,2020.1.2,Win32,60,,,,,,,,,,,,,,"[""space"",""space"",""space"",""space"",""space"",""space"",""space"",""space"",""space"",""space"",""space"",""space"",""space"",""space"",""space"",""space"",""space"",""space"",""space"",""space""]","[0.19097000011242926,0.5667950001079589,1.2284349999390543,1.7726849999744445,2.292094999924302,2.807560000102967,3.2720449999906123,3.753800000064075,4.319734999909997,4.804874999914318,5.354109999956563,5.785304999910295,6.240920000011101,6.686920000007376,7.174189999932423,7.651925000129268,8.131150000030175,8.6349100000225,9.13098999997601,9.615080000134185]",space,1.067495,0.0,11.0,11.0,13.0,1.0,,,
,,,,,,,,,,,block_2/weak_t_81_3.wav,timbre,t,weak,81.0,1.745235196,18.01484971,,,no,,none,no,,,,,1,2020-09-16_12h21.37.513,kura-A2,2020.1.2,Win32,60,,,,,,,,,,,,,,"[""space"",""space"",""space"",""space"",""space"",""space"",""space"",""space"",""space"",""space"",""space"",""space"",""space"",""space"",""space"",""space"",""space"",""space"",""space"",""space"",""space"",""space"",""space"",""space"",""space"",""space"",""space"",""space"",""space"",""space"",""space"",""space"",""space""]","[0.2139000000897795,0.5951900000218302,1.0735500000882894,1.7362250001169741,2.4264599999878556,2.8163149999454618,3.34195000003092,3.819870000006631,4.350000000093132,4.862609999952838,5.328745000064373,5.883360000094399,6.445985000114888,6.922090000007302,7.4314600001089275,7.96949000004679,8.509915000060573,9.052870000014082,9.514789999928325,10.006229999940842,10.551454999949783,11.064335000002757,11.57325499993749,12.17515500006266,12.700279999990016,12.720625000074506,13.202879999997094,13.799905000021681,14.28649999992922,14.816474999999627,15.301990000065416,15.679405000060797,16.11312499991618]",space,0.536255,0.0,12.0,12.0,6.0,1.0,,,
,,,,,,,,,,,block_2/strong_t_105_4.wav,timbre,t,strong,105.0,1.910106179,12.02788396,,,no,,none,no,,,,,1,2020-09-16_12h21.37.513,kura-A2,2020.1.2,Win32,60,,,,,,,,,,,,,,"[""space"",""space"",""space"",""space"",""space"",""space"",""space"",""space"",""space"",""space"",""space"",""space"",""space"",""space"",""space"",""space"",""space"",""space"",""space"",""space"",""space""]","[0.503315000096336,0.9781649999786168,1.399860000004992,1.8600600000936538,2.3831100000534207,2.875664999941364,3.3626749999821186,3.856360000092536,4.352590000024065,4.895215000025928,5.400369999930263,5.9115649999585,6.39170500007458,6.887474999995902,7.372655000071973,7.889944999944419,8.374254999915138,8.885045000119135,9.374705000082031,9.899140000110492,10.371310000075027]",space,0.841775,0.0,13.0,13.0,18.0,1.0,,,
,,,,,,,,,,,block_2/none_t_81_3.wav,timbre,t,none,81.0,2.3234515,21.58667145,,,no,,none,no,,,,,1,2020-09-16_12h21.37.513,kura-A2,2020.1.2,Win32,60,,,,,,,,,,,,,,"[""space"",""space"",""space"",""space"",""space"",""space"",""space"",""space"",""space"",""space"",""space"",""space"",""space"",""space"",""space"",""space"",""space"",""space"",""space"",""space"",""space"",""space"",""space"",""space"",""space"",""space"",""space"",""space"",""space"",""space"",""space"",""space"",""space"",""space"",""space"",""space"",""space"",""space"",""space"",""space""]","[0.22188999992795289,0.5830099999438971,1.239975000033155,1.8016150000039488,2.163124999962747,2.5274249999783933,3.1070199999958277,3.517204999923706,4.176590000046417,4.650334999896586,5.119049999862909,5.655104999896139,6.17124000005424,6.636064999969676,7.141079999972135,7.627674999879673,8.175314999883994,8.660135000012815,9.146549999946728,9.631619999883696,10.179254999849945,10.696894999826327,11.158550000051036,11.638779999921098,12.070474999956787,12.541664999909699,13.001500000013039,13.478929999982938,13.962599999969825,14.392174999928102,14.82899499987252,15.36714500002563,15.846274999901652,16.403459999943152,16.977859999984503,17.466585000045598,17.962264999980107,18.515905000036582,18.963504999876022,19.406414999859408]",space,0.794955,0.0,14.0,14.0,10.0,1.0,,,
,,,,,,,,,,,block_2/medium_t_105_3.wav,timbre,t,medium,105.0,1.319167427,12.09599282,,,no,,none,no,,,,,1,2020-09-16_12h21.37.513,kura-A2,2020.1.2,Win32,60,,,,,,,,,,,,,,"[""space"",""space"",""space"",""space"",""space"",""space"",""space"",""space"",""space"",""space"",""space"",""space"",""space"",""space"",""space"",""space"",""space"",""space"",""space""]","[0.4670400000177324,1.095644999993965,1.6431499999016523,2.2213550000451505,2.7958899999503046,3.352424999931827,3.8943350000772625,4.441829999908805,5.012929999968037,5.56844999990426,6.126909999875352,6.65707499999553,7.186285000061616,7.768775000004098,8.30915499990806,8.854479999979958,9.435034999856725,9.991189999971539,10.510879999957979]",space,2.08333,0.0,15.0,15.0,16.0,1.0,,,
,,,,,,,,,,,block_2/none_t_119_4.wav,timbre,t,none,119.0,2.16972576,11.23222009,,,no,,none,no,,,,,1,2020-09-16_12h21.37.513,kura-A2,2020.1.2,Win32,60,,,,,,,,,,,,,,"[""space"",""space"",""space"",""space"",""space"",""space"",""space"",""space"",""space"",""space"",""space"",""space"",""space"",""space"",""space"",""space"",""space"",""space""]","[0.19799000001512468,0.6026149999815971,1.0690349999349564,1.607700000051409,2.0690750000067055,2.649784999899566,3.2054250000510365,3.7492700000293553,4.320155000081286,4.833050000015646,5.383894999977201,5.882294999901205,6.365149999968708,6.836039999965578,7.40741500002332,7.972079999977723,8.470334999961779,8.949160000076517]",space,0.516715,0.0,16.0,16.0,27.0,1.0,,,
,,,,,,,,,,,block_2/medium_t_105_4.wav,timbre,t,medium,105.0,1.80685877,13.54300389,,,no,,none,no,,,,,1,2020-09-16_12h21.37.513,kura-A2,2020.1.2,Win32,60,,,,,,,,,,,,,,"[""space"",""space"",""space"",""space"",""space"",""space"",""space"",""space"",""space"",""space"",""space"",""space"",""space"",""space"",""space"",""space"",""space"",""space"",""space"",""space"",""space"",""space"",""space"",""space"",""space"",""space""]","[0.19008999993093312,0.5455000000074506,1.0700250000227243,1.6384900000412017,2.227360000135377,2.7961750000249594,3.4328700001351535,4.066589999943972,4.709565000142902,5.339140000054613,5.950510000111535,6.539180000079796,6.559815000044182,7.154940000036731,7.7370200001169,7.7576800000388175,8.370000000111759,8.391405000118539,8.962074999930337,8.983015000121668,9.601699999999255,10.191520000109449,10.784694999922067,11.36964499996975,12.01535000000149,12.03639500006102]",space,1.096265,0.0,17.0,17.0,23.0,1.0,,,
,,,,,,,,,,,block_2/weak_t_72_3.wav,timbre,t,weak,72.0,1.543417886,17.01208002,,,no,,none,no,,,,,1,2020-09-16_12h21.37.513,kura-A2,2020.1.2,Win32,60,,,,,,,,,,,,,,"[""space"",""space"",""space"",""space"",""space"",""space"",""space"",""space"",""space"",""space"",""space"",""space"",""space"",""space"",""space"",""space"",""space"",""space"",""space"",""space"",""space"",""space"",""space"",""space"",""space"",""space"",""space""]","[0.23523500002920628,0.2559299999848008,0.591149999992922,1.4034049999900162,2.0834399999585003,3.077030000044033,3.7717250001151115,4.569915000116453,5.372800000011921,6.164965000003576,6.919310000026599,7.72137499996461,8.54545500013046,9.355914999963716,10.114934999961406,10.140545000089332,10.948820000048727,10.969210000010207,11.782025000080466,11.802395000122488,12.563224999932572,13.39630000013858,14.154189999913797,14.174905000021681,14.967420000117272,14.98829000000842,15.75118499994278]",space,0.465485,0.0,18.0,18.0,26.0,1.0,,,
,,,,,,,,,,,block_2/weak_t_105_4.wav,timbre,t,weak,105.0,1.205192231,12.73516956,,,no,,none,no,,,,,1,2020-09-16_12h21.37.513,kura-A2,2020.1.2,Win32,60,,,,,,,,,,,,,,"[""space"",""space"",""space"",""space"",""space"",""space"",""space"",""space"",""space"",""space"",""space"",""space"",""space"",""space"",""space"",""space"",""space"",""space"",""space"",""space"",""space"",""space""]","[0.3352500000037253,0.8079750000033528,1.4341349999886006,2.0390699999406934,2.654689999995753,3.1994449999183416,3.782334999879822,4.29848499991931,4.8019049998838454,5.350219999905676,5.954614999936894,6.513730000006035,6.534394999966025,7.0910600000061095,7.6648999999742955,8.232149999821559,8.815599999856204,9.400284999981523,9.947470000013709,10.573265000013635,11.130214999895543,11.735660000005737]",space,0.772695,0.0,19.0,19.0,7.0,1.0,,,
,,,,,,,,,,,block_2/weak_t_92_3.wav,timbre,t,weak,92.0,1.995389518,17.35720358,,,no,,none,no,,,,,1,2020-09-16_12h21.37.513,kura-A2,2020.1.2,Win32,60,,,,,,,,,,,,,,"[""space"",""space"",""space"",""space"",""space"",""space"",""space"",""space"",""space"",""space"",""space"",""space"",""space"",""space"",""space"",""space"",""space"",""space"",""space"",""space"",""space"",""space"",""space"",""space"",""space"",""space""]","[0.2113999999128282,0.6568349997978657,1.3335849998984486,2.1164649999700487,2.9577749997843057,4.12417500000447,4.776049999985844,5.562814999837428,6.282399999909103,7.08244499983266,7.102929999819025,7.877714999951422,8.615709999809042,9.450484999921173,10.194989999989048,11.120894999941811,11.141314999898896,11.846724999835715,11.86564499977976,12.549984999932349,13.257309999782592,14.054784999927506,14.809659999795258,14.830329999793321,15.603569999802858,15.62425999995321]",space,0.974585,0.0,20.0,20.0,38.0,1.0,,,
,,,,,,,,,,,block_2/strong_t_81_4.wav,timbre,t,strong,81.0,1.059530738,15.41717246,,,no,,none,no,,,,,1,2020-09-16_12h21.37.513,kura-A2,2020.1.2,Win32,60,,,,,,,,,,,,,,"[""space"",""space"",""space"",""space"",""space"",""space"",""space"",""space"",""space"",""space"",""space"",""space"",""space"",""space"",""space"",""space"",""space"",""space"",""space"",""space"",""space"",""space"",""space"",""space"",""space"",""space"",""space"",""space"",""space"",""space""]","[0.6765300000552088,1.6467750000301749,2.358479999937117,3.092519999947399,3.113399999914691,3.8178449999541044,4.572720000054687,4.5934900001157075,5.286180000053719,6.008284999988973,6.714995000045747,6.734560000011697,7.453599999891594,7.474510000087321,8.182479999959469,8.909454999957234,9.637635000050068,9.658525000093505,10.361525000073016,10.382255000062287,11.103949999902397,11.124665000010282,11.796439999947324,11.816279999911785,12.525135000003502,12.546384999994189,13.273520000046119,14.042845000047237,14.787710000062361,14.808389999903738]",space,1.20949,0.0,21.0,21.0,34.0,1.0,,,
,,,,,,,,,,,block_2/weak_t_105_3.wav,timbre,t,weak,105.0,1.911505731,13.14248079,,,no,,none,no,,,,,1,2020-09-16_12h21.37.513,kura-A2,2020.1.2,Win32,60,,,,,,,,,,,,,,"[""space"",""space"",""space"",""space"",""space"",""space"",""space"",""space"",""space"",""space"",""space"",""space"",""space"",""space"",""space"",""space"",""space"",""space"",""space"",""space"",""space"",""space""]","[0.1882100000511855,0.6126800000201911,1.0587649999652058,1.5835349999833852,2.122105000074953,2.772575000068173,3.3693200000561774,4.039864999940619,4.6234999999869615,5.198770000133663,5.749839999945834,6.329739999957383,6.934774999972433,7.578110000118613,8.175779999932274,8.756645000074059,9.322670000139624,9.853415000019595,10.390820000087842,10.99077000003308,11.593700000084937,11.61449999990873]",space,0.560745,0.0,22.0,22.0,4.0,1.0,,,
,,,,,,,,,,,block_2/none_t_119_3.wav,timbre,t,none,119.0,1.207484261,12.32644118,,,no,,none,no,,,,,1,2020-09-16_12h21.37.513,kura-A2,2020.1.2,Win32,60,,,,,,,,,,,,,,"[""space"",""space"",""space"",""space"",""space"",""space"",""space"",""space"",""space"",""space"",""space"",""space"",""space"",""space"",""space"",""space"",""space"",""space"",""space"",""space"",""space"",""space"",""space"",""space"",""space"",""space""]","[0.1929099999833852,0.5511449999175966,0.9480899998452514,1.4119400000199676,1.8604749999940395,2.294984999811277,2.6887699998915195,3.1199199999682605,3.533270000014454,3.956874999916181,4.360649999929592,4.791364999953657,5.241105000022799,5.715919999871403,6.152209999971092,6.586984999943525,6.970764999976382,7.388349999906495,7.83860499993898,8.300489999819547,8.792954999953508,9.29200499993749,9.75749500002712,10.247054999927059,10.689089999999851,11.138969999970868]",space,0.669485,0.0,23.0,23.0,32.0,1.0,,,
,,,,,,,,,,,block_2/medium_t_92_4.wav,timbre,t,medium,92.0,1.599417172,14.59601581,,,no,,none,no,,,,,1,2020-09-16_12h21.37.513,kura-A2,2020.1.2,Win32,60,,,,,,,,,,,,,,"[""space"",""space"",""space"",""space"",""space"",""space"",""space"",""space"",""space"",""space"",""space"",""space"",""space"",""space"",""space"",""space"",""space"",""space"",""space"",""space"",""space"",""space"",""space"",""space"",""space"",""space"",""space"",""space"",""space"",""space"",""space"",""space"",""space"",""space"",""space"",""space"",""space"",""space"",""space""]","[0.18441500002518296,0.5501149999909103,1.041979999979958,1.6435249999631196,2.0350300001446158,2.5910799999255687,3.078514999942854,3.0993749999906868,3.438594999955967,3.779310000129044,4.096170000033453,4.434850000077859,4.743985000066459,5.076115000061691,5.388819999992847,5.733995000133291,6.071849999949336,6.401539999991655,6.7316749999299645,7.055290000047535,7.387739999918267,7.710729999933392,8.020825000014156,8.358350000111386,8.698414999991655,9.034165000077337,9.054965000133961,9.338950000004843,9.667559999972582,10.009079999988899,10.355345000047237,10.685195000143722,11.01795500004664,11.349829999962822,11.685060000047088,12.03948500007391,12.394169999985024,12.713015000103042,13.047079999931157]",space,0.658545,0.0,24.0,24.0,25.0,1.0,,,
,,,,,,,,,,,block_2/strong_t_119_4.wav,timbre,t,strong,119.0,1.529717424,11.39760858,,,no,,none,no,,,,,1,2020-09-16_12h21.37.513,kura-A2,2020.1.2,Win32,60,,,,,,,,,,,,,,"[""space"",""space"",""space"",""space"",""space"",""space"",""space"",""space"",""space"",""space"",""space"",""space"",""space"",""space"",""space"",""space"",""space"",""space"",""space"",""space"",""space""]","[0.21384000009857118,0.5832700000610203,1.066910000052303,1.5783150000497699,2.0673499999102205,2.6003550000023097,3.1169000000227243,3.608324999921024,4.09040499990806,4.609279999975115,5.112415000097826,5.626325000077486,6.092505000066012,6.597594999941066,7.061364999972284,7.634474999969825,8.099119999911636,8.608990000095218,9.115560000063851,9.609655000036582,10.084685000125319]",space,0.83417,0.0,25.0,25.0,39.0,1.0,,,
,,,,,,,,,,,block_2/strong_t_81_3.wav,timbre,t,strong,81.0,1.276002308,16.49137646,,,no,,none,no,,,,,1,2020-09-16_12h21.37.513,kura-A2,2020.1.2,Win32,60,,,,,,,,,,,,,,"[""space"",""space"",""space"",""space"",""space"",""space"",""space"",""space"",""space"",""space"",""space"",""space"",""space"",""space"",""space"",""space"",""space"",""space"",""space"",""space"",""space"",""space"",""space"",""space"",""space"",""space"",""space"",""space"",""space"",""space"",""space"",""space"",""space"",""space"",""space"",""space"",""space"",""space"",""space"",""space""]","[0.38037999998778105,0.4010549997910857,0.6616949997842312,1.164369999896735,1.7412599998060614,2.4848849999252707,3.2334449999034405,3.710719999857247,4.070175000000745,4.836194999981672,5.216389999957755,5.592264999868348,6.0043649999424815,6.375379999866709,6.765919999917969,7.131804999895394,7.524860000004992,7.88774499995634,8.264674999983981,8.636759999906644,9.004714999813586,9.38539499999024,9.789179999846965,10.168834999902174,10.58036999986507,10.990194999845698,11.356964999809861,11.716984999831766,12.119184999959543,12.479384999955073,12.879199999850243,13.255214999895543,13.656659999862313,13.679144999943674,14.035195000004023,14.408649999881163,14.779499999945983,15.187664999859408,15.556479999795556,15.928339999867603]",space,0.958,0.0,26.0,26.0,24.0,1.0,,,
,,,,,,,,,,,block_2/none_t_72_4.wav,timbre,t,none,72.0,1.053800106,24.75334659,,,no,,none,no,,,,,1,2020-09-16_12h21.37.513,kura-A2,2020.1.2,Win32,60,,,,,,,,,,,,,,"[""space"",""space"",""space"",""space"",""space"",""space"",""space"",""space"",""space"",""space"",""space"",""space"",""space"",""space"",""space"",""space"",""space"",""space"",""space"",""space"",""space"",""space"",""space"",""space"",""space"",""space"",""space"",""space"",""space"",""space"",""space"",""space"",""space"",""space"",""space"",""space"",""space"",""space"",""space"",""space"",""space"",""space"",""space"",""space"",""space"",""space""]","[0.2303249998949468,0.6587049998342991,1.1899299998767674,1.8663949999026954,2.4049099998082966,2.9177249998319894,3.4269599998369813,3.966179999988526,4.4694699998945,4.986199999926612,5.554289999883622,6.091814999934286,6.602339999983087,7.165684999898076,7.716169999912381,8.282514999853447,8.843469999963418,9.44410500000231,10.042984999949113,10.588609999977052,11.127509999787435,11.619130000006407,12.117994999978691,12.64180999994278,13.207404999993742,13.762459999881685,14.323084999807179,14.345354999881238,14.840964999981225,15.36532499990426,15.38590499991551,15.914679999928921,16.48594499984756,17.038349999813363,17.575704999966547,18.081434999825433,18.602160000009462,19.14394999993965,19.65032499982044,20.1476749998983,20.643309999955818,21.227309999987483,21.835234999889508,22.40004999982193,22.97113999980502,23.48860999988392]",space,1.30755,0.0,27.0,27.0,15.0,1.0,,,
,,,,,,,,,,,block_2/none_t_92_3.wav,timbre,t,none,92.0,1.328085357,13.39815338,,,no,,none,no,,,,,1,2020-09-16_12h21.37.513,kura-A2,2020.1.2,Win32,60,,,,,,,,,,,,,,"[""space"",""space"",""space"",""space"",""space"",""space"",""space"",""space"",""space"",""space"",""space"",""space"",""space"",""space"",""space"",""space"",""space"",""space"",""space"",""space"",""space"",""space"",""space"",""space"",""space""]","[0.21360000013373792,0.6186300001572818,1.2812400001566857,1.7951900002080947,2.4352300001773983,2.9674800001084805,3.5535650001838803,4.136300000129268,4.66658000019379,5.151580000063404,5.653099999995902,6.101179999997839,6.5991850001737475,7.0920800000894815,7.6207200000062585,8.108280000044033,8.536530000157654,8.989015000173822,9.432380000129342,9.930465000215918,10.434305000118911,10.893580000149086,11.376510000089183,11.872915000189096,12.294265000149608]",space,0.799355,0.0,28.0,28.0,17.0,1.0,,,
,,,,,,,,,,,block_2/none_t_92_4.wav,timbre,t,none,92.0,1.414044957,16.25508804,,,no,,none,no,,,,,1,2020-09-16_12h21.37.513,kura-A2,2020.1.2,Win32,60,,,,,,,,,,,,,,"[""space"",""space"",""space"",""space"",""space"",""space"",""space"",""space"",""space"",""space"",""space"",""space"",""space"",""space"",""space"",""space"",""space"",""space"",""space"",""space"",""space"",""space"",""space"",""space"",""space"",""space"",""space"",""space"",""space""]","[0.20545500004664063,0.5857750000432134,1.0497550000436604,1.573670000070706,2.1340900000650436,2.6992250001057982,3.265499999979511,3.84015000006184,4.355154999997467,4.832145000109449,5.33481500018388,5.857400000095367,6.392884999979287,6.938500000163913,7.515774999978021,8.039310000138357,8.517430000007153,9.078830000013113,9.59620500006713,10.129270000150427,10.617470000172034,11.107900000177324,11.618155000032857,12.180464999983087,12.6815700000152,13.172465000068769,13.683425000170246,14.216020000167191,14.716140000149608]",space,0.58724,0.0,29.0,29.0,22.0,1.0,,,
,,,,,,,,,,,block_2/strong_t_119_3.wav,timbre,t,strong,119.0,2.177542179,13.00520658,,,no,,none,no,,,,,1,2020-09-16_12h21.37.513,kura-A2,2020.1.2,Win32,60,,,,,,,,,,,,,,"[""space"",""space"",""space"",""space"",""space"",""space"",""space"",""space"",""space"",""space"",""space"",""space"",""space"",""space"",""space"",""space"",""space"",""space"",""space"",""space"",""space"",""space"",""space"",""space""]","[0.21962499991059303,0.9567599999718368,1.5760449999943376,2.1338599999435246,2.690724999876693,3.274650000035763,3.8068649999331683,4.400995000032708,4.933835000032559,5.5366350000258535,6.081860000034794,6.626784999854863,7.207690000068396,7.228074999991804,7.79460999998264,8.32814499991946,8.349239999894053,8.90455499989912,9.438829999882728,9.463950000004843,9.993735000025481,10.014740000013262,10.497509999899194,10.814559999853373]",space,1.087145,0.0,30.0,30.0,28.0,1.0,,,
,,,,,,,,,,,block_2/weak_t_92_4.wav,timbre,t,weak,92.0,2.338363624,13.8208126,,,no,,none,no,,,,,1,2020-09-16_12h21.37.513,kura-A2,2020.1.2,Win32,60,,,,,,,,,,,,,,"[""space"",""space"",""space"",""space"",""space"",""space"",""space"",""space"",""space"",""space"",""space"",""space"",""space"",""space"",""space"",""space"",""space"",""space"",""space"",""space"",""space"",""space"",""space"",""space"",""space""]","[0.492629999993369,1.1913699998985976,1.8307049998547882,2.3799899998120964,2.9824499997776,3.5888399998657405,4.150679999962449,4.7154399999417365,5.334134999895468,5.917814999818802,6.485549999866635,6.50630999985151,7.064559999853373,7.084129999857396,7.632589999819174,7.653734999941662,8.237029999960214,8.797684999881312,9.405284999869764,10.001219999976456,10.02201999980025,10.551909999921918,11.158594999928027,11.72954999981448,11.751179999904707]",space,1.84432,0.0,31.0,31.0,29.0,1.0,,,
,,,,,,,,,,,block_2/none_t_81_4.wav,timbre,t,none,81.0,1.883383873,17.9242909,,,no,,none,no,,,,,1,2020-09-16_12h21.37.513,kura-A2,2020.1.2,Win32,60,,,,,,,,,,,,,,"[""space"",""space"",""space"",""space"",""space"",""space"",""space"",""space"",""space"",""space"",""space"",""space"",""space"",""space"",""space"",""space"",""space"",""space"",""space"",""space"",""space"",""space"",""space"",""space"",""space"",""space"",""space"",""space"",""space"",""space"",""space"",""space"",""space"",""space""]","[0.204799999948591,0.6502449999097735,1.1176350000314415,1.6134250001050532,2.1866600001230836,2.7292750000488013,3.2931600001174957,3.860660000005737,4.367929999949411,4.9028100001160055,5.437970000086352,5.941265000030398,6.431654999963939,6.927690000040457,7.452210000017658,7.981415000045672,8.491124999942258,9.01915999990888,9.52113000000827,9.5421750000678,10.050700000021607,10.536915000062436,11.036714999936521,11.555505000054836,12.053804999915883,12.548879999900237,13.060115000000224,13.550654999911785,13.571405000053346,14.070624999934807,14.60757500003092,15.132965000113472,15.64587499992922,16.15008999989368]",space,0.504725,0.0,32.0,32.0,12.0,1.0,,,
,,,,,,,,,,,block_2/none_t_105_4.wav,timbre,t,none,105.0,1.723889958,15.53967227,,,no,,none,no,,,,,1,2020-09-16_12h21.37.513,kura-A2,2020.1.2,Win32,60,,,,,,,,,,,,,,"[""space"",""space"",""space"",""space"",""space"",""space"",""space"",""space"",""space"",""space"",""space"",""space"",""space"",""space"",""space"",""space"",""space"",""space"",""space"",""space"",""space"",""space"",""space"",""space"",""space"",""space"",""space""]","[0.21947499993257225,0.6780149999540299,1.2355049999896437,1.7719700001180172,2.3428700000513345,2.805170000065118,3.339119999902323,3.8683299999684095,4.407189999939874,4.952345000114292,5.430159999988973,5.89742000005208,6.414725000038743,6.923549999948591,7.456595000112429,8.002564999973401,8.483255000086501,8.98869500006549,9.49136000010185,10.012150000082329,10.553790000034496,11.031789999920875,11.528494999976829,12.074424999998882,12.569945000112057,13.152994999894872,13.62891500000842]",space,0.52479,0.0,33.0,33.0,20.0,1.0,,,
,,,,,,,,,,,block_2/medium_t_72_3.wav,timbre,t,medium,72.0,1.064285065,17.84451182,,,no,,none,no,,,,,1,2020-09-16_12h21.37.513,kura-A2,2020.1.2,Win32,60,,,,,,,,,,,,,,"[""space"",""space"",""space"",""space"",""space"",""space"",""space"",""space"",""space"",""space"",""space"",""space"",""space"",""space"",""space"",""space"",""space"",""space"",""space"",""space"",""space"",""space"",""space"",""space"",""space"",""space"",""space"",""space"",""space"",""space"",""space"",""space"",""space"",""space"",""space"",""space"",""space"",""space"",""space"",""space""]","[0.21361500001512468,0.5823249998502433,1.7652099998667836,2.492789999814704,2.926139999879524,3.3366799999494106,3.785884999902919,4.234954999992624,4.7189999998081475,5.152215000009164,5.584634999977425,5.9978799999225885,6.4498649998568,6.878064999822527,7.248565000016242,7.65017499984242,8.10496999998577,8.548259999835864,8.982569999992847,9.00277499994263,9.388079999946058,9.82929000002332,10.232149999821559,10.253249999834225,10.68305499991402,11.117689999984577,11.597025000024587,12.029254999943078,12.44797999993898,12.866864999989048,13.318049999885261,13.33860499993898,13.714689999818802,14.142329999944195,14.586164999986067,15.046729999827221,15.47215999988839,15.937314999988303,16.364104999927804,16.796839999966323]",space,0.926475,0.0,34.0,34.0,31.0,1.0,,,
,,,,,,,,,,,block_2/weak_t_72_4.wav,timbre,t,weak,72.0,1.41938316,17.89516547,,,no,,none,no,,,,,1,2020-09-16_12h21.37.513,kura-A2,2020.1.2,Win32,60,,,,,,,,,,,,,,"[""space"",""space"",""space"",""space"",""space"",""space"",""space"",""space"",""space"",""space"",""space"",""space"",""space"",""space"",""space"",""space"",""space"",""space"",""space"",""space"",""space"",""space"",""space"",""space"",""space"",""space"",""space"",""space"",""space"",""space"",""space"",""space"",""space"",""space"",""space""]","[0.18433999991975725,0.7022699997760355,1.4570049999747425,1.9960599998012185,2.52608499978669,3.273134999908507,3.996244999812916,4.016614999854937,4.687934999819845,5.141824999824166,5.719889999832958,6.175409999908879,6.6433149999938905,7.101739999838173,7.520384999923408,7.998909999849275,8.503909999970347,8.947459999937564,9.411619999911636,9.932284999871626,10.403649999992922,10.86534499982372,11.389294999884441,11.854684999911115,12.30788499978371,12.777474999893457,13.282914999872446,13.790084999985993,14.263964999932796,14.738254999974743,15.215789999812841,15.696459999773651,15.717174999881536,16.162779999896884,16.651349999941885]",space,1.475555,0.0,35.0,35.0,33.0,1.0,,,
,,,,,,,,,,,block_2/strong_t_72_3.wav,timbre,t,strong,72.0,1.757165856,18.23458082,,,no,,none,no,,,,,1,2020-09-16_12h21.37.513,kura-A2,2020.1.2,Win32,60,,,,,,,,,,,,,,"[""space"",""space"",""space"",""space"",""space"",""space"",""space"",""space"",""space"",""space"",""space"",""space"",""space"",""space"",""space"",""space"",""space"",""space"",""space"",""space"",""space"",""space"",""space"",""space"",""space"",""space"",""space"",""space"",""space""]","[0.20687000011093915,0.6501800001133233,1.7053700000979006,2.5421649999916553,3.37491500005126,4.254670000169426,5.082905000075698,5.103654999984428,5.931855000089854,5.951400000136346,6.798219999996945,7.614585000090301,7.635020000161603,8.458315000170842,8.4814100000076,9.271755000110716,10.140045000007376,10.961840000003576,11.815260000061244,11.83627500012517,12.643065000185743,13.462980000069365,13.482005000114441,14.33424500003457,15.129644999979064,15.150245000142604,15.983690000139177,16.004315000027418,16.811690000118688]",space,1.082505,0.0,36.0,36.0,5.0,1.0,,,
,,,,,,,,,,,block_2/strong_t_72_4.wav,timbre,t,strong,72.0,1.957123463,17.07435702,,,no,,none,no,,,,,1,2020-09-16_12h21.37.513,kura-A2,2020.1.2,Win32,60,,,,,,,,,,,,,,"[""space"",""space"",""space"",""space"",""space"",""space"",""space"",""space"",""space"",""space"",""space"",""space"",""space"",""space"",""space"",""space"",""space"",""space"",""space"",""space"",""space"",""space"",""space"",""space""]","[0.7511350000277162,1.2670199999120086,2.190154999960214,2.992480000015348,3.7027300000190735,3.723675000015646,4.482219999888912,4.5028250000905246,5.377379999961704,6.1076549999415874,6.896949999965727,7.682014999911189,8.442804999882355,9.22986499988474,10.00323999999091,10.77303500007838,11.563370000105351,12.382285000057891,13.16510000010021,13.18585000000894,13.940010000020266,14.73238499998115,14.753169999923557,15.564005000051111]",space,0.68013,0.0,37.0,37.0,1.0,1.0,,,
,,,,,,,,,,,block_2/strong_t_92_3.wav,timbre,t,strong,92.0,2.058598996,15.10526566,,,no,,none,no,,,,,1,2020-09-16_12h21.37.513,kura-A2,2020.1.2,Win32,60,,,,,,,,,,,,,,"[""space"",""space"",""space"",""space"",""space"",""space"",""space"",""space"",""space"",""space"",""space"",""space"",""space"",""space"",""space"",""space"",""space"",""space"",""space"",""space"",""space"",""space""]","[0.6347650000825524,1.3494200001005083,2.039695000043139,2.7156800001394004,3.3715099999681115,4.050634999992326,4.674594999989495,5.37464000005275,6.047305000014603,6.722275000065565,7.4181300001218915,8.072829999960959,8.729389999993145,9.35584000009112,10.035635000094771,10.715795000083745,11.36676500015892,11.38785000005737,12.030180000001565,12.697235000086948,13.383910000091419,13.714679999975488]",space,0.523105,0.0,38.0,38.0,3.0,1.0,,,
,,,,,,,,,,,block_2/strong_t_92_4.wav,timbre,t,strong,92.0,1.817525361,14.05856845,,,no,,none,no,,,,,1,2020-09-16_12h21.37.513,kura-A2,2020.1.2,Win32,60,,,,,,,,,,,,,,"[""space"",""space"",""space"",""space"",""space"",""space"",""space"",""space"",""space"",""space"",""space"",""space"",""space"",""space"",""space"",""space"",""space"",""space"",""space"",""space"",""space"",""space""]","[0.6835449999198318,1.1173700001090765,1.1380749999079853,1.7704199999570847,2.390510000055656,3.0570950000546873,3.68360499991104,4.330319999950007,4.984020000090823,5.580019999993965,6.247770000016317,6.880825000116602,7.524310000007972,8.074285000097007,8.745520000113174,9.415874999947846,10.060035000089556,10.672179999994114,11.296390000032261,11.317155000055209,11.948850000044331,12.558694999897853]",space,0.68574,0.0,39.0,39.0,9.0,1.0,,,
,,,,,,,,,,,,,,,,,,,,no,,none,no,,,,,1,2020-09-16_12h21.37.513,kura-A2,2020.1.2,Win32,60,,,,,,,,,,,,,,,,,,,,,,,space,27.224035,
