key_resp.keys,key_resp.rt,practice_taps.keys,keyresp.keys,keyresp.rt,practice_stims_loop.thisRepN,practice_stims_loop.thisTrialN,practice_stims_loop.thisN,practice_stims_loop.thisIndex,practice_stims_loop.ran,sndfile,type,tempo,cond,version,delay,dur,Participant Initials,"If you are a MTurk worker, what is your MTurk worker ID?","If you are not an MTurk worker, please provide your email address",Are you wearing headphones?,What are the headphone make and model?,"How many years of musical training, if any, do you have?",Do you have any hearing problems? Please describe,What is your sex (f/m/decline)?,What is your age?,What is your handedness (R/L/ambi)?,Are you currently in a secure and quiet room without a possible interruption?,session,date,expName,psychopyVersion,OS,frameRate,practice_taps.rt,instructions_prompt.keys,instructions_prompt.rt,block1_taps.keys,block1_taps.rt,key_resp_2.keys,key_resp_2.rt,trials.thisRepN,trials.thisTrialN,trials.thisN,trials.thisIndex,trials.ran,key_resp2.keys,key_resp2.rt,block2_taps.keys,block2_taps.rt,key_resp_3.keys,key_resp_3.rt,trials_2.thisRepN,trials_2.thisTrialN,trials_2.thisN,trials_2.thisIndex,trials_2.ran,key_resp_4.keys,key_resp_4.rt
space,9.14379,,space,2.064265,0.0,0.0,0.0,1.0,1.0,block_2/none_t_119_1.wav,timbre,t,none,119.0,1.172164666,14.53370662,,,,Yes,Bose QC 25,0,,m,52,R,Yes,1,2020-10-05_06h11.14.448,kura-A1,2020.1.2,Win32,60,,,,,,,,,,,,,,,,,,,,,,,,,
,,"[""space"",""space"",""space"",""space"",""space"",""space"",""space"",""space"",""space"",""space"",""space"",""space"",""space"",""space"",""space"",""space"",""space"",""space""]",space,1.1478,0.0,1.0,1.0,3.0,1.0,block_2/weak_t_119_2.wav,timbre,t,weak,119.0,2.180699762,12.4495433,,,,Yes,Bose QC 25,0,,m,52,R,Yes,1,2020-10-05_06h11.14.448,kura-A1,2020.1.2,Win32,60,"[0.5868550001177937,1.3038200000301003,1.9790449999272823,2.5624949999619275,3.3740650000981987,4.039515000069514,4.542919999919832,5.011149999918416,5.466070000082254,5.9769250000827014,6.505295000039041,6.973419999936596,7.505445000017062,8.04270499991253,8.555105000035837,9.282654999988154,9.718705000123009,10.181815000018105]",,,,,,,,,,,,,,,,,,,,,,,,
,,"[""space"",""space"",""space"",""space"",""space"",""space"",""space"",""space"",""space"",""space"",""space"",""space"",""space"",""space"",""space"",""space"",""space"",""space"",""space"",""space"",""space""]",space,1.00485,0.0,2.0,2.0,0.0,1.0,block_1/strong_n_81_2.wav,no,n,strong,81.0,1.560205308,16.72288105,,,,Yes,Bose QC 25,0,,m,52,R,Yes,1,2020-10-05_06h11.14.448,kura-A1,2020.1.2,Win32,60,"[0.7678099998738617,1.3637149999849498,2.0277099998202175,2.705864999908954,3.4978249999694526,4.161054999800399,4.935134999919683,5.668420000001788,6.434629999799654,7.215859999880195,7.980364999966696,8.738534999778494,9.479404999874532,10.342409999808297,10.995049999793991,11.747864999808371,12.55273999995552,13.309079999802634,14.104719999944791,14.823659999994561,15.517559999832883]",,,,,,,,,,,,,,,,,,,,,,,,
,,"[""space"",""space"",""space"",""space"",""space"",""space"",""space"",""space"",""space"",""space"",""space"",""space""]",space,0.66713,0.0,3.0,3.0,2.0,1.0,block_1/weak_n_119_1.wav,no,n,weak,119.0,1.75153664,11.06591306,,,,Yes,Bose QC 25,0,,m,52,R,Yes,1,2020-10-05_06h11.14.448,kura-A1,2020.1.2,Win32,60,"[0.9135700000915676,1.5464149999897927,2.2893449999392033,2.8697549998760223,3.6404200000688434,4.439155000029132,5.08960000006482,6.0742450000252575,6.879160000011325,7.77898499998264,8.54090499994345,9.137709999922663]",,,,,,,,,,,,,,,,,,,,,,,,
,,,,,,,,,,block_1/strong_n_72_1.wav,no,n,strong,72.0,1.207870441,16.92877747,,,,Yes,Bose QC 25,0,,m,52,R,Yes,1,2020-10-05_06h11.14.448,kura-A1,2020.1.2,Win32,60,,space,4.963235,"[""space"",""space"",""space"",""space"",""space"",""space"",""space"",""space"",""space"",""space"",""space"",""space"",""space"",""space"",""space"",""space"",""space"",""space"",""space"",""space"",""space""]","[0.4852299999911338,1.053929999936372,1.6960899999830872,2.464505000039935,3.262305000098422,4.040294999955222,4.887860000133514,5.732820000033826,6.54261999996379,7.369309999980032,8.202435000101104,8.93625000002794,9.729490000056103,10.56199000007473,11.371405000099912,12.13554499996826,12.975485000060871,13.744840000057593,14.54111499991268,15.340480000013486,16.20852500014007]",space,4.27798,0.0,0.0,0.0,33.0,1.0,,,,,,,,,,,,,
,,,,,,,,,,block_1/weak_n_105_2.wav,no,n,weak,105.0,1.25756433,14.19910628,,,,Yes,Bose QC 25,0,,m,52,R,Yes,1,2020-10-05_06h11.14.448,kura-A1,2020.1.2,Win32,60,,,,"[""space"",""space"",""space"",""space"",""space"",""space"",""space"",""space"",""space"",""space"",""space"",""space"",""space"",""space"",""space"",""space"",""space"",""space""]","[0.38794000004418194,1.0892399998847395,1.827599999960512,2.5264300000853837,3.3698899999726564,4.246405000099912,5.015840000007302,5.727584999985993,6.333379999967292,7.059170000022277,7.768954999977723,8.43442999990657,9.169410000089556,9.811280000023544,10.498635000083596,11.383209999883547,12.172959999879822,12.805380000034347]",space,1.06773,0.0,1.0,1.0,26.0,1.0,,,,,,,,,,,,,
,,,,,,,,,,block_1/none_n_119_2.wav,no,n,none,119.0,2.128313718,13.68559263,,,,Yes,Bose QC 25,0,,m,52,R,Yes,1,2020-10-05_06h11.14.448,kura-A1,2020.1.2,Win32,60,,,,"[""space"",""space"",""space"",""space"",""space"",""space"",""space"",""space"",""space"",""space"",""space"",""space"",""space"",""space"",""space"",""space"",""space"",""space"",""space"",""space"",""space"",""space"",""space"",""space"",""space""]","[0.3649250001180917,0.9676600000821054,1.601729999994859,2.4683550000190735,2.8257500000763685,3.158915000036359,3.5765100000426173,3.969950000056997,4.401835000142455,4.770800000056624,5.270035000052303,5.637740000151098,6.106440000003204,6.564669999992475,7.035700000124052,7.470154999988154,7.870145000051707,8.333710000151768,8.809460000135005,9.275515000103042,9.737745000049472,10.177075000014156,10.704455000115559,11.063555000117049,11.534545000176877]",space,0.86822,0.0,2.0,2.0,25.0,1.0,,,,,,,,,,,,,
,,,,,,,,,,block_1/medium_n_105_2.wav,no,n,medium,105.0,2.100494097,12.22140113,,,,Yes,Bose QC 25,0,,m,52,R,Yes,1,2020-10-05_06h11.14.448,kura-A1,2020.1.2,Win32,60,,,,"[""space"",""space"",""space"",""space"",""space"",""space"",""space"",""space"",""space"",""space"",""space"",""space"",""space"",""space"",""space"",""space"",""space"",""space"",""space"",""space""]","[0.4455350001808256,0.9330400000326335,1.5610900002066046,2.2007500000763685,2.7660700001288205,3.237470000050962,3.732740000123158,4.236329999985173,4.702310000080615,5.217760000145063,5.739535000175238,6.237975000170991,6.748060000129044,7.219475000165403,7.738210000097752,8.230085000162944,8.780970000196248,9.308725000126287,9.90728500019759,10.376095000188798]",space,1.077585,0.0,3.0,3.0,3.0,1.0,,,,,,,,,,,,,
,,,,,,,,,,block_1/none_n_81_2.wav,no,n,none,81.0,1.043160571,20.19454379,,,,Yes,Bose QC 25,0,,m,52,R,Yes,1,2020-10-05_06h11.14.448,kura-A1,2020.1.2,Win32,60,,,,"[""space"",""space"",""space"",""space"",""space"",""space"",""space"",""space"",""space"",""space"",""space"",""space"",""space"",""space"",""space"",""space"",""space"",""space"",""space"",""space"",""space"",""space"",""space"",""space"",""space"",""space"",""space"",""space"",""space"",""space"",""space"",""space""]","[0.3939300000201911,0.8046049999538809,1.371474999934435,1.9039499999489635,2.4132900000549853,2.864704999839887,3.3007699998561293,4.08352499990724,4.710904999868944,5.363054999848828,6.0005649998784065,6.682984999846667,7.373080000048503,8.037354999920353,8.741944999899715,9.439464999828488,10.176835000049323,10.873589999973774,11.57626000000164,12.252639999845996,12.916169999865815,13.65868499991484,14.478889999911189,15.143489999929443,15.687930000014603,16.115754999918863,16.641709999879822,17.17503000004217,17.700639999937266,18.244084999896586,18.821784999920055,19.386214999947697]",space,11.388865,0.0,4.0,4.0,28.0,1.0,,,,,,,,,,,,,
,,,,,,,,,,block_1/none_n_72_1.wav,no,n,none,72.0,1.339316998,21.90480453,,,,Yes,Bose QC 25,0,,m,52,R,Yes,1,2020-10-05_06h11.14.448,kura-A1,2020.1.2,Win32,60,,,,"[""space"",""space"",""space"",""space"",""space"",""space"",""space"",""space"",""space"",""space"",""space"",""space"",""space"",""space"",""space"",""space"",""space"",""space"",""space"",""space"",""space"",""space"",""space"",""space"",""space"",""space"",""space"",""space"",""space"",""space"",""space"",""space"",""space"",""space"",""space""]","[0.3938999997917563,1.0066299999598414,1.5369149998296052,2.1318949998822063,3.2068699998781085,3.743894999846816,4.267994999885559,4.808314999798313,5.400804999982938,5.963844999903813,6.467429999960586,7.011064999969676,7.571809999877587,8.072569999843836,8.665004999842495,9.212199999950826,9.742414999986067,10.274739999789745,11.007454999955371,11.569599999813363,12.130624999990687,12.795930000022054,13.37726500001736,13.891739999875426,14.409049999900162,14.880494999932125,15.456709999823943,15.993060000007972,16.616859999950975,17.14663999993354,17.680964999832213,18.384129999903962,18.949534999905154,19.477130000013858,20.249944999814034]",space,0.63465,0.0,5.0,5.0,18.0,1.0,,,,,,,,,,,,,
,,,,,,,,,,block_1/medium_n_92_2.wav,no,n,medium,92.0,1.321097132,12.85819464,,,,Yes,Bose QC 25,0,,m,52,R,Yes,1,2020-10-05_06h11.14.448,kura-A1,2020.1.2,Win32,60,,,,"[""space"",""space"",""space"",""space"",""space"",""space"",""space"",""space"",""space"",""space"",""space"",""space"",""space"",""space"",""space"",""space"",""space"",""space"",""space""]","[0.39329000003635883,0.9439949998632073,1.8812349999789149,2.1068349999841303,2.799624999985099,3.449904999928549,4.079344999976456,4.644159999908879,5.315239999908954,5.885524999815971,6.480989999836311,7.219664999982342,7.921605000039563,8.448384999996051,8.982274999842048,9.455784999998286,10.125559999840334,10.749984999885783,11.34129499993287]",space,1.11444,0.0,6.0,6.0,1.0,1.0,,,,,,,,,,,,,
,,,,,,,,,,block_1/none_n_105_1.wav,no,n,none,105.0,1.562974393,15.68542337,,,,Yes,Bose QC 25,0,,m,52,R,Yes,1,2020-10-05_06h11.14.448,kura-A1,2020.1.2,Win32,60,,,,"[""space"",""space"",""space"",""space"",""space"",""space"",""space"",""space"",""space"",""space"",""space"",""space"",""space"",""space"",""space"",""space"",""space"",""space"",""space"",""space"",""space"",""space"",""space""]","[0.3335349999833852,0.8409400000236928,1.5083699999377131,2.111395000014454,2.97433999995701,3.4467299999669194,3.9047399999108166,4.378384999930859,4.908749999944121,5.483705000020564,6.010334999999031,6.506694999989122,7.0127650001086295,7.789915000088513,8.38526999996975,9.048285000026226,9.71705500013195,10.315630000084639,11.044690000126138,11.68542500003241,12.341105000115931,13.058424999937415,13.748124999925494]",space,0.966065,0.0,7.0,7.0,0.0,1.0,,,,,,,,,,,,,
,,,,,,,,,,block_1/medium_n_72_1.wav,no,n,medium,72.0,1.188923945,17.15940014,,,,Yes,Bose QC 25,0,,m,52,R,Yes,1,2020-10-05_06h11.14.448,kura-A1,2020.1.2,Win32,60,,,,"[""space"",""space"",""space"",""space"",""space"",""space"",""space"",""space"",""space"",""space"",""space"",""space"",""space"",""space"",""space"",""space"",""space"",""space"",""space"",""space""]","[0.3920999998226762,0.9784949999302626,1.9486999998334795,2.7661699999589473,3.5711499999742955,4.417484999867156,5.152694999938831,6.110864999936894,6.955154999857768,7.717719999840483,8.441899999976158,9.211844999808818,10.01513999979943,10.874229999957606,11.62876999983564,12.396964999847114,13.21298999991268,14.13274999987334,14.84235499985516,15.682479999959469]",space,0.67252,0.0,8.0,8.0,10.0,1.0,,,,,,,,,,,,,
,,,,,,,,,,block_1/strong_n_81_2.wav,no,n,strong,81.0,1.452361164,16.6150369,,,,Yes,Bose QC 25,0,,m,52,R,Yes,1,2020-10-05_06h11.14.448,kura-A1,2020.1.2,Win32,60,,,,"[""space"",""space"",""space"",""space"",""space"",""space"",""space"",""space"",""space"",""space"",""space"",""space"",""space"",""space"",""space"",""space"",""space"",""space"",""space"",""space"",""space""]","[0.6218250000383705,1.3040599999949336,2.0021649999544024,2.7540049999952316,3.523229999933392,4.222910000011325,4.990770000033081,5.7666400000452995,6.525540000060573,7.27129999990575,8.03355999989435,8.762339999899268,9.516039999900386,10.26090499991551,11.054164999863133,11.828449999913573,12.544579999987036,13.257160000037402,14.068274999968708,14.803794999839738,15.60223999992013]",space,0.726335,0.0,9.0,9.0,8.0,1.0,,,,,,,,,,,,,
,,,,,,,,,,block_1/weak_n_81_1.wav,no,n,weak,81.0,1.583230306,14.42368382,,,,Yes,Bose QC 25,0,,m,52,R,Yes,1,2020-10-05_06h11.14.448,kura-A1,2020.1.2,Win32,60,,,,"[""space"",""space"",""space"",""space"",""space"",""space"",""space"",""space"",""space"",""space"",""space"",""space"",""space"",""space"",""space"",""space"",""space"",""space"",""space""]","[0.36966999992728233,1.1375349999871105,1.806014999980107,2.434434999944642,3.200409999815747,3.7687199998181313,4.6069900000002235,5.552894999971613,6.208084999816492,6.847144999774173,7.519359999801964,8.179254999849945,8.888959999894723,9.511399999959394,10.17473499989137,10.889724999899045,11.545524999964982,12.310639999806881,13.048004999989644]",space,0.86373,0.0,10.0,10.0,35.0,1.0,,,,,,,,,,,,,
,,,,,,,,,,block_1/weak_n_92_1.wav,no,n,weak,92.0,2.164314711,15.90903126,,,,Yes,Bose QC 25,0,,m,52,R,Yes,1,2020-10-05_06h11.14.448,kura-A1,2020.1.2,Win32,60,,,,"[""space"",""space"",""space"",""space"",""space"",""space"",""space"",""space"",""space"",""space"",""space"",""space"",""space"",""space"",""space"",""space"",""space"",""space"",""space"",""space"",""space""]","[0.3526000001002103,1.005790000082925,1.6137500000186265,2.268154999939725,2.9741899999789894,3.573409999953583,4.214580000145361,4.853730000089854,5.616430000169203,6.227945000166073,6.909860000014305,7.574495000066236,8.21565999998711,8.864090000046417,9.621925000101328,10.268445000052452,10.91313000000082,11.54031000006944,12.269125000108033,12.892145000165328,13.584660000167787]",space,0.572915,0.0,11.0,11.0,2.0,1.0,,,,,,,,,,,,,
,,,,,,,,,,block_1/strong_n_92_2.wav,no,n,strong,92.0,2.185421936,15.68737205,,,,Yes,Bose QC 25,0,,m,52,R,Yes,1,2020-10-05_06h11.14.448,kura-A1,2020.1.2,Win32,60,,,,"[""space"",""space"",""space"",""space"",""space"",""space"",""space"",""space"",""space"",""space"",""space"",""space"",""space"",""space"",""space"",""space"",""space"",""space"",""space"",""space"",""space""]","[0.4700800001155585,0.8685350001323968,1.3690150000620633,2.0911650001071393,2.7951400000602007,3.475665000034496,4.154839999973774,4.857259999960661,5.50730499997735,6.227949999971315,6.9313149999361485,7.64081500004977,8.369720000075176,9.04425000003539,9.735280000139028,10.436149999964982,11.139214999973774,11.872470000060275,12.507165000075474,13.207060000160709,13.931250000139698]",space,0.997825,0.0,12.0,12.0,39.0,1.0,,,,,,,,,,,,,
,,,,,,,,,,block_1/weak_n_119_1.wav,no,n,weak,119.0,2.415285966,11.72966238,,,,Yes,Bose QC 25,0,,m,52,R,Yes,1,2020-10-05_06h11.14.448,kura-A1,2020.1.2,Win32,60,,,,"[""space"",""space"",""space"",""space"",""space"",""space"",""space"",""space"",""space"",""space"",""space"",""space"",""space"",""space"",""space""]","[0.33766499999910593,0.7779949998948723,1.3770500000100583,1.9327700000721961,2.4741549999453127,3.2078199998941272,3.8696950001176447,4.407475000014529,4.907399999909103,5.620799999916926,6.269460000097752,7.1781349999364465,7.820234999991953,8.443495000014082,9.16133000003174]",space,0.602285,0.0,13.0,13.0,38.0,1.0,,,,,,,,,,,,,
,,,,,,,,,,block_1/weak_n_92_2.wav,no,n,weak,92.0,1.763778337,14.00087584,,,,Yes,Bose QC 25,0,,m,52,R,Yes,1,2020-10-05_06h11.14.448,kura-A1,2020.1.2,Win32,60,,,,"[""space"",""space"",""space"",""space"",""space"",""space"",""space"",""space"",""space"",""space"",""space"",""space"",""space"",""space"",""space"",""space"",""space"",""space"",""space""]","[0.4102049998473376,1.0593749999534339,1.6413099998608232,2.307425000006333,2.955219999887049,3.5782699999399483,4.255720000015572,5.1785450000315905,5.893584999954328,6.626239999895915,7.201589999953285,7.836939999833703,8.462850000010803,9.062304999912158,9.63890999997966,10.193044999847189,10.796270000049844,11.404454999836162,11.992055000038818]",space,1.210465,0.0,14.0,14.0,6.0,1.0,,,,,,,,,,,,,
,,,,,,,,,,block_1/weak_n_81_2.wav,no,n,weak,81.0,1.567957537,13.4515403,,,,Yes,Bose QC 25,0,,m,52,R,Yes,1,2020-10-05_06h11.14.448,kura-A1,2020.1.2,Win32,60,,,,"[""space"",""space"",""space"",""space"",""space"",""space"",""space"",""space"",""space"",""space"",""space"",""space"",""space"",""space"",""space"",""space"",""space"",""space"",""space""]","[0.36153499991633,0.9968749999534339,1.6929599998984486,2.3663299998734146,2.9306649998761714,3.5657899999059737,4.166204999899492,4.701279999921098,5.330894999904558,6.262104999972507,7.2683999999426305,7.7048899999354035,8.271094999974594,8.816189999924973,9.470560000045225,9.993335000006482,10.537364999996498,11.196384999901056,11.73511500004679]",space,31.631055,0.0,15.0,15.0,32.0,1.0,,,,,,,,,,,,,
,,,,,,,,,,block_1/weak_n_72_1.wav,no,n,weak,72.0,1.347131367,16.2574715,,,,Yes,Bose QC 25,0,,m,52,R,Yes,1,2020-10-05_06h11.14.448,kura-A1,2020.1.2,Win32,60,,,,"[""space"",""space"",""space"",""space"",""space"",""space"",""space"",""space"",""space"",""space"",""space"",""space"",""space"",""space"",""space"",""space"",""space"",""space"",""space"",""space""]","[0.5293050000909716,1.1258499999530613,2.0624800000805408,2.830155000090599,3.601370000047609,4.399620000040159,5.07101000007242,5.810079999966547,6.598664999939501,7.335745000047609,8.11043499992229,8.838734999997541,9.636394999921322,10.431369999889284,11.201619999948889,11.87019499996677,12.631444999948144,13.363274999894202,14.001935000065714,14.741304999915883]",space,1.64639,0.0,16.0,16.0,15.0,1.0,,,,,,,,,,,,,
,,,,,,,,,,block_1/strong_n_81_1.wav,no,n,strong,81.0,1.003745174,15.96537783,,,,Yes,Bose QC 25,0,,m,52,R,Yes,1,2020-10-05_06h11.14.448,kura-A1,2020.1.2,Win32,60,,,,"[""space"",""space"",""space"",""space"",""space"",""space"",""space"",""space"",""space"",""space"",""space"",""space"",""space"",""space"",""space"",""space"",""space"",""space"",""space"",""space"",""space""]","[0.5861149998381734,1.0405649999156594,1.8751899998169392,2.6061249999329448,3.340769999893382,4.101869999896735,4.840144999790937,5.606964999809861,6.3403449999168515,7.081874999916181,7.815650000004098,8.670990000013262,9.376319999806583,10.143274999922141,10.853089999873191,11.60547999991104,12.356599999824539,13.176334999967366,13.854270000010729,14.650689999805763,15.351939999964088]",space,0.949715,0.0,17.0,17.0,12.0,1.0,,,,,,,,,,,,,
,,,,,,,,,,block_1/weak_n_72_2.wav,no,n,weak,72.0,2.426446225,22.38744396,,,,Yes,Bose QC 25,0,,m,52,R,Yes,1,2020-10-05_06h11.14.448,kura-A1,2020.1.2,Win32,60,,,,"[""space"",""space"",""space"",""space"",""space"",""space"",""space"",""space"",""space"",""space"",""space"",""space"",""space"",""space"",""space"",""space"",""space"",""space"",""space"",""space"",""space"",""space""]","[0.30532999988645315,0.7790299998596311,1.552170000039041,2.121430000057444,2.923799999989569,4.089424999896437,5.062995000043884,6.255594999995083,6.960854999953881,7.842900000046939,9.101204999955371,10.05563999991864,11.200699999928474,12.19173499988392,13.19348999997601,14.000609999988228,15.068969999905676,15.965815000003204,16.765829999931157,17.534990000072867,18.272325000027195,19.351789999986067]",space,0.62136,0.0,18.0,18.0,11.0,1.0,,,,,,,,,,,,,
,,,,,,,,,,block_1/weak_n_105_1.wav,no,n,weak,105.0,1.735757625,11.75240162,,,,Yes,Bose QC 25,0,,m,52,R,Yes,1,2020-10-05_06h11.14.448,kura-A1,2020.1.2,Win32,60,,,,"[""space"",""space"",""space"",""space"",""space"",""space"",""space"",""space"",""space"",""space"",""space"",""space"",""space"",""space"",""space"",""space"",""space"",""space"",""space"",""space"",""space""]","[0.33104499988257885,0.8026749999262393,1.2096299999393523,1.6044550000224262,2.0464299998711795,2.5409949999302626,3.01191999996081,3.507315000053495,4.03260500007309,4.545699999900535,4.913440000033006,5.417739999946207,6.011239999905229,6.473469999851659,6.90641999989748,7.378104999894276,7.882590000052005,8.411254999926314,8.840265000006184,9.383720000041649,9.861114999977872]",space,0.85847,0.0,19.0,19.0,27.0,1.0,,,,,,,,,,,,,
,,,,,,,,,,block_1/strong_n_72_2.wav,no,n,strong,72.0,1.592838259,18.92930084,,,,Yes,Bose QC 25,0,,m,52,R,Yes,1,2020-10-05_06h11.14.448,kura-A1,2020.1.2,Win32,60,,,,"[""space"",""space"",""space"",""space"",""space"",""space"",""space"",""space"",""space"",""space"",""space"",""space"",""space"",""space"",""space"",""space"",""space"",""space"",""space"",""space"",""space""]","[0.4012949999887496,1.009224999928847,1.6995749999769032,2.712150000035763,3.6048449999652803,4.439445000141859,5.367555000120774,6.233950000023469,7.166500000050291,8.041755000129342,8.895844999933615,9.81554999994114,10.712934999959543,11.508094999939203,12.480909999925643,13.4145299999509,14.318410000065342,15.212920000078157,16.0251350000035,17.112519999966025,17.85172999999486]",space,0.765935,0.0,20.0,20.0,30.0,1.0,,,,,,,,,,,,,
,,,,,,,,,,block_1/none_n_105_2.wav,no,n,none,105.0,1.949697166,16.59064955,,,,Yes,Bose QC 25,0,,m,52,R,Yes,1,2020-10-05_06h11.14.448,kura-A1,2020.1.2,Win32,60,,,,"[""space"",""space"",""space"",""space"",""space"",""space"",""space"",""space"",""space"",""space"",""space"",""space"",""space"",""space"",""space"",""space"",""space"",""space"",""space"",""space"",""space""]","[0.3940300000831485,0.7783300001174212,1.417200000025332,1.91601000004448,2.389770000008866,3.049685000209138,4.137710000155494,4.543715000152588,5.180805000010878,5.881115000229329,6.534840000094846,7.311520000221208,8.08795000007376,8.985805000178516,9.751265000086278,10.509455000050366,11.279490000102669,12.06690500001423,12.850170000223443,13.753220000071451,14.540910000214353]",space,0.51195,0.0,21.0,21.0,4.0,1.0,,,,,,,,,,,,,
,,,,,,,,,,block_1/strong_n_119_1.wav,no,n,strong,119.0,2.241065743,12.1104535,,,,Yes,Bose QC 25,0,,m,52,R,Yes,1,2020-10-05_06h11.14.448,kura-A1,2020.1.2,Win32,60,,,,"[""space"",""space"",""space"",""space"",""space"",""space"",""space"",""space"",""space"",""space"",""space"",""space"",""space"",""space"",""space"",""space"",""space"",""space"",""space""]","[0.45356499985791743,1.0736050000414252,1.4965699999593198,2.002630000002682,2.5007299999706447,3.036744999932125,3.4890699998941272,4.01473499997519,4.535965000046417,5.029284999938682,5.561834999825805,6.0625399998389184,6.579690000042319,7.073919999878854,7.616200000047684,8.13395499996841,8.623870000010356,9.155554999830201,9.641605000011623]",space,0.5439,0.0,22.0,22.0,19.0,1.0,,,,,,,,,,,,,
,,,,,,,,,,block_1/strong_n_119_2.wav,no,n,strong,119.0,2.088876798,11.35100832,,,,Yes,Bose QC 25,0,,m,52,R,Yes,1,2020-10-05_06h11.14.448,kura-A1,2020.1.2,Win32,60,,,,"[""space"",""space"",""space"",""space"",""space"",""space"",""space"",""space"",""space"",""space"",""space"",""space"",""space"",""space"",""space"",""space"",""space"",""space"",""space"",""space""]","[0.4316200001630932,0.8054700000211596,1.1349049999844283,1.563920000102371,2.060550000052899,2.5835900001693517,2.970214999979362,3.4691149999853224,3.9285950001794845,4.419360000174493,4.85243000020273,5.348770000040531,5.843225000193343,6.266390000004321,6.769860000116751,7.200200000079349,7.806525000138208,8.143530000001192,8.608545000199229,9.102290000068024]",space,0.50618,0.0,23.0,23.0,17.0,1.0,,,,,,,,,,,,,
,,,,,,,,,,block_1/none_n_72_2.wav,no,n,none,72.0,1.052198767,23.70630308,,,,Yes,Bose QC 25,0,,m,52,R,Yes,1,2020-10-05_06h11.14.448,kura-A1,2020.1.2,Win32,60,,,,"[""space"",""space"",""space"",""space"",""space"",""space"",""space"",""space"",""space"",""space"",""space"",""space"",""space"",""space"",""space"",""space"",""space"",""space"",""space"",""space"",""space"",""space"",""space"",""space"",""space"",""space"",""space"",""space"",""space"",""space"",""space"",""space"",""space"",""space"",""space"",""space"",""space"",""space"",""space"",""space""]","[0.3082950001116842,0.6821300000883639,1.2881899999920279,1.7504600000102073,1.9710800000466406,2.1722350001800805,2.608720000134781,3.008885000133887,3.47453000000678,3.739290000172332,3.9423800001386553,4.314140000147745,5.036210000049323,5.418165000155568,6.055475000059232,6.747510000132024,7.0856350001413375,7.516750000184402,8.081669999985024,8.555954999988899,9.018555000191554,9.793750000186265,10.401835000142455,11.00442500016652,11.712490000063553,12.514490000205114,13.283204999985173,13.978145000059158,14.782825000118464,15.483875000150874,16.161425000056624,16.82261999999173,17.457350000040606,18.087720000185072,18.827730000019073,19.526925000129268,20.225235000019893,21.059890000149608,21.962280000094324,22.876915000146255]",space,1.166145,0.0,24.0,24.0,16.0,1.0,,,,,,,,,,,,,
,,,,,,,,,,block_1/strong_n_105_1.wav,no,n,strong,105.0,1.182925411,14.58124741,,,,Yes,Bose QC 25,0,,m,52,R,Yes,1,2020-10-05_06h11.14.448,kura-A1,2020.1.2,Win32,60,,,,"[""space"",""space"",""space"",""space"",""space"",""space"",""space"",""space"",""space"",""space"",""space"",""space"",""space"",""space"",""space"",""space"",""space"",""space"",""space"",""space"",""space""]","[0.5479449999984354,1.078220000024885,1.6390100000426173,2.31285999994725,3.044755000155419,3.690309999976307,4.382209999952465,5.018129999982193,5.720665000146255,6.352549999952316,7.003784999949858,7.698670000070706,8.385865000076592,9.0896650000941,9.739259999943897,10.424589999951422,11.105095000006258,11.756280000088736,12.429334999993443,13.121849999995902,13.76020499994047]",space,0.940085,0.0,25.0,25.0,13.0,1.0,,,,,,,,,,,,,
,,,,,,,,,,block_1/medium_n_92_1.wav,no,n,medium,92.0,2.383742627,17.50115759,,,,Yes,Bose QC 25,0,,m,52,R,Yes,1,2020-10-05_06h11.14.448,kura-A1,2020.1.2,Win32,60,,,,"[""space"",""space"",""space"",""space"",""space"",""space"",""space"",""space"",""space"",""space"",""space"",""space"",""space"",""space"",""space"",""space"",""space"",""space"",""space"",""space"",""space"",""space"",""space"",""space"",""space"",""space"",""space"",""space""]","[0.3326799999922514,0.949945000000298,1.2887599999085069,1.5181700000539422,1.6901899999938905,1.8671399999875575,2.1886449998710304,2.6354499999433756,3.0640300000086427,3.4966499998699874,3.9605300000403076,4.32143500004895,4.7890250000637025,5.323274999856949,5.7998800000641495,6.531320000067353,6.824269999982789,7.454334999900311,7.690249999985099,8.450729999924079,9.271979999961331,10.082165000028908,10.962275000056252,11.690709999995306,12.541384999873117,13.32734000007622,14.136784999864176,14.931309999898076]",space,0.8927,0.0,26.0,26.0,5.0,1.0,,,,,,,,,,,,,
,,,,,,,,,,block_1/weak_n_119_2.wav,no,n,weak,119.0,2.480463378,12.4427763,,,,Yes,Bose QC 25,0,,m,52,R,Yes,1,2020-10-05_06h11.14.448,kura-A1,2020.1.2,Win32,60,,,,"[""space"",""space"",""space"",""space"",""space"",""space"",""space"",""space"",""space"",""space"",""space"",""space"",""space"",""space"",""space"",""space"",""space"",""space"",""space"",""space"",""space""]","[0.3892250000499189,0.9605500001925975,1.3290050001814961,1.7547200000844896,2.1943150002043694,2.6612050000112504,3.1927300000097603,3.6846200001891702,4.158315000124276,4.699045000132173,5.1626550001092255,5.635600000154227,6.123765000142157,6.59178000013344,7.024795000208542,7.530650000087917,7.95513500017114,8.423085000133142,8.887190000154078,9.365130000049248,9.861255000112578]",space,0.62753,0.0,27.0,27.0,36.0,1.0,,,,,,,,,,,,,
,,,,,,,,,,block_1/medium_n_81_1.wav,no,n,medium,81.0,1.755173496,15.75716896,,,,Yes,Bose QC 25,0,,m,52,R,Yes,1,2020-10-05_06h11.14.448,kura-A1,2020.1.2,Win32,60,,,,"[""space"",""space"",""space"",""space"",""space"",""space"",""space"",""space"",""space"",""space"",""space"",""space"",""space"",""space"",""space"",""space"",""space"",""space"",""space"",""space""]","[0.3425100001040846,1.2339500000234693,1.8971750000491738,2.6044950000941753,3.2692900002002716,3.9404500001110137,4.644320000195876,5.3038200000301,6.038560000015423,6.747785000130534,7.504094999982044,8.129995000083,8.880110000027344,9.575790000148118,10.285120000131428,10.954284999985248,11.643240000121295,12.345205000136048,13.01511500007473,13.741250000195578]",space,0.80527,0.0,28.0,28.0,31.0,1.0,,,,,,,,,,,,,
,,,,,,,,,,block_1/medium_n_119_1.wav,no,n,medium,119.0,1.649869951,11.21667267,,,,Yes,Bose QC 25,0,,m,52,R,Yes,1,2020-10-05_06h11.14.448,kura-A1,2020.1.2,Win32,60,,,,"[""space"",""space"",""space"",""space"",""space"",""space"",""space"",""space"",""space"",""space"",""space"",""space"",""space"",""space"",""space"",""space"",""space"",""space"",""space""]","[0.30218999995850027,1.0713900001719594,1.6410499999765307,2.306705000111833,2.869270000141114,3.3886100000236183,3.88105500000529,4.39144999999553,4.942905000178143,5.407815000042319,5.942160000093281,6.435659999959171,6.934800000162795,7.41321499994956,7.875685000093654,8.381685000145808,8.876069999998435,9.417230000020936,9.880750000011176]",space,0.864375,0.0,29.0,29.0,24.0,1.0,,,,,,,,,,,,,
,,,,,,,,,,block_1/none_n_119_1.wav,no,n,none,119.0,2.383659144,14.54474758,,,,Yes,Bose QC 25,0,,m,52,R,Yes,1,2020-10-05_06h11.14.448,kura-A1,2020.1.2,Win32,60,,,,"[""space"",""space"",""space"",""space"",""space"",""space"",""space"",""space"",""space"",""space"",""space"",""space"",""space"",""space"",""space"",""space"",""space"",""space"",""space""]","[0.3313749998342246,0.79496999992989,1.2245950000360608,1.8309400000143796,2.365040000062436,2.864754999987781,3.4773450000211596,4.0323099999222904,4.699275000020862,5.234449999872595,5.950100000016391,6.5649699999485165,7.234954999992624,7.933829999994487,8.6569699998945,9.431695000035688,10.163334999931976,10.94943999988027,11.683514999924228]",space,0.615005,0.0,30.0,30.0,22.0,1.0,,,,,,,,,,,,,
,,,,,,,,,,block_1/strong_n_105_2.wav,no,n,strong,105.0,2.465472491,15.61086932,,,,Yes,Bose QC 25,0,,m,52,R,Yes,1,2020-10-05_06h11.14.448,kura-A1,2020.1.2,Win32,60,,,,"[""space"",""space"",""space"",""space"",""space"",""space"",""space"",""space"",""space"",""space"",""space"",""space"",""space"",""space"",""space"",""space"",""space"",""space"",""space"",""space"",""space""]","[0.564795000012964,1.0708850000519305,1.734775000018999,2.343415000010282,2.965570000000298,3.6434849998913705,4.333824999863282,4.97035999991931,5.662955000065267,6.26884499983862,6.970745000056922,7.610209999838844,8.245480000041425,8.867139999987558,9.582620000001043,10.257979999994859,10.873905000044033,11.537574999965727,12.207494999980554,12.81078499997966,13.54371999995783]",space,0.98829,0.0,31.0,31.0,9.0,1.0,,,,,,,,,,,,,
,,,,,,,,,,block_1/none_n_92_1.wav,no,n,none,92.0,1.720415177,18.30862379,,,,Yes,Bose QC 25,0,,m,52,R,Yes,1,2020-10-05_06h11.14.448,kura-A1,2020.1.2,Win32,60,,,,"[""space"",""space"",""space"",""space"",""space"",""space"",""space"",""space"",""space"",""space"",""space"",""space"",""space"",""space"",""space"",""space"",""space"",""space"",""space"",""space"",""space"",""space"",""space"",""space"",""space"",""space""]","[0.40648000012151897,0.7269850000739098,1.2658949999604374,1.8008600000757724,2.2563750001136214,2.9977700000163168,3.630284999962896,4.245654999976978,5.067694999976084,5.700219999998808,6.303300000028685,6.951945000095293,7.6436300000641495,8.237875000108033,8.93468499998562,9.577350000152364,10.342590000014752,11.009160000132397,11.679415000136942,12.372489999979734,13.100009999936447,13.805805000010878,14.528154999949038,15.223015000112355,15.91315000015311,16.678760000038892]",space,0.89055,0.0,32.0,32.0,20.0,1.0,,,,,,,,,,,,,
,,,,,,,,,,block_1/medium_n_81_2.wav,no,n,medium,81.0,2.424750646,16.12729033,,,,Yes,Bose QC 25,0,,m,52,R,Yes,1,2020-10-05_06h11.14.448,kura-A1,2020.1.2,Win32,60,,,,"[""space"",""space"",""space"",""space"",""space"",""space"",""space"",""space"",""space"",""space"",""space"",""space"",""space"",""space"",""space"",""space"",""space"",""space"",""space"",""space""]","[0.3403099998831749,0.8280100000556558,1.5280100000090897,2.259055000031367,2.963675000006333,3.6637500000651926,4.395724999951199,5.06067999987863,5.790005000075325,6.465984999900684,7.199514999985695,7.8740699999034405,8.544615000020713,9.297465000068769,9.969400000059977,10.670099999988452,11.337804999900982,12.031435000011697,12.801010000053793,13.472850000020117]",space,1.000715,0.0,33.0,33.0,34.0,1.0,,,,,,,,,,,,,
,,,,,,,,,,block_1/none_n_81_1.wav,no,n,none,81.0,1.16825706,17.43084209,,,,Yes,Bose QC 25,0,,m,52,R,Yes,1,2020-10-05_06h11.14.448,kura-A1,2020.1.2,Win32,60,,,,"[""space"",""space"",""space"",""space"",""space"",""space"",""space"",""space"",""space"",""space"",""space"",""space"",""space"",""space"",""space"",""space"",""space"",""space"",""space"",""space"",""space"",""space""]","[0.3922500000335276,0.9338599999900907,1.6684149999637157,2.3746850001625717,3.0353800000157207,3.641719999955967,4.3185900000389665,4.736150000011548,5.3359000000637025,6.005365000106394,6.60484499996528,7.458000000100583,8.280520000029355,9.20640500006266,10.04628000012599,10.810109999962151,11.709770000074059,12.583405000157654,13.578125,14.449234999949113,15.45708500011824,16.420450000092387]",space,0.803195,0.0,34.0,34.0,29.0,1.0,,,,,,,,,,,,,
,,,,,,,,,,block_1/medium_n_72_2.wav,no,n,medium,72.0,1.502389402,18.53467965,,,,Yes,Bose QC 25,0,,m,52,R,Yes,1,2020-10-05_06h11.14.448,kura-A1,2020.1.2,Win32,60,,,,"[""space"",""space"",""space"",""space"",""space"",""space"",""space"",""space"",""space"",""space"",""space"",""space"",""space"",""space"",""space"",""space"",""space"",""space"",""space"",""space""]","[0.38771499996073544,0.857334999833256,1.6834299999754876,2.551499999826774,3.4329799998085946,4.3559799999929965,5.256764999823645,6.156014999840409,6.993759999983013,7.835844999877736,8.726744999876246,9.632714999839664,10.567494999850169,11.3400899998378,12.423154999967664,13.123489999910817,13.927074999781325,14.808359999908134,15.734594999812543,16.55940999998711]",space,1.040605,0.0,35.0,35.0,14.0,1.0,,,,,,,,,,,,,
,,,,,,,,,,block_1/none_n_92_2.wav,no,n,none,92.0,1.514588051,14.14982615,,,,Yes,Bose QC 25,0,,m,52,R,Yes,1,2020-10-05_06h11.14.448,kura-A1,2020.1.2,Win32,60,,,,"[""space"",""space"",""space"",""space"",""space"",""space"",""space"",""space"",""space"",""space"",""space"",""space"",""space"",""space"",""space"",""space"",""space"",""space"",""space""]","[0.3345899998676032,0.9679749999195337,1.637519999872893,2.304289999883622,3.1185649998951703,3.7620649999007583,4.613209999864921,5.151159999892116,5.7048049999866635,6.236499999882653,6.940579999936745,7.5939149998594075,8.169740000041202,8.883264999836683,9.547580000013113,10.182004999835044,10.89746499992907,11.709999999962747,12.447999999858439]",space,0.52898,0.0,36.0,36.0,23.0,1.0,,,,,,,,,,,,,
,,,,,,,,,,block_1/strong_n_92_1.wav,no,n,strong,92.0,1.355123487,13.84328675,,,,Yes,Bose QC 25,0,,m,52,R,Yes,1,2020-10-05_06h11.14.448,kura-A1,2020.1.2,Win32,60,,,,"[""space"",""space"",""space"",""space"",""space"",""space"",""space"",""space"",""space"",""space"",""space"",""space"",""space"",""space"",""space"",""space"",""space"",""space"",""space"",""space"",""space""]","[0.5295550001319498,1.1315600001253188,1.730930000077933,2.356954999966547,2.949735000031069,3.5880800001323223,4.160094999941066,4.832120000151917,5.409095000009984,6.0625,6.693570000119507,7.297495000064373,7.902530000079423,8.571114999940619,9.175780000165105,9.800079999957234,10.403090000152588,10.975305000087246,11.61193500016816,12.249135000165552,12.866855000145733]",space,1.05729,0.0,37.0,37.0,37.0,1.0,,,,,,,,,,,,,
,,,,,,,,,,block_1/medium_n_105_1.wav,no,n,medium,105.0,2.470231961,15.66819115,,,,Yes,Bose QC 25,0,,m,52,R,Yes,1,2020-10-05_06h11.14.448,kura-A1,2020.1.2,Win32,60,,,,"[""space"",""space"",""space"",""space"",""space"",""space"",""space"",""space"",""space"",""space"",""space"",""space"",""space"",""space"",""space"",""space"",""space"",""space""]","[0.33321000006981194,0.9676600000821054,1.589284999994561,2.0254200000781566,2.6996000001672655,4.463980000000447,5.0625,5.862015000078827,6.671780000207946,7.366900000022724,8.003670000005513,8.637070000171661,9.3247599999886,10.046545000048354,10.721780000021681,11.422160000074655,12.198375000152737,12.906155000207946]",space,0.88002,0.0,38.0,38.0,7.0,1.0,,,,,,,,,,,,,
,,,,,,,,,,block_1/medium_n_119_2.wav,no,n,medium,119.0,1.29591098,10.35291778,,,,Yes,Bose QC 25,0,,m,52,R,Yes,1,2020-10-05_06h11.14.448,kura-A1,2020.1.2,Win32,60,,,,"[""space"",""space"",""space"",""space"",""space"",""space"",""space"",""space"",""space"",""space"",""space"",""space""]","[0.36736999987624586,1.165959999896586,2.3741849998477846,3.0653299998957664,3.9145449998322874,4.705119999824092,5.63691999996081,6.23589999997057,6.820974999805912,7.4460049998015165,8.120049999793991,8.64462499995716]",space,0.73146,0.0,39.0,39.0,21.0,1.0,,,,,,,,,,,,,
,,,,,,,,,,block_2/none_t_72_1.wav,timbre,t,none,72.0,1.393664986,20.37801873,,,,Yes,Bose QC 25,0,,m,52,R,Yes,1,2020-10-05_06h11.14.448,kura-A1,2020.1.2,Win32,60,,,,,,,,,,,,,space,20.56362,"[""space"",""space"",""space"",""space"",""space"",""space"",""space"",""space"",""space"",""space"",""space"",""space"",""space"",""space"",""space"",""space"",""space"",""space"",""space"",""space"",""space"",""space"",""space"",""space"",""space"",""space"",""space"",""space"",""space"",""space"",""space"",""space"",""space""]","[0.32703499984927475,0.9060849999077618,1.3086200000252575,1.7990549998357892,2.276554999873042,2.7809599998872727,3.2804899998009205,3.7470249999314547,4.270154999801889,4.826034999918193,5.399764999980107,5.937960000010207,6.560774999903515,7.161629999987781,7.800915000028908,8.330689999973401,8.937049999833107,9.53946499992162,10.147080000024289,10.739684999920428,11.331179999979213,11.94670999981463,12.605609999969602,13.273674999829382,13.96108499984257,14.674559999955818,15.322404999984428,15.916834999807179,16.587009999901056,17.225054999813437,17.884394999826327,18.619694999884814,19.245539999799803]",space,0.67166,0.0,0.0,0.0,23.0,1.0,,
,,,,,,,,,,block_2/medium_t_72_2.wav,timbre,t,medium,72.0,1.613581299,18.7474135,,,,Yes,Bose QC 25,0,,m,52,R,Yes,1,2020-10-05_06h11.14.448,kura-A1,2020.1.2,Win32,60,,,,,,,,,,,,,,,"[""space"",""space"",""space"",""space"",""space"",""space"",""space"",""space"",""space"",""space"",""space"",""space"",""space"",""space"",""space"",""space"",""space"",""space"",""space"",""space""]","[0.37214999995194376,0.7598099999595433,1.6057499998714775,2.587434999877587,3.500054999953136,4.403944999910891,5.274779999861494,6.2129149998072535,7.077549999812618,8.014974999940023,8.840599999995902,9.70729499985464,10.575389999896288,11.513454999774694,12.381744999904186,13.211949999909848,14.073609999846667,14.991009999997914,15.848484999965876,16.715294999768957]",space,1.03631,0.0,1.0,1.0,28.0,1.0,,
,,,,,,,,,,block_2/none_t_105_2.wav,timbre,t,none,105.0,1.468449628,14.54844963,,,,Yes,Bose QC 25,0,,m,52,R,Yes,1,2020-10-05_06h11.14.448,kura-A1,2020.1.2,Win32,60,,,,,,,,,,,,,,,"[""space"",""space"",""space"",""space"",""space"",""space"",""space"",""space"",""space"",""space"",""space"",""space"",""space"",""space"",""space"",""space"",""space"",""space"",""space"",""space"",""space"",""space""]","[0.33728999993763864,0.7934700001496822,1.3413650000002235,1.9008100000210106,2.514489999972284,3.0877249999903142,3.571205000160262,4.117469999939203,4.68119000014849,5.285365000134334,5.878724999958649,6.411504999967292,7.009065000107512,7.608750000130385,8.24106499995105,8.881400000071153,9.539830000139773,10.1864849999547,10.844620000105351,11.509349999949336,12.126984999980778,12.810414999956265]",space,0.761995,0.0,2.0,2.0,14.0,1.0,,
,,,,,,,,,,block_2/none_t_72_2.wav,timbre,t,none,72.0,2.345629585,20.60318061,,,,Yes,Bose QC 25,0,,m,52,R,Yes,1,2020-10-05_06h11.14.448,kura-A1,2020.1.2,Win32,60,,,,,,,,,,,,,,,"[""space"",""space"",""space"",""space"",""space"",""space"",""space"",""space"",""space"",""space"",""space"",""space"",""space"",""space"",""space"",""space"",""space"",""space"",""space"",""space"",""space"",""space"",""space"",""space"",""space"",""space"",""space"",""space"",""space""]","[0.31096499995328486,0.8392300000414252,1.822840000037104,2.3747549999970943,2.867744999937713,3.401880000019446,4.006704999832436,4.541484999936074,5.136799999978393,5.769534999970347,6.382224999833852,7.013754999963567,7.6441499998327345,8.268599999835715,8.875304999994114,9.563004999887198,10.248999999836087,10.9162649998907,11.557604999979958,12.285479999845847,12.946340000024065,13.589105000020936,14.259404999902472,14.953955000033602,15.647249999921769,16.325745000038296,17.024299999931827,17.66691999998875,18.355019999900833]",space,0.60975,0.0,3.0,3.0,21.0,1.0,,
,,,,,,,,,,block_2/strong_t_119_1.wav,timbre,t,strong,119.0,1.599889289,11.56710017,,,,Yes,Bose QC 25,0,,m,52,R,Yes,1,2020-10-05_06h11.14.448,kura-A1,2020.1.2,Win32,60,,,,,,,,,,,,,,,"[""space"",""space"",""space"",""space"",""space"",""space"",""space"",""space"",""space"",""space"",""space"",""space"",""space"",""space"",""space"",""space"",""space"",""space"",""space"",""space"",""space""]","[0.5039949999190867,0.9323950000107288,1.303234999999404,1.7784049999900162,2.275965000037104,2.7745499999728054,3.2791299999225885,3.7974249999970198,4.271660000085831,4.813649999909103,5.2520350001286715,5.810539999976754,6.271650000009686,6.740304999984801,7.270604999968782,7.7534900000318885,8.255134999984875,8.774375000037253,9.272159999934956,9.767865000059828,10.271494999993593]",space,0.868975,0.0,4.0,4.0,27.0,1.0,,
,,,,,,,,,,block_2/strong_t_72_1.wav,timbre,t,strong,72.0,1.104397067,17.67881884,,,,Yes,Bose QC 25,0,,m,52,R,Yes,1,2020-10-05_06h11.14.448,kura-A1,2020.1.2,Win32,60,,,,,,,,,,,,,,,"[""space"",""space"",""space"",""space"",""space"",""space"",""space"",""space"",""space"",""space"",""space"",""space"",""space"",""space"",""space"",""space"",""space"",""space"",""space"",""space"",""space""]","[0.825694999890402,1.5467850000131875,2.2481749998405576,3.0516800000332296,3.871324999956414,4.619229999836534,5.557004999835044,6.321555000031367,7.182994999922812,7.952334999805316,8.780344999860972,9.585369999986142,10.520234999945387,11.231824999907985,12.022794999880716,12.921020000008866,13.75677499989979,14.549069999950007,15.437174999853596,16.2042449999135,17.126679999986663]",space,1.001335,0.0,5.0,5.0,9.0,1.0,,
,,,,,,,,,,block_2/none_t_92_2.wav,timbre,t,none,92.0,1.981316359,18.5242642,,,,Yes,Bose QC 25,0,,m,52,R,Yes,1,2020-10-05_06h11.14.448,kura-A1,2020.1.2,Win32,60,,,,,,,,,,,,,,,"[""space"",""space"",""space"",""space"",""space"",""space"",""space"",""space"",""space"",""space"",""space"",""space"",""space"",""space"",""space"",""space"",""space"",""space"",""space"",""space"",""space"",""space"",""space"",""space"",""space""]","[0.33104499988257885,0.7050499999895692,1.3052349998615682,1.7707999998237938,2.3674249998293817,2.9095299998298287,3.4584899998735636,4.041049999883398,4.80671999999322,5.3909699998330325,5.9798749999608845,6.682569999946281,7.456689999904484,8.212009999901056,8.984929999802262,9.668924999888986,10.534664999926463,11.318084999918938,12.043164999922737,12.816449999809265,13.55513499979861,14.342024999903515,15.11976999999024,15.962754999985918,16.76191999996081]",space,0.86092,0.0,6.0,6.0,18.0,1.0,,
,,,,,,,,,,block_2/none_t_92_1.wav,timbre,t,none,92.0,2.07216362,14.90350149,,,,Yes,Bose QC 25,0,,m,52,R,Yes,1,2020-10-05_06h11.14.448,kura-A1,2020.1.2,Win32,60,,,,,,,,,,,,,,,"[""space"",""space"",""space"",""space"",""space"",""space"",""space"",""space"",""space"",""space"",""space"",""space"",""space"",""space"",""space"",""space"",""space"",""space"",""space""]","[0.3373000000137836,0.7758950002025813,1.4009250001981854,2.1012399999890476,2.8001000001095235,3.543135000159964,4.176274999976158,4.791265000123531,5.472745000151917,6.146530000027269,6.944345000199974,7.674180000089109,8.384855000069365,9.14865000010468,9.843585000140592,10.584740000078455,11.31838500010781,12.118424999993294,12.816624999977648]",space,0.671735,0.0,7.0,7.0,15.0,1.0,,
,,,,,,,,,,block_2/medium_t_92_1.wav,timbre,t,medium,92.0,1.649670592,15.35429644,,,,Yes,Bose QC 25,0,,m,52,R,Yes,1,2020-10-05_06h11.14.448,kura-A1,2020.1.2,Win32,60,,,,,,,,,,,,,,,"[""space"",""space"",""space"",""space"",""space"",""space"",""space"",""space"",""space"",""space"",""space"",""space"",""space"",""space"",""space"",""space"",""space"",""space"",""space""]","[0.3769499999471009,1.1841049999929965,2.078169999876991,2.7831699999514967,3.6166999998968095,4.311044999863952,5.084904999937862,5.781759999925271,6.509044999955222,7.182664999971166,7.88255999982357,8.577379999915138,9.212330000009388,9.863444999791682,10.616459999931976,11.36005499982275,12.059320000000298,12.788100000005215,13.48090499988757]",space,0.7593,0.0,8.0,8.0,36.0,1.0,,
,,,,,,,,,,block_2/strong_t_119_2.wav,timbre,t,strong,119.0,1.752168489,11.36699842,,,,Yes,Bose QC 25,0,,m,52,R,Yes,1,2020-10-05_06h11.14.448,kura-A1,2020.1.2,Win32,60,,,,,,,,,,,,,,,"[""space"",""space"",""space"",""space"",""space"",""space"",""space"",""space"",""space"",""space"",""space"",""space"",""space"",""space"",""space"",""space"",""space"",""space"",""space"",""space"",""space""]","[0.43556999997235835,0.8933099999558181,1.20486000017263,1.6422749999910593,2.1727750001009554,2.6482100000139326,3.1207900000736117,3.584535000147298,4.09863999998197,4.56737000006251,5.070019999984652,5.526629999978468,6.086670000106096,6.50334500009194,7.002100000157952,7.481275000143796,7.970979999983683,8.43697000015527,8.94561000005342,9.413085000123829,9.907820000080392]",space,0.940485,0.0,9.0,9.0,31.0,1.0,,
,,,,,,,,,,block_2/weak_t_81_2.wav,timbre,t,weak,81.0,1.659662472,15.06274637,,,,Yes,Bose QC 25,0,,m,52,R,Yes,1,2020-10-05_06h11.14.448,kura-A1,2020.1.2,Win32,60,,,,,,,,,,,,,,,"[""space"",""space"",""space"",""space"",""space"",""space"",""space"",""space"",""space"",""space"",""space"",""space"",""space"",""space"",""space"",""space"",""space"",""space"",""space"",""space""]","[0.460240000160411,0.9038400000426918,1.2550800000317395,1.8985099999699742,2.595515000168234,3.304699999978766,3.9631650000810623,4.724374999990687,5.441385000012815,6.199755000183359,7.0388550001662225,7.66429500002414,8.400310000171885,9.098995000123978,9.805595000041649,10.43572000018321,11.170780000044033,11.839815000072122,12.520020000170916,13.210925000021234]",space,0.69384,0.0,10.0,10.0,5.0,1.0,,
,,,,,,,,,,block_2/medium_t_119_2.wav,timbre,t,medium,119.0,1.931946566,12.84791029,,,,Yes,Bose QC 25,0,,m,52,R,Yes,1,2020-10-05_06h11.14.448,kura-A1,2020.1.2,Win32,60,,,,,,,,,,,,,,,"[""space"",""space"",""space"",""space"",""space"",""space"",""space"",""space"",""space"",""space"",""space"",""space"",""space"",""space"",""space"",""space"",""space"",""space"",""space"",""space"",""space"",""space"",""space""]","[0.329850000096485,0.828999999910593,1.2280349999200553,1.6729200000409037,2.101835000095889,2.433204999892041,2.8270799999590963,3.504010000033304,4.143464999971911,4.7992499999236315,5.4409900000318885,5.776980000082403,6.129905000096187,6.706199999898672,7.049720000009984,7.448480000020936,8.04613499995321,8.514560000039637,8.853180000092834,9.50124999997206,9.884709999896586,10.275219999952242,10.93859999999404]",space,0.649645,0.0,11.0,11.0,38.0,1.0,,
,,,,,,,,,,block_2/weak_t_105_2.wav,timbre,t,weak,105.0,2.1216156,16.06451809,,,,Yes,Bose QC 25,0,,m,52,R,Yes,1,2020-10-05_06h11.14.448,kura-A1,2020.1.2,Win32,60,,,,,,,,,,,,,,,"[""space"",""space"",""space"",""space"",""space"",""space"",""space"",""space"",""space"",""space"",""space"",""space"",""space"",""space"",""space"",""space"",""space"",""space"",""space"",""space"",""space"",""space""]","[0.3377199999522418,0.9500750000588596,1.2885600000154227,1.6912849999498576,2.3900549998506904,2.884594999952242,3.2613150000106543,3.942784999962896,4.753185000037774,5.570594999939203,6.313060000073165,7.104909999994561,7.846069999970496,8.603824999881908,9.277689999900758,9.947930000023916,10.662659999914467,11.2939100000076,12.036134999943897,12.820859999861568,13.452064999844879,14.141624999931082]",space,0.734025,0.0,12.0,12.0,2.0,1.0,,
,,,,,,,,,,block_2/strong_t_92_1.wav,timbre,t,strong,92.0,2.398655974,13.52958568,,,,Yes,Bose QC 25,0,,m,52,R,Yes,1,2020-10-05_06h11.14.448,kura-A1,2020.1.2,Win32,60,,,,,,,,,,,,,,,"[""space"",""space"",""space"",""space"",""space"",""space"",""space"",""space"",""space"",""space"",""space"",""space"",""space"",""space"",""space"",""space"",""space"",""space"",""space"",""space""]","[0.514869999838993,1.0473149998579174,1.6343900000210851,2.227339999983087,2.8290450000204146,3.3956100000068545,4.096334999892861,4.5775099999736995,5.140119999879971,5.699249999830499,6.252849999815226,6.8622449999675155,7.501539999851957,8.01581499981694,8.64185499981977,9.145839999895543,9.75465999986045,10.317444999935105,10.938079999992624,11.505284999962896]",space,0.95449,0.0,13.0,13.0,1.0,1.0,,
,,,,,,,,,,block_2/strong_t_105_1.wav,timbre,t,strong,105.0,2.348438476,14.79111421,,,,Yes,Bose QC 25,0,,m,52,R,Yes,1,2020-10-05_06h11.14.448,kura-A1,2020.1.2,Win32,60,,,,,,,,,,,,,,,"[""space"",""space"",""space"",""space"",""space"",""space"",""space"",""space"",""space"",""space"",""space"",""space"",""space"",""space"",""space"",""space"",""space"",""space"",""space"",""space""]","[0.478279999922961,1.0056099998764694,1.8404599998611957,2.50622499990277,3.1722399999853224,3.8136650000233203,4.470255000051111,5.054895000066608,5.748325000051409,6.439499999862164,7.006150000030175,7.6524549999739975,8.309249999932945,8.939634999958798,9.54211000003852,10.262635000050068,10.875239999964833,11.502609999850392,12.185335000045598,12.80905000003986]",space,0.951125,0.0,14.0,14.0,20.0,1.0,,
,,,,,,,,,,block_2/none_t_119_2.wav,timbre,t,none,119.0,1.129624063,11.70173291,,,,Yes,Bose QC 25,0,,m,52,R,Yes,1,2020-10-05_06h11.14.448,kura-A1,2020.1.2,Win32,60,,,,,,,,,,,,,,,"[""space"",""space"",""space"",""space"",""space"",""space"",""space"",""space"",""space"",""space"",""space"",""space"",""space"",""space"",""space"",""space"",""space"",""space"",""space""]","[0.3115950000938028,0.803624999942258,1.2976400000043213,2.2015100000426173,2.864754999987781,3.280629999935627,3.6997400000691414,4.291695000138134,4.737024999922141,5.1700250001158565,5.980695000151172,6.370055000064895,6.781785000115633,7.610529999947175,8.042840000009164,8.469740000087768,9.341119999997318,9.78035999997519,10.254375000018626]",space,0.63031,0.0,15.0,15.0,35.0,1.0,,
,,,,,,,,,,block_2/none_t_119_1.wav,timbre,t,none,119.0,1.241510023,14.60305197,,,,Yes,Bose QC 25,0,,m,52,R,Yes,1,2020-10-05_06h11.14.448,kura-A1,2020.1.2,Win32,60,,,,,,,,,,,,,,,"[""space"",""space"",""space"",""space"",""space"",""space"",""space"",""space"",""space"",""space"",""space"",""space"",""space"",""space"",""space"",""space"",""space"",""space"",""space"",""space"",""space"",""space"",""space"",""space""]","[0.2786300000734627,0.9970350000075996,1.401670000050217,1.8048600000329316,2.6673950001131743,3.1986950000282377,3.6666900001000613,4.407390000065789,4.866875000065193,5.270835000090301,6.03197000012733,6.469005000079051,6.885350000113249,7.774315000046045,8.370980000123382,9.101650000084192,9.599875000072643,9.972825000062585,10.82912000012584,11.305855000158772,11.738535000011325,12.643425000132993,13.060685000149533,13.513250000076368]",space,0.59784,0.0,16.0,16.0,39.0,1.0,,
,,,,,,,,,,block_2/weak_t_81_1.wav,timbre,t,weak,81.0,1.591601339,16.65690746,,,,Yes,Bose QC 25,0,,m,52,R,Yes,1,2020-10-05_06h11.14.448,kura-A1,2020.1.2,Win32,60,,,,,,,,,,,,,,,"[""space"",""space"",""space"",""space"",""space"",""space"",""space"",""space"",""space"",""space"",""space"",""space"",""space"",""space"",""space"",""space"",""space"",""space"",""space""]","[0.3020949999336153,0.9471399998292327,1.8693099999800324,2.5702849999070168,3.273909999988973,3.8733549998141825,4.622574999928474,5.4210299998521805,6.28213999979198,7.11695499997586,7.985029999865219,8.885094999801368,9.756799999857321,10.522934999782592,11.350339999888092,12.396729999920353,13.27371499990113,14.147679999936372,14.983074999880046]",space,0.53198,0.0,17.0,17.0,8.0,1.0,,
,,,,,,,,,,block_2/strong_t_81_1.wav,timbre,t,strong,81.0,1.294160312,15.54953446,,,,Yes,Bose QC 25,0,,m,52,R,Yes,1,2020-10-05_06h11.14.448,kura-A1,2020.1.2,Win32,60,,,,,,,,,,,,,,,"[""space"",""space"",""space"",""space"",""space"",""space"",""space"",""space"",""space"",""space"",""space"",""space"",""space"",""space"",""space"",""space"",""space"",""space"",""space"",""space"",""space""]","[0.66755500016734,1.2316800002008677,1.8427750000264496,2.531650000018999,3.2381049999967217,3.9536450000014156,4.639465000014752,5.41565000009723,6.095415000105277,6.857100000139326,7.540200000163168,8.276555000105873,8.957940000109375,9.657654999988154,10.410535000031814,11.14578999998048,11.848165000090376,12.51679000002332,13.247235000133514,13.984200000064448,14.649760000174865]",space,0.875995,0.0,18.0,18.0,30.0,1.0,,
,,,,,,,,,,block_2/strong_t_105_2.wav,timbre,t,strong,105.0,1.902812304,12.72943362,,,,Yes,Bose QC 25,0,,m,52,R,Yes,1,2020-10-05_06h11.14.448,kura-A1,2020.1.2,Win32,60,,,,,,,,,,,,,,,"[""space"",""space"",""space"",""space"",""space"",""space"",""space"",""space"",""space"",""space"",""space"",""space"",""space"",""space"",""space"",""space"",""space"",""space"",""space"",""space"",""space""]","[0.3380050000268966,0.8052550000138581,1.200650000013411,1.7802450000308454,2.3346450000535697,2.87878999998793,3.4135499999392778,3.9852149998769164,4.503585000056773,5.1034200000576675,5.6333850000519305,6.172770000062883,6.7052799998782575,7.3043249999172986,7.8099799999035895,8.409040000056848,8.969985000090674,9.465949999867007,10.077310000080615,10.610764999873936,11.16344999987632]",space,1.07642,0.0,19.0,19.0,22.0,1.0,,
,,,,,,,,,,block_2/weak_t_72_2.wav,timbre,t,weak,72.0,2.280914128,17.55202524,,,,Yes,Bose QC 25,0,,m,52,R,Yes,1,2020-10-05_06h11.14.448,kura-A1,2020.1.2,Win32,60,,,,,,,,,,,,,,,"[""space"",""space"",""space"",""space"",""space"",""space"",""space"",""space"",""space"",""space"",""space"",""space"",""space"",""space"",""space"",""space"",""space"",""space"",""space"",""space""]","[0.37361499993130565,0.6107600000686944,1.2276399999391288,2.0588400000706315,3.0381849999539554,3.868114999961108,4.63683500001207,5.4030750000383705,6.2796149998903275,7.0559149999171495,7.876704999944195,8.619170000078157,9.47230500006117,10.240010000066832,10.977745000040159,11.782044999999925,12.540155000053346,13.313205000013113,14.14805499999784,14.854000000050291]",space,0.71364,0.0,20.0,20.0,25.0,1.0,,
,,,,,,,,,,block_2/none_t_81_1.wav,timbre,t,none,81.0,1.797175978,16.13359321,,,,Yes,Bose QC 25,0,,m,52,R,Yes,1,2020-10-05_06h11.14.448,kura-A1,2020.1.2,Win32,60,,,,,,,,,,,,,,,"[""space"",""space"",""space"",""space"",""space"",""space"",""space"",""space"",""space"",""space"",""space"",""space"",""space"",""space"",""space"",""space"",""space"",""space"",""space"",""space"",""space""]","[0.3307799999602139,0.8628650000318885,1.5966649998445064,2.198674999875948,2.837444999953732,3.5331200000364333,4.136849999893457,4.7072699998971075,5.4011199998203665,6.103094999911264,6.835955000016838,7.519364999840036,8.289054999826476,8.956559999845922,9.774999999906868,10.58134499983862,11.349174999864772,12.17710500000976,12.940889999968931,13.67161999992095,14.509450000012293]",space,0.729655,0.0,21.0,21.0,11.0,1.0,,
,,,,,,,,,,block_2/strong_t_72_2.wav,timbre,t,strong,72.0,2.404328943,17.8229684,,,,Yes,Bose QC 25,0,,m,52,R,Yes,1,2020-10-05_06h11.14.448,kura-A1,2020.1.2,Win32,60,,,,,,,,,,,,,,,"[""space"",""space"",""space"",""space"",""space"",""space"",""space"",""space"",""space"",""space"",""space"",""space"",""space"",""space"",""space"",""space"",""space"",""space"",""space"",""space"",""space""]","[0.4279100000858307,0.913365000160411,1.5326100001111627,2.3679200001060963,3.2452200001571327,4.036240000044927,4.812620000215247,5.5712000001221895,6.3591250001918525,7.164530000183731,7.9384100001771,8.707030000165105,9.524810000089929,10.325275000184774,11.111930000130087,11.923860000213608,12.750630000140518,13.479920000070706,14.28688000002876,15.046510000014678,15.844220000086352]",space,0.899855,0.0,22.0,22.0,6.0,1.0,,
,,,,,,,,,,block_2/medium_t_119_1.wav,timbre,t,medium,119.0,2.133191859,13.15799912,,,,Yes,Bose QC 25,0,,m,52,R,Yes,1,2020-10-05_06h11.14.448,kura-A1,2020.1.2,Win32,60,,,,,,,,,,,,,,,"[""space"",""space"",""space"",""space"",""space"",""space"",""space"",""space"",""space"",""space"",""space"",""space"",""space"",""space"",""space"",""space"",""space"",""space""]","[0.27166500012390316,0.8547350000590086,1.6239300000015646,2.270269999979064,3.033500000135973,3.804075000109151,4.5320950001478195,5.139119999948889,5.8767300001345575,6.635745000094175,7.149124999996275,7.680429999949411,8.246555000077933,8.738675000146031,9.277295000152662,9.82029000017792,10.310675000073388,10.882380000082776]",space,0.681955,0.0,23.0,23.0,34.0,1.0,,
,,,,,,,,,,block_2/medium_t_105_1.wav,timbre,t,medium,105.0,1.073604292,13.26340021,,,,Yes,Bose QC 25,0,,m,52,R,Yes,1,2020-10-05_06h11.14.448,kura-A1,2020.1.2,Win32,60,,,,,,,,,,,,,,,"[""space"",""space"",""space"",""space"",""space"",""space"",""space"",""space"",""space"",""space"",""space"",""space"",""space"",""space"",""space"",""space"",""space"",""space"",""space"",""space""]","[0.3621100001037121,1.0824650002177805,1.6346250001806766,2.2316100001335144,2.808390000136569,3.612829999998212,4.305565000046045,4.967540000099689,5.6398300000000745,6.20829000021331,6.877925000153482,7.542420000070706,8.115525000030175,8.74257000000216,9.372625000076368,10.000059999991208,10.61905000009574,11.20687000011094,11.874990000156686,12.576405000174418]",space,0.769675,0.0,24.0,24.0,16.0,1.0,,
,,,,,,,,,,block_2/weak_t_92_2.wav,timbre,t,weak,92.0,1.897128492,17.06302418,,,,Yes,Bose QC 25,0,,m,52,R,Yes,1,2020-10-05_06h11.14.448,kura-A1,2020.1.2,Win32,60,,,,,,,,,,,,,,,"[""space"",""space"",""space"",""space"",""space"",""space"",""space"",""space"",""space"",""space"",""space"",""space"",""space"",""space"",""space"",""space"",""space"",""space"",""space"",""space""]","[0.2701049998868257,0.8432899999897927,1.4761699999216944,2.2105649998411536,3.057929999893531,3.812384999822825,4.650930000003427,5.437114999862388,6.212054999778047,7.013269999995828,7.842914999928325,8.624929999932647,9.392219999805093,10.17754999990575,10.914494999917224,11.72349499980919,12.505064999917522,13.249559999909252,14.050999999977648,14.792499999981374]",space,0.711595,0.0,25.0,25.0,37.0,1.0,,
,,,,,,,,,,block_2/medium_t_81_2.wav,timbre,t,medium,81.0,1.338539444,16.50597709,,,,Yes,Bose QC 25,0,,m,52,R,Yes,1,2020-10-05_06h11.14.448,kura-A1,2020.1.2,Win32,60,,,,,,,,,,,,,,,"[""space"",""space"",""space"",""space"",""space"",""space"",""space"",""space"",""space"",""space"",""space"",""space"",""space"",""space"",""space"",""space"",""space"",""space"",""space"",""space""]","[0.34407999995164573,0.8308850000612438,1.2653749999590218,2.1682049999944866,3.099849999882281,3.934804999968037,4.63558500004001,5.435924999881536,6.205300000030547,7.004519999958575,7.814740000059828,8.568070000037551,9.357970000011846,10.14523999998346,10.941365000093356,11.738644999917597,12.519845000002533,13.34474499989301,14.1087599999737,14.910320000024512]",space,0.67336,0.0,26.0,26.0,7.0,1.0,,
,,,,,,,,,,block_2/weak_t_72_1.wav,timbre,t,weak,72.0,1.161723604,18.236871,,,,Yes,Bose QC 25,0,,m,52,R,Yes,1,2020-10-05_06h11.14.448,kura-A1,2020.1.2,Win32,60,,,,,,,,,,,,,,,"[""space"",""space"",""space"",""space"",""space"",""space"",""space"",""space"",""space"",""space"",""space"",""space"",""space"",""space"",""space"",""space"",""space"",""space"",""space"",""space"",""space""]","[0.38283499982208014,0.8744099999312311,1.5420599998906255,2.206684999866411,2.9463499998673797,4.0348249999806285,4.878864999860525,5.779009999940172,6.5625799999106675,7.444504999788478,8.296689999988303,9.190034999977797,10.02548999991268,10.951564999995753,11.81675499980338,12.653084999881685,13.383939999854192,14.150714999996126,14.922964999917895,15.75425499980338,16.629769999999553]",space,0.663095,0.0,27.0,27.0,29.0,1.0,,
,,,,,,,,,,block_2/none_t_105_1.wav,timbre,t,none,105.0,2.049885048,16.17201657,,,,Yes,Bose QC 25,0,,m,52,R,Yes,1,2020-10-05_06h11.14.448,kura-A1,2020.1.2,Win32,60,,,,,,,,,,,,,,,"[""space"",""space"",""space"",""space"",""space"",""space"",""space"",""space"",""space"",""space"",""space"",""space"",""space"",""space"",""space"",""space"",""space"",""space"",""space""]","[0.2760149999521673,0.9195649998728186,1.6857949998229742,2.4803049999754876,3.2821199998725206,3.844790000002831,4.448429999873042,5.155694999964908,5.852329999906942,6.493149999994785,7.355414999881759,8.189524999819696,8.989670000039041,9.829089999897406,10.638054999988526,11.543674999848008,12.422249999828637,13.2853349999059,14.162594999885187]",space,0.67796,0.0,28.0,28.0,17.0,1.0,,
,,,,,,,,,,block_2/none_t_81_2.wav,timbre,t,none,81.0,2.376288721,21.12975811,,,,Yes,Bose QC 25,0,,m,52,R,Yes,1,2020-10-05_06h11.14.448,kura-A1,2020.1.2,Win32,60,,,,,,,,,,,,,,,"[""space"",""space"",""space"",""space"",""space"",""space"",""space"",""space"",""space"",""space"",""space"",""space"",""space"",""space"",""space"",""space"",""space"",""space"",""space"",""space"",""space"",""space"",""space"",""space"",""space"",""space""]","[0.36627500015310943,0.8301949999295175,1.4335199999623,2.227475000079721,2.962830000091344,3.7994399999734014,4.64549500006251,5.604084999999031,6.313860000111163,7.011760000139475,7.679209999972954,8.40923500014469,9.14449999993667,9.898574999999255,10.64456499996595,11.446724999928847,12.177815000060946,12.84368499997072,13.628015000140294,14.381740000098944,15.11757000000216,15.91204999992624,16.58420000015758,17.377319999970496,18.127640000078827,18.920165000017732]",space,0.80748,0.0,29.0,29.0,10.0,1.0,,
,,,,,,,,,,block_2/weak_t_119_2.wav,timbre,t,weak,119.0,2.381776461,12.65062,,,,Yes,Bose QC 25,0,,m,52,R,Yes,1,2020-10-05_06h11.14.448,kura-A1,2020.1.2,Win32,60,,,,,,,,,,,,,,,"[""space"",""space"",""space"",""space"",""space"",""space"",""space"",""space"",""space"",""space"",""space"",""space"",""space"",""space"",""space"",""space"",""space"",""space"",""space""]","[0.35282999998889863,0.9303299998864532,1.5925999998580664,2.2552499999292195,3.0538299998734146,3.629689999856055,4.233490000013262,4.760705000022426,5.138365000020713,5.599099999992177,6.0678850000258535,6.526839999947697,7.0286349998787045,7.532009999966249,8.06434000004083,8.598539999919012,9.077359999995679,9.647055000066757,10.163094999967143]",space,3.631165,0.0,30.0,30.0,13.0,1.0,,
,,,,,,,,,,block_2/strong_t_92_2.wav,timbre,t,strong,92.0,2.142189268,15.39026183,,,,Yes,Bose QC 25,0,,m,52,R,Yes,1,2020-10-05_06h11.14.448,kura-A1,2020.1.2,Win32,60,,,,,,,,,,,,,,,"[""space"",""space"",""space"",""space"",""space"",""space"",""space"",""space"",""space"",""space"",""space"",""space"",""space"",""space"",""space"",""space"",""space"",""space"",""space"",""space"",""space""]","[0.3978750000242144,0.8371250000782311,1.4997449999209493,2.2323099998757243,2.8280499998945743,3.5066400000359863,4.18451499985531,4.899375000037253,5.532575000077486,6.172194999875501,6.842599999858066,7.537394999992102,8.20903000002727,8.914834999945015,9.547825000016019,10.256379999918863,10.943290000082925,11.593894999939948,12.273999999975786,12.9444450000301,13.64668000000529]",space,0.728025,0.0,31.0,31.0,3.0,1.0,,
,,,,,,,,,,block_2/medium_t_92_2.wav,timbre,t,medium,92.0,2.383848972,15.42820271,,,,Yes,Bose QC 25,0,,m,52,R,Yes,1,2020-10-05_06h11.14.448,kura-A1,2020.1.2,Win32,60,,,,,,,,,,,,,,,"[""space"",""space"",""space"",""space"",""space"",""space"",""space"",""space"",""space"",""space"",""space"",""space"",""space"",""space"",""space"",""space"",""space"",""space"",""space"",""space""]","[0.3723799998406321,0.7983450000174344,1.5391249998938292,2.200429999968037,2.9428300000727177,3.587064999854192,4.203405000036582,4.928055000025779,5.605195000069216,6.275774999987334,6.987294999882579,7.650415000040084,8.272069999948144,8.895759999984875,9.64017999987118,10.222079999977723,11.017835000064224,11.495529999956489,12.147390000056475,12.82153999991715]",space,0.513465,0.0,32.0,32.0,32.0,1.0,,
,,,,,,,,,,block_2/medium_t_105_2.wav,timbre,t,medium,105.0,1.583239388,12.36101717,,,,Yes,Bose QC 25,0,,m,52,R,Yes,1,2020-10-05_06h11.14.448,kura-A1,2020.1.2,Win32,60,,,,,,,,,,,,,,,"[""space"",""space"",""space"",""space"",""space"",""space"",""space"",""space"",""space"",""space"",""space"",""space"",""space"",""space"",""space"",""space"",""space"",""space"",""space"",""space""]","[0.28828999982215464,0.7519349998328835,1.1620799999218434,1.6666099999565631,2.1617499999701977,2.75584499980323,3.3238799998071045,3.8929699999280274,4.430544999893755,5.026319999946281,5.598304999992251,6.165724999969825,6.692109999945387,7.264909999910742,7.8304999999236315,8.418074999935925,8.93010999984108,9.463574999943376,10.02891999995336,10.574819999979809]",space,0.754735,0.0,33.0,33.0,19.0,1.0,,
,,,,,,,,,,block_2/weak_t_105_1.wav,timbre,t,weak,105.0,2.340100097,14.83112051,,,,Yes,Bose QC 25,0,,m,52,R,Yes,1,2020-10-05_06h11.14.448,kura-A1,2020.1.2,Win32,60,,,,,,,,,,,,,,,"[""space"",""space"",""space"",""space"",""space"",""space"",""space"",""space"",""space"",""space"",""space"",""space"",""space"",""space"",""space"",""space"",""space"",""space"",""space"",""space""]","[0.42056500003673136,0.8304999999236315,1.3629300000611693,2.060624999925494,2.7978250000160187,3.3507149999495596,4.033474999945611,4.677034999942407,5.302445000037551,5.9488349999301136,6.594349999912083,7.2273150000255555,7.848329999949783,8.46604000008665,9.163600000087172,9.776409999933094,10.436035000020638,11.077969999983907,11.738669999875128,12.381545000011101]",space,0.666155,0.0,34.0,34.0,0.0,1.0,,
,,,,,,,,,,block_2/medium_t_81_1.wav,timbre,t,medium,81.0,1.868021577,16.02697849,,,,Yes,Bose QC 25,0,,m,52,R,Yes,1,2020-10-05_06h11.14.448,kura-A1,2020.1.2,Win32,60,,,,,,,,,,,,,,,"[""space"",""space"",""space"",""space"",""space"",""space"",""space"",""space"",""space"",""space"",""space"",""space"",""space"",""space"",""space"",""space"",""space"",""space"",""space""]","[0.36612999998033047,1.0152050000615418,1.935079999966547,2.793569999979809,3.5366150001063943,4.334874999942258,5.014699999941513,5.836095000151545,6.512250000145286,7.2733150001149625,8.055600000079721,8.743999999947846,9.542219999944791,10.24608499999158,11.01799500011839,11.677395000122488,12.44791500014253,13.177374999970198,13.883960000006482]",space,0.610955,0.0,35.0,35.0,4.0,1.0,,
,,,,,,,,,,block_2/medium_t_72_1.wav,timbre,t,medium,72.0,1.800053144,19.08504181,,,,Yes,Bose QC 25,0,,m,52,R,Yes,1,2020-10-05_06h11.14.448,kura-A1,2020.1.2,Win32,60,,,,,,,,,,,,,,,"[""space"",""space"",""space"",""space"",""space"",""space"",""space"",""space"",""space"",""space"",""space"",""space"",""space"",""space"",""space"",""space"",""space"",""space"",""space"",""space""]","[0.34814000013284385,0.8354700000490993,1.720350000075996,2.8179250000976026,3.6693100000265986,4.561655000085011,5.537454999983311,6.408564999932423,7.28025500010699,8.140654999995604,9.049420000053942,9.881449999986216,10.780955000082031,11.610259999986738,12.513595000142232,13.461684999987483,14.351610000012442,15.155934999929741,15.994265000103042,16.882059999974445]",space,0.631965,0.0,36.0,36.0,24.0,1.0,,
,,,,,,,,,,block_2/weak_t_119_1.wav,timbre,t,weak,119.0,2.44047477,12.74986253,,,,Yes,Bose QC 25,0,,m,52,R,Yes,1,2020-10-05_06h11.14.448,kura-A1,2020.1.2,Win32,60,,,,,,,,,,,,,,,"[""space"",""space"",""space"",""space"",""space"",""space"",""space"",""space"",""space"",""space"",""space"",""space"",""space"",""space"",""space"",""space"",""space"",""space"",""space"",""space"",""space"",""space""]","[0.3700250000692904,0.9696800000965595,1.6437699999660254,2.422190000070259,2.783125000074506,3.1876000000629574,3.6430099999997765,4.074849999975413,4.5223350001033396,4.942745000123978,5.344440000131726,5.775270000100136,6.1870200000703335,6.710350000066683,7.2455400000326335,7.671255000168458,8.182264999952167,8.658539999974892,9.085050000110641,9.5471700001508,10.109530000016093,10.54249000013806]",space,0.7792,0.0,37.0,37.0,12.0,1.0,,
,,,,,,,,,,block_2/strong_t_81_2.wav,timbre,t,strong,81.0,1.682183604,15.83846478,,,,Yes,Bose QC 25,0,,m,52,R,Yes,1,2020-10-05_06h11.14.448,kura-A1,2020.1.2,Win32,60,,,,,,,,,,,,,,,"[""space"",""space"",""space"",""space"",""space"",""space"",""space"",""space"",""space"",""space"",""space"",""space"",""space"",""space"",""space"",""space"",""space"",""space"",""space"",""space"",""space""]","[0.3332249999511987,0.7823000000789762,1.574849999975413,2.377555000130087,2.986060000024736,3.777965000132099,4.450239999918267,5.206685000099242,5.88023000000976,6.623930000001565,7.330164999933913,8.025425000116229,8.783224999904633,9.541510000126436,10.241815000073984,10.922669999999925,11.649359999923036,12.385215000016615,13.124814999988303,13.795609999913722,14.56652499991469]",space,0.84497,0.0,38.0,38.0,26.0,1.0,,
,,,,,,,,,,block_2/weak_t_92_1.wav,timbre,t,weak,92.0,1.077881565,14.47407204,,,,Yes,Bose QC 25,0,,m,52,R,Yes,1,2020-10-05_06h11.14.448,kura-A1,2020.1.2,Win32,60,,,,,,,,,,,,,,,"[""space"",""space"",""space"",""space"",""space"",""space"",""space"",""space"",""space"",""space"",""space"",""space"",""space"",""space"",""space"",""space"",""space"",""space"",""space"",""space"",""space""]","[0.3814499999862164,0.8165899999439716,1.2577649999875575,1.7543399999849498,2.490389999933541,3.183509999886155,3.8918949998915195,4.672560000093654,5.354234999977052,5.894464999902993,6.555114999879152,7.229150000028312,7.957939999876544,8.651839999947697,9.298200000077486,9.934194999979809,10.609110000077635,11.234244999941438,11.927544999867678,12.660544999875128,13.32886500004679]",space,0.782625,0.0,39.0,39.0,33.0,1.0,,
,,,,,,,,,,,,,,,,,,,,Yes,Bose QC 25,0,,m,52,R,Yes,1,2020-10-05_06h11.14.448,kura-A1,2020.1.2,Win32,60,,,,,,,,,,,,,,,,,,,,,,,,space,25.60533
