key_resp.keys,key_resp.rt,practice_taps.keys,practice_taps.rt,keyresp.keys,keyresp.rt,practice_stims_loop.thisRepN,practice_stims_loop.thisTrialN,practice_stims_loop.thisN,practice_stims_loop.thisIndex,practice_stims_loop.ran,sndfile,type,tempo,cond,version,delay,dur,Participant Initials,"If you are a MTurk worker, what is your MTurk worker ID?","If you are not an MTurk worker, please provide your email address",Are you wearing headphones?,What are the headphone make and model?,"How many years of musical training, if any, do you have?",Do you have any hearing problems? Please describe,What is your sex (f/m/decline)?,What is your age?,What is your handedness (R/L/ambi)?,Are you currently in a secure and quiet room without a possible interruption?,session,date,expName,psychopyVersion,OS,frameRate,instructions_prompt.keys,instructions_prompt.rt,block1_taps.keys,block1_taps.rt,key_resp_2.keys,key_resp_2.rt,trials.thisRepN,trials.thisTrialN,trials.thisN,trials.thisIndex,trials.ran,key_resp2.keys,key_resp2.rt,block2_taps.keys,block2_taps.rt,key_resp_3.keys,key_resp_3.rt,trials_2.thisRepN,trials_2.thisTrialN,trials_2.thisN,trials_2.thisIndex,trials_2.ran,key_resp_4.keys,key_resp_4.rt
space,17.503,"[""space"",""space"",""space"",""space"",""space"",""space"",""space"",""space"",""space"",""space"",""space"",""space"",""space"",""space"",""space"",""space""]","[0.8830000000000098,1.0820000000000078,1.38600000000001,1.706000000000003,1.9780000000000086,2.1779999999999973,2.38600000000001,3.0260000000000105,3.682000000000002,3.950000000000003,4.186000000000007,5.487000000000023,6.162999999999997,6.8559999999999945,8.13900000000001,8.965000000000003]",space,2.164,0.0,0.0,0.0,3.0,1.0,block_2/weak_t_119_2.wav,timbre,t,weak,119.0,2.180699762,12.4495433,,,,no,,3 years piano as a child and choir through high school,,,,,,1,2020-10-03_10h29.30.435,kura-A1,2020.1.2,MacIntel,60,,,,,,,,,,,,,,,,,,,,,,,,
,,"[""space"",""space"",""space"",""space"",""space"",""space"",""space"",""space"",""space"",""space"",""space"",""space"",""space"",""space"",""space"",""space"",""space"",""space"",""space"",""space"",""space"",""space"",""space"",""space"",""space"",""space"",""space"",""space""]","[0.8359999999999843,1.1319999999999908,1.279999999999987,1.7059999999999889,1.8629999999999995,2.2309999999999945,2.3989999999999867,2.7849999999999966,2.9709999999999894,3.215999999999994,3.4279999999999973,3.9839999999999947,4.220999999999989,4.592000000000013,4.7949999999999875,5.199999999999989,5.401999999999987,5.705999999999989,5.925999999999988,6.178999999999988,6.382999999999996,6.721999999999994,7.063999999999993,7.430999999999997,7.631,8.190999999999988,8.36699999999999,8.98299999999999]",space,0.668,0.0,1.0,1.0,2.0,1.0,block_1/weak_n_119_1.wav,no,n,weak,119.0,1.75153664,11.06591306,,,,no,,3 years piano as a child and choir through high school,,,,,,1,2020-10-03_10h29.30.435,kura-A1,2020.1.2,MacIntel,60,,,,,,,,,,,,,,,,,,,,,,,,
,,"[""space"",""space"",""space"",""space"",""space"",""space"",""space"",""space"",""space"",""space"",""space"",""space"",""space"",""space"",""space"",""space"",""space"",""space"",""space"",""space"",""space"",""space"",""space"",""space"",""space"",""space"",""space"",""space"",""space"",""space"",""space"",""space"",""space"",""space"",""space"",""space"",""space"",""space"",""space"",""space""]","[2.402000000000001,2.73599999999999,3.089999999999989,3.4339999999999975,3.8349999999999937,4.323999999999998,4.777999999999992,4.947000000000003,5.117999999999995,5.393999999999991,5.665999999999997,6.045000000000002,6.501999999999995,6.975999999999985,7.402000000000015,7.886000000000024,8.25800000000001,8.433999999999997,8.629000000000019,8.842000000000013,9.058000000000021,9.274000000000001,9.552999999999997,9.811000000000007,10.058000000000021,10.318000000000012,10.590000000000003,10.824000000000012,11.058999999999997,11.28200000000001,11.54600000000002,11.804000000000002,12.04000000000002,12.259000000000015,12.563000000000017,12.765000000000015,12.968000000000018,13.186000000000007,13.373000000000019,13.54600000000002]",space,1.115,0.0,2.0,2.0,1.0,1.0,block_2/none_t_119_1.wav,timbre,t,none,119.0,1.172164666,14.53370662,,,,no,,3 years piano as a child and choir through high school,,,,,,1,2020-10-03_10h29.30.435,kura-A1,2020.1.2,MacIntel,60,,,,,,,,,,,,,,,,,,,,,,,,
,,"[""space"",""space"",""space"",""space"",""space"",""space"",""space"",""space"",""space"",""space"",""space"",""space"",""space"",""space"",""space"",""space"",""space"",""space"",""space""]","[1.8950000000000102,2.6189999999999998,3.4140000000000157,4.156000000000006,4.915999999999997,5.6580000000000155,6.436000000000007,7.431000000000012,8.194000000000017,8.832999999999998,9.542000000000002,10.205999999999989,10.977000000000004,11.74199999999999,12.506,13.274000000000001,14.016999999999996,14.744,15.469999999999999]",space,0.957,0.0,3.0,3.0,0.0,1.0,block_1/strong_n_81_2.wav,no,n,strong,81.0,1.560205308,16.72288105,,,,no,,3 years piano as a child and choir through high school,,,,,,1,2020-10-03_10h29.30.435,kura-A1,2020.1.2,MacIntel,60,,,,,,,,,,,,,,,,,,,,,,,,
,,,,,,,,,,,block_1/strong_n_105_1.wav,no,n,strong,105.0,1.182925411,14.58124741,,,,no,,3 years piano as a child and choir through high school,,,,,,1,2020-10-03_10h29.30.435,kura-A1,2020.1.2,MacIntel,60,space,9.517,"[""space"",""space"",""space"",""space"",""space"",""space"",""space"",""space"",""space"",""space"",""space"",""space"",""space"",""space"",""space"",""space"",""space"",""space"",""space"",""space""]","[0.9960000000000093,1.6230000000000189,2.296999999999997,2.9650000000000034,3.686000000000007,4.356999999999999,4.956999999999994,5.657000000000011,6.349000000000018,7.0449999999999875,7.652999999999992,8.365000000000009,9.052999999999997,9.869,10.366000000000014,11.042000000000002,11.735000000000014,12.393,13.120000000000005,13.76000000000002]",space,0.997,0.0,0.0,0.0,13.0,1.0,,,,,,,,,,,,,
,,,,,,,,,,,block_1/weak_n_92_1.wav,no,n,weak,92.0,2.164314711,15.90903126,,,,no,,3 years piano as a child and choir through high school,,,,,,1,2020-10-03_10h29.30.435,kura-A1,2020.1.2,MacIntel,60,,,"[""space"",""space"",""space"",""space"",""space"",""space"",""space"",""space"",""space"",""space"",""space"",""space"",""space"",""space"",""space"",""space"",""space"",""space"",""space"",""space"",""space"",""space"",""space"",""space"",""space"",""space"",""space"",""space"",""space"",""space"",""space"",""space"",""space"",""space"",""space"",""space"",""space"",""space""]","[0.929000000000002,1.0980000000000132,1.3499999999999943,1.5370000000000061,1.7040000000000077,1.875,2.0430000000000064,2.234000000000009,2.4010000000000105,2.7690000000000055,2.9550000000000125,3.1399999999999864,3.3290000000000077,3.530000000000001,3.7319999999999993,3.968999999999994,4.153999999999996,4.490000000000009,4.676000000000016,4.844999999999999,5.0260000000000105,5.2520000000000095,5.420000000000016,5.8089999999999975,6.009999999999991,6.5,6.685000000000002,7.395999999999987,8.155000000000001,8.340000000000003,8.489000000000004,9.12100000000001,10.009000000000015,10.745000000000005,11.51400000000001,12.25800000000001,12.953000000000003,13.520999999999987]",space,0.758,0.0,1.0,1.0,2.0,1.0,,,,,,,,,,,,,
,,,,,,,,,,,block_1/weak_n_119_1.wav,no,n,weak,119.0,2.415285966,11.72966238,,,,no,,3 years piano as a child and choir through high school,,,,,,1,2020-10-03_10h29.30.435,kura-A1,2020.1.2,MacIntel,60,,,"[""space"",""space"",""space"",""space"",""space"",""space"",""space"",""space"",""space"",""space"",""space"",""space"",""space"",""space""]","[1.164999999999992,1.502999999999986,2.2959999999999923,2.937999999999988,3.617999999999995,4.270999999999987,4.850999999999999,5.503999999999991,6.185999999999979,6.804000000000002,7.478999999999985,8.103999999999985,8.713999999999999,9.37100000000001]",space,0.42,0.0,2.0,2.0,38.0,1.0,,,,,,,,,,,,,
,,,,,,,,,,,block_1/none_n_72_2.wav,no,n,none,72.0,1.052198767,23.70630308,,,,no,,3 years piano as a child and choir through high school,,,,,,1,2020-10-03_10h29.30.435,kura-A1,2020.1.2,MacIntel,60,,,"[""space"",""space"",""space"",""space"",""space"",""space"",""space"",""space"",""space"",""space"",""space"",""space"",""space"",""space"",""space"",""space"",""space"",""space"",""space"",""space"",""space"",""space"",""space"",""space"",""space"",""space"",""space"",""space"",""space"",""space""]","[0.26900000000000546,1.9399999999999977,2.180000000000007,2.859999999999985,3.532999999999987,4.268000000000001,5.003999999999991,5.740000000000009,6.38300000000001,7.056999999999988,7.692000000000007,8.373999999999995,9.052999999999997,9.804000000000002,10.524000000000001,11.32899999999998,12.156000000000006,12.87700000000001,13.64500000000001,14.40100000000001,15.20399999999998,15.954999999999984,16.732,17.50200000000001,18.304000000000002,19.07899999999998,19.90700000000001,20.834000000000003,21.756,22.524]",space,0.639,0.0,3.0,3.0,16.0,1.0,,,,,,,,,,,,,
,,,,,,,,,,,block_1/medium_n_81_1.wav,no,n,medium,81.0,1.755173496,15.75716896,,,,no,,3 years piano as a child and choir through high school,,,,,,1,2020-10-03_10h29.30.435,kura-A1,2020.1.2,MacIntel,60,,,"[""space"",""space"",""space"",""space"",""space"",""space"",""space"",""space"",""space"",""space"",""space"",""space"",""space"",""space"",""space"",""space"",""space"",""space"",""space""]","[1.7489999999999952,2.4099999999999966,3.1330000000000098,3.7760000000000105,4.467000000000013,5.15900000000002,5.900000000000006,6.661000000000001,7.247000000000014,7.912000000000006,8.603000000000009,9.287000000000006,10.055000000000007,10.991000000000014,11.50800000000001,12.135999999999996,12.806000000000012,13.467000000000013,14.198999999999984]",space,0.522,0.0,4.0,4.0,31.0,1.0,,,,,,,,,,,,,
,,,,,,,,,,,block_1/medium_n_92_2.wav,no,n,medium,92.0,1.321097132,12.85819464,,,,no,,3 years piano as a child and choir through high school,,,,,,1,2020-10-03_10h29.30.435,kura-A1,2020.1.2,MacIntel,60,,,"[""space"",""space"",""space"",""space"",""space"",""space"",""space"",""space"",""space"",""space"",""space"",""space"",""space"",""space"",""space"",""space"",""space""]","[0.42099999999999227,1.0439999999999827,1.9239999999999782,2.6999999999999886,3.3279999999999745,3.9499999999999886,4.558999999999969,5.200999999999965,5.824000000000012,6.507999999999981,7.395999999999958,8.020999999999958,8.694999999999993,9.394000000000005,10.115999999999985,10.771999999999991,11.372000000000014]",space,0.621,0.0,5.0,5.0,1.0,1.0,,,,,,,,,,,,,
,,,,,,,,,,,block_1/strong_n_92_2.wav,no,n,strong,92.0,2.185421936,15.68737205,,,,no,,3 years piano as a child and choir through high school,,,,,,1,2020-10-03_10h29.30.435,kura-A1,2020.1.2,MacIntel,60,,,"[""space"",""space"",""space"",""space"",""space"",""space"",""space"",""space"",""space"",""space"",""space"",""space"",""space"",""space"",""space"",""space"",""space"",""space""]","[2.1100000000000136,2.784999999999968,3.4350000000000023,4.1299999999999955,4.795000000000016,5.466000000000008,6.11099999999999,6.803999999999974,7.483000000000004,8.189000000000021,8.906999999999982,9.625999999999976,10.34899999999999,11.067000000000007,11.766999999999996,12.44599999999997,13.153999999999996,13.834000000000003]",space,0.894,0.0,6.0,6.0,39.0,1.0,,,,,,,,,,,,,
,,,,,,,,,,,block_1/weak_n_72_2.wav,no,n,weak,72.0,2.426446225,22.38744396,,,,no,,3 years piano as a child and choir through high school,,,,,,1,2020-10-03_10h29.30.435,kura-A1,2020.1.2,MacIntel,60,,,"[""space"",""space"",""space"",""space"",""space"",""space"",""space"",""space"",""space"",""space"",""space"",""space"",""space"",""space"",""space"",""space"",""space"",""space""]","[2.1960000000000264,3.141999999999996,4.138000000000034,5.224000000000046,6.256000000000029,6.992000000000019,7.992000000000019,9.152000000000044,10.160000000000025,11.269000000000005,12.259000000000015,13.357000000000028,14.432000000000016,15.552999999999997,16.649,17.78000000000003,18.979000000000042,20.197000000000003]",space,0.558,0.0,7.0,7.0,11.0,1.0,,,,,,,,,,,,,
,,,,,,,,,,,block_1/weak_n_72_1.wav,no,n,weak,72.0,1.347131367,16.2574715,,,,no,,3 years piano as a child and choir through high school,,,,,,1,2020-10-03_10h29.30.435,kura-A1,2020.1.2,MacIntel,60,,,"[""space"",""space"",""space"",""space"",""space"",""space"",""space"",""space"",""space"",""space"",""space"",""space"",""space"",""space"",""space"",""space"",""space""]","[1.2250000000000227,2.0170000000000528,2.8170000000000073,3.6060000000000514,4.468000000000018,5.5820000000000505,6.426000000000045,7.241000000000042,8.012,8.789000000000044,9.618000000000052,10.478000000000009,11.322000000000003,12.161000000000001,13.05800000000005,13.865000000000009,14.715000000000032]",space,1.477,0.0,8.0,8.0,15.0,1.0,,,,,,,,,,,,,
,,,,,,,,,,,block_1/medium_n_72_1.wav,no,n,medium,72.0,1.188923945,17.15940014,,,,no,,3 years piano as a child and choir through high school,,,,,,1,2020-10-03_10h29.30.435,kura-A1,2020.1.2,MacIntel,60,,,"[""space"",""space"",""space"",""space"",""space"",""space"",""space"",""space"",""space"",""space"",""space"",""space"",""space"",""space"",""space"",""space"",""space"",""space""]","[0.5250000000000341,1.2290000000000418,1.9500000000000455,2.76400000000001,3.508000000000038,4.319000000000017,5.130000000000052,5.941000000000031,6.835000000000036,7.712000000000046,8.539000000000044,9.300000000000011,10.215000000000032,11.055000000000007,12.397000000000048,13.27800000000002,14.348000000000013,15.243000000000052]",space,0.96,0.0,9.0,9.0,10.0,1.0,,,,,,,,,,,,,
,,,,,,,,,,,block_1/strong_n_81_2.wav,no,n,strong,81.0,1.452361164,16.6150369,,,,no,,3 years piano as a child and choir through high school,,,,,,1,2020-10-03_10h29.30.435,kura-A1,2020.1.2,MacIntel,60,,,"[""space"",""space"",""space"",""space"",""space"",""space"",""space"",""space"",""space"",""space"",""space"",""space"",""space"",""space"",""space"",""space"",""space"",""space""]","[1.933999999999969,2.6970000000000027,3.4629999999999654,4.231999999999971,5.0160000000000196,5.7450000000000045,6.451999999999998,7.2239999999999895,8.680999999999983,9.440999999999974,10.216999999999985,10.978000000000009,11.752999999999986,12.521000000000015,13.323999999999955,14.099999999999966,14.841999999999985,15.639999999999986]",space,1.401,0.0,10.0,10.0,8.0,1.0,,,,,,,,,,,,,
,,,,,,,,,,,block_1/strong_n_119_2.wav,no,n,strong,119.0,2.088876798,11.35100832,,,,no,,3 years piano as a child and choir through high school,,,,,,1,2020-10-03_10h29.30.435,kura-A1,2020.1.2,MacIntel,60,,,"[""space"",""space"",""space"",""space"",""space"",""space"",""space"",""space"",""space""]","[2.0679999999999836,3.8600000000000136,5.720000000000027,6.747000000000014,7.648000000000025,8.098000000000013,8.603999999999985,9.120000000000005,9.584000000000003]",space,1.015,0.0,11.0,11.0,17.0,1.0,,,,,,,,,,,,,
,,,,,,,,,,,block_1/none_n_119_2.wav,no,n,none,119.0,2.128313718,13.68559263,,,,no,,3 years piano as a child and choir through high school,,,,,,1,2020-10-03_10h29.30.435,kura-A1,2020.1.2,MacIntel,60,,,"[""space"",""space"",""space"",""space"",""space"",""space"",""space"",""space"",""space"",""space"",""space"",""space"",""space""]","[1.0400000000000205,1.63900000000001,2.819999999999993,3.783999999999992,4.631000000000029,5.535000000000025,6.391999999999996,7.278999999999996,8.161000000000001,9.000999999999976,9.920000000000016,10.839999999999975,11.771000000000015]",space,0.556,0.0,12.0,12.0,25.0,1.0,,,,,,,,,,,,,
,,,,,,,,,,,block_1/strong_n_81_1.wav,no,n,strong,81.0,1.003745174,15.96537783,,,,no,,3 years piano as a child and choir through high school,,,,,,1,2020-10-03_10h29.30.435,kura-A1,2020.1.2,MacIntel,60,,,"[""space"",""space"",""space"",""space"",""space"",""space"",""space"",""space"",""space"",""space"",""space"",""space"",""space"",""space"",""space"",""space"",""space"",""space"",""space""]","[1.1370000000000005,1.8850000000000477,2.65300000000002,3.4250000000000114,4.191000000000031,4.865000000000009,5.585000000000036,6.305000000000007,7.060000000000002,7.8250000000000455,8.613,9.346000000000004,10.099000000000046,10.896000000000015,11.619000000000028,12.393000000000029,13.153999999999996,13.949000000000012,14.633000000000038]",space,0.746,0.0,13.0,13.0,12.0,1.0,,,,,,,,,,,,,
,,,,,,,,,,,block_1/medium_n_119_2.wav,no,n,medium,119.0,1.29591098,10.35291778,,,,no,,3 years piano as a child and choir through high school,,,,,,1,2020-10-03_10h29.30.435,kura-A1,2020.1.2,MacIntel,60,,,"[""space"",""space"",""space"",""space"",""space"",""space"",""space"",""space"",""space"",""space"",""space""]","[1.3670000000000186,1.924000000000035,2.54200000000003,3.257000000000005,4,4.862000000000023,5.571000000000026,6.420999999999992,7.192000000000007,7.918000000000006,8.598000000000013]",space,0.556,0.0,14.0,14.0,21.0,1.0,,,,,,,,,,,,,
,,,,,,,,,,,block_1/strong_n_105_2.wav,no,n,strong,105.0,2.465472491,15.61086932,,,,no,,3 years piano as a child and choir through high school,,,,,,1,2020-10-03_10h29.30.435,kura-A1,2020.1.2,MacIntel,60,,,"[""space"",""space"",""space"",""space"",""space"",""space"",""space"",""space"",""space"",""space"",""space"",""space"",""space"",""space"",""space"",""space"",""space"",""space"",""space""]","[0.9790000000000418,1.5910000000000082,2.266999999999996,2.9470000000000027,3.597000000000037,4.2590000000000146,4.9150000000000205,5.640000000000043,6.249000000000024,6.875,7.531000000000006,8.210000000000036,8.849000000000046,9.507000000000005,10.15500000000003,10.807000000000016,11.449000000000012,12.158999999999992,13.459000000000003]",space,0.938,0.0,15.0,15.0,9.0,1.0,,,,,,,,,,,,,
,,,,,,,,,,,block_1/medium_n_72_2.wav,no,n,medium,72.0,1.502389402,18.53467965,,,,no,,3 years piano as a child and choir through high school,,,,,,1,2020-10-03_10h29.30.435,kura-A1,2020.1.2,MacIntel,60,,,"[""space"",""space"",""space"",""space"",""space"",""space"",""space"",""space"",""space"",""space"",""space"",""space"",""space"",""space"",""space"",""space"",""space"",""space""]","[1.228999999999985,2.505999999999972,3.475999999999999,4.336000000000013,5.1889999999999645,6.024000000000001,6.973000000000013,7.897999999999968,8.694000000000017,9.519999999999982,10.449000000000012,11.276999999999987,12.322000000000003,13.116999999999962,14.010999999999967,14.87299999999999,15.783999999999992,16.577999999999975]",space,0.557,0.0,16.0,16.0,14.0,1.0,,,,,,,,,,,,,
,,,,,,,,,,,block_1/none_n_119_1.wav,no,n,none,119.0,2.383659144,14.54474758,,,,no,,3 years piano as a child and choir through high school,,,,,,1,2020-10-03_10h29.30.435,kura-A1,2020.1.2,MacIntel,60,,,"[""space"",""space"",""space"",""space"",""space"",""space"",""space"",""space"",""space"",""space"",""space"",""space"",""space"",""space"",""space"",""space"",""space"",""space"",""space"",""space"",""space"",""space"",""space"",""space"",""space"",""space"",""space"",""space"",""space"",""space"",""space"",""space"",""space"",""space"",""space"",""space"",""space"",""space"",""space"",""space"",""space"",""space"",""space""]","[1.0299999999999727,2.6850000000000023,3.8009999999999877,3.981999999999971,4.152999999999963,4.339999999999975,4.524999999999977,4.711000000000013,4.8729999999999905,5.031000000000006,5.19199999999995,5.3770000000000095,5.555999999999983,5.7409999999999854,5.926999999999964,6.09499999999997,6.281000000000006,6.440999999999974,6.634999999999991,6.80499999999995,6.985000000000014,7.168999999999983,7.346000000000004,7.51400000000001,7.699999999999989,7.868999999999971,8.07099999999997,9.168999999999983,9.387,9.574000000000012,9.736999999999966,9.927999999999997,10.09899999999999,10.267999999999972,10.451999999999998,10.639999999999986,10.824999999999989,11.009000000000015,11.211000000000013,11.368999999999971,11.836999999999989,12.016999999999996,12.20799999999997]",space,0.594,0.0,17.0,17.0,22.0,1.0,,,,,,,,,,,,,
,,,,,,,,,,,block_1/strong_n_72_2.wav,no,n,strong,72.0,1.592838259,18.92930084,,,,no,,3 years piano as a child and choir through high school,,,,,,1,2020-10-03_10h29.30.435,kura-A1,2020.1.2,MacIntel,60,,,"[""space"",""space"",""space"",""space"",""space"",""space"",""space"",""space"",""space"",""space"",""space"",""space"",""space"",""space"",""space"",""space"",""space""]","[2.7870000000000346,3.632000000000005,4.3910000000000196,5.185000000000002,6.048000000000002,6.985000000000014,7.869000000000028,9.608000000000004,10.502999999999986,11.381000000000029,12.28000000000003,13.175999999999988,14.120000000000005,14.896000000000015,15.79200000000003,16.59899999999999,17.627999999999986]",space,1.245,0.0,18.0,18.0,30.0,1.0,,,,,,,,,,,,,
,,,,,,,,,,,block_1/none_n_81_1.wav,no,n,none,81.0,1.16825706,17.43084209,,,,no,,3 years piano as a child and choir through high school,,,,,,1,2020-10-03_10h29.30.435,kura-A1,2020.1.2,MacIntel,60,,,"[""space"",""space"",""space"",""space"",""space"",""space"",""space"",""space"",""space"",""space"",""space"",""space"",""space"",""space"",""space"",""space"",""space"",""space"",""space""]","[1.2660000000000764,2.230000000000018,3.0590000000000828,3.955000000000041,4.796000000000049,5.683000000000106,6.5610000000000355,7.331000000000017,8.191000000000031,9.053000000000111,9.914000000000101,10.69900000000007,11.568000000000097,12.328000000000088,13.105000000000018,13.859000000000037,14.759000000000015,15.523000000000025,16.331000000000017]",space,0.574,0.0,19.0,19.0,29.0,1.0,,,,,,,,,,,,,
,,,,,,,,,,,block_1/none_n_105_2.wav,no,n,none,105.0,1.949697166,16.59064955,,,,no,,3 years piano as a child and choir through high school,,,,,,1,2020-10-03_10h29.30.435,kura-A1,2020.1.2,MacIntel,60,,,"[""space"",""space"",""space"",""space"",""space"",""space"",""space"",""space"",""space"",""space"",""space"",""space"",""space"",""space"",""space"",""space"",""space"",""space""]","[0.9809999999999945,1.7060000000000173,2.5839999999999463,3.326000000000022,4.121999999999957,4.932000000000016,5.796000000000049,6.59699999999998,7.419999999999959,8.323999999999955,9.157000000000039,9.928999999999974,10.779999999999973,11.620000000000005,12.436000000000035,13.220000000000027,14.051000000000045,14.844000000000051]",space,0.44,0.0,20.0,20.0,4.0,1.0,,,,,,,,,,,,,
,,,,,,,,,,,block_1/none_n_92_2.wav,no,n,none,92.0,1.514588051,14.14982615,,,,no,,3 years piano as a child and choir through high school,,,,,,1,2020-10-03_10h29.30.435,kura-A1,2020.1.2,MacIntel,60,,,"[""space"",""space"",""space"",""space"",""space"",""space"",""space"",""space"",""space"",""space"",""space"",""space"",""space"",""space"",""space""]","[0.2720000000000482,1.0550000000000637,1.8830000000000382,2.6639999999999873,3.522000000000048,4.704000000000065,5.634999999999991,6.543999999999983,7.405000000000086,8.350000000000023,9.177999999999997,10.136000000000081,11.119000000000028,12.065000000000055,12.879999999999995]",space,0.421,0.0,21.0,21.0,23.0,1.0,,,,,,,,,,,,,
,,,,,,,,,,,block_1/none_n_105_1.wav,no,n,none,105.0,1.562974393,15.68542337,,,,no,,3 years piano as a child and choir through high school,,,,,,1,2020-10-03_10h29.30.435,kura-A1,2020.1.2,MacIntel,60,,,"[""space"",""space"",""space"",""space"",""space"",""space"",""space"",""space"",""space"",""space"",""space"",""space"",""space"",""space"",""space"",""space""]","[1.7419999999999618,2.548000000000002,3.316000000000031,4.038999999999987,5.203999999999951,5.845000000000027,6.605000000000018,7.380999999999972,8.153999999999996,8.985000000000014,9.760999999999967,10.572000000000003,11.366999999999962,12.182999999999993,12.919999999999959,13.781000000000063]",space,0.476,0.0,22.0,22.0,0.0,1.0,,,,,,,,,,,,,
,,,,,,,,,,,block_1/strong_n_72_1.wav,no,n,strong,72.0,1.207870441,16.92877747,,,,no,,3 years piano as a child and choir through high school,,,,,,1,2020-10-03_10h29.30.435,kura-A1,2020.1.2,MacIntel,60,,,"[""space"",""space"",""space"",""space"",""space"",""space"",""space"",""space"",""space"",""space"",""space"",""space"",""space"",""space"",""space"",""space"",""space"",""space"",""space""]","[0.7570000000000618,1.6000000000000227,2.4139999999999873,3.191000000000031,3.991999999999962,4.845000000000027,5.690000000000055,6.558999999999969,7.294999999999959,8.07000000000005,9.588999999999942,10.469000000000051,11.329000000000065,12.123000000000047,12.966000000000008,13.77800000000002,14.519999999999982,15.382000000000062,16.124000000000024]",space,0.861,0.0,23.0,23.0,33.0,1.0,,,,,,,,,,,,,
,,,,,,,,,,,block_1/medium_n_81_2.wav,no,n,medium,81.0,2.424750646,16.12729033,,,,no,,3 years piano as a child and choir through high school,,,,,,1,2020-10-03_10h29.30.435,kura-A1,2020.1.2,MacIntel,60,,,"[""space"",""space"",""space"",""space"",""space"",""space"",""space"",""space"",""space"",""space"",""space"",""space"",""space"",""space"",""space"",""space"",""space"",""space""]","[0.6909999999998035,1.4679999999998472,2.2109999999997854,3.0049999999998818,3.6459999999998445,4.354999999999791,5.063999999999851,5.777999999999793,6.521999999999821,7.2429999999998245,7.985999999999876,9.301999999999794,9.9699999999998,10.721999999999866,11.498999999999796,12.058999999999855,12.762999999999806,13.421999999999798]",space,3.921,0.0,24.0,24.0,34.0,1.0,,,,,,,,,,,,,
,,,,,,,,,,,block_1/weak_n_105_2.wav,no,n,weak,105.0,1.25756433,14.19910628,,,,no,,3 years piano as a child and choir through high school,,,,,,1,2020-10-03_10h29.30.435,kura-A1,2020.1.2,MacIntel,60,,,"[""space"",""space"",""space"",""space"",""space"",""space"",""space"",""space"",""space"",""space"",""space"",""space"",""space"",""space"",""space"",""space"",""space"",""space""]","[0.20299999999997453,1.0009999999999764,1.7229999999999563,2.4149999999999636,3.158999999999992,3.90199999999993,4.694999999999936,5.505999999999972,6.264999999999986,7.0079999999999245,7.751999999999953,8.503999999999905,9.240000000000009,10.063999999999965,10.809999999999945,11.566000000000031,12.34699999999998,13.204999999999927]",space,3.851,0.0,25.0,25.0,26.0,1.0,,,,,,,,,,,,,
,,,,,,,,,,,block_1/medium_n_119_1.wav,no,n,medium,119.0,1.649869951,11.21667267,,,,no,,3 years piano as a child and choir through high school,,,,,,1,2020-10-03_10h29.30.435,kura-A1,2020.1.2,MacIntel,60,,,"[""space"",""space"",""space"",""space"",""space"",""space"",""space"",""space"",""space"",""space"",""space"",""space"",""space"",""space"",""space""]","[0.8279999999999745,1.5720000000000027,2.4879999999999427,3.405999999999949,3.9080000000000155,4.476999999999975,5.051999999999907,5.793999999999983,6.371999999999957,6.9249999999999545,7.736999999999966,8.342999999999961,8.90199999999993,9.347999999999956,9.84699999999998]",space,0.388,0.0,26.0,26.0,24.0,1.0,,,,,,,,,,,,,
,,,,,,,,,,,block_1/weak_n_119_2.wav,no,n,weak,119.0,2.480463378,12.4427763,,,,no,,3 years piano as a child and choir through high school,,,,,,1,2020-10-03_10h29.30.435,kura-A1,2020.1.2,MacIntel,60,,,"[""space"",""space"",""space"",""space"",""space"",""space"",""space"",""space"",""space"",""space"",""space"",""space"",""space"",""space"",""space"",""space"",""space"",""space""]","[0.29200000000003,0.8940000000000055,1.6119999999999663,2.08400000000006,2.6200000000000045,3.189999999999941,3.7649999999999864,4.303999999999974,4.845000000000027,5.41599999999994,6.000999999999976,6.54099999999994,7.012000000000057,7.581000000000017,8.148000000000025,8.69500000000005,9.268000000000029,9.82000000000005]",space,7.132,0.0,27.0,27.0,36.0,1.0,,,,,,,,,,,,,
,,,,,,,,,,,block_1/strong_n_92_1.wav,no,n,strong,92.0,1.355123487,13.84328675,,,,no,,3 years piano as a child and choir through high school,,,,,,1,2020-10-03_10h29.30.435,kura-A1,2020.1.2,MacIntel,60,,,"[""space"",""space"",""space"",""space"",""space"",""space"",""space"",""space"",""space"",""space"",""space"",""space"",""space"",""space"",""space"",""space"",""space""]","[2.8460000000000036,3.4449999999999363,4.076999999999998,4.749000000000024,5.348999999999933,6.010999999999967,6.6049999999999045,7.221000000000004,7.853999999999928,8.444999999999936,9.119000000000028,9.709999999999923,10.348999999999933,10.976999999999975,11.620999999999981,12.284999999999968,12.853999999999928]",space,0.441,0.0,28.0,28.0,37.0,1.0,,,,,,,,,,,,,
,,,,,,,,,,,block_1/none_n_72_1.wav,no,n,none,72.0,1.339316998,21.90480453,,,,no,,3 years piano as a child and choir through high school,,,,,,1,2020-10-03_10h29.30.435,kura-A1,2020.1.2,MacIntel,60,,,"[""space"",""space"",""space"",""space"",""space"",""space"",""space"",""space"",""space"",""space"",""space"",""space"",""space"",""space"",""space"",""space"",""space"",""space"",""space"",""space"",""space"",""space"",""space"",""space"",""space"",""space"",""space"",""space""]","[0.6920000000000073,1.5349999999999682,2.2799999999999727,3.05499999999995,3.8239999999999554,4.609000000000151,5.360000000000014,6.212999999999965,6.888000000000034,7.664999999999964,8.41599999999994,9.235000000000014,10.008000000000038,10.737999999999943,11.395999999999958,12.139999999999986,12.831999999999994,13.508000000000038,14.216999999999985,14.903999999999996,15.655999999999949,16.410999999999945,17.159999999999968,17.879999999999995,18.522000000000048,19.21199999999999,19.93999999999994,20.631999999999948]",space,0.57,0.0,29.0,29.0,18.0,1.0,,,,,,,,,,,,,
,,,,,,,,,,,block_1/medium_n_105_1.wav,no,n,medium,105.0,2.470231961,15.66819115,,,,no,,3 years piano as a child and choir through high school,,,,,,1,2020-10-03_10h29.30.435,kura-A1,2020.1.2,MacIntel,60,,,"[""space"",""space"",""space"",""space"",""space"",""space"",""space"",""space"",""space"",""space"",""space"",""space"",""space"",""space"",""space"",""space"",""space""]","[0.8690000000000282,1.8210000000000264,2.533999999999992,3.302000000000021,3.967999999999961,4.694999999999936,5.455000000000041,6.133000000000038,6.872999999999934,7.885999999999967,8.576999999999998,9.321000000000026,9.979000000000042,10.756999999999948,11.380999999999972,12.092999999999961,12.826999999999998]",space,0.713,0.0,30.0,30.0,7.0,1.0,,,,,,,,,,,,,
,,,,,,,,,,,block_1/weak_n_81_2.wav,no,n,weak,81.0,1.567957537,13.4515403,,,,no,,3 years piano as a child and choir through high school,,,,,,1,2020-10-03_10h29.30.435,kura-A1,2020.1.2,MacIntel,60,,,"[""space"",""space"",""space"",""space"",""space"",""space"",""space"",""space"",""space"",""space"",""space"",""space"",""space"",""space"",""space"",""space""]","[1.0629999999999882,1.7520000000000664,2.2950000000000728,2.9669999999999845,3.9640000000000555,4.656000000000063,5.281000000000063,6.0090000000000146,6.865000000000009,7.511000000000081,8.18500000000006,8.845000000000027,9.400999999999954,9.992000000000075,10.650999999999954,11.596000000000004]",space,0.422,0.0,31.0,31.0,32.0,1.0,,,,,,,,,,,,,
,,,,,,,,,,,block_1/weak_n_105_1.wav,no,n,weak,105.0,1.735757625,11.75240162,,,,no,,3 years piano as a child and choir through high school,,,,,,1,2020-10-03_10h29.30.435,kura-A1,2020.1.2,MacIntel,60,,,"[""space"",""space"",""space"",""space"",""space"",""space"",""space"",""space"",""space"",""space"",""space"",""space"",""space"",""space"",""space"",""space"",""space""]","[0.7089999999999463,1.8909999999999627,2.4329999999999927,2.92999999999995,3.4169999999999163,3.953999999999951,4.456000000000017,5.030999999999949,5.519999999999982,6.059999999999945,6.669999999999959,7.292999999999893,7.866999999999962,8.408999999999992,9.166999999999916,9.68999999999994,10.230999999999995]",space,0.506,0.0,32.0,32.0,27.0,1.0,,,,,,,,,,,,,
,,,,,,,,,,,block_1/weak_n_92_2.wav,no,n,weak,92.0,1.763778337,14.00087584,,,,no,,3 years piano as a child and choir through high school,,,,,,1,2020-10-03_10h29.30.435,kura-A1,2020.1.2,MacIntel,60,,,"[""space"",""space"",""space"",""space"",""space"",""space"",""space"",""space"",""space"",""space"",""space"",""space"",""space"",""space"",""space"",""space"",""space"",""space""]","[0.9059999999999491,1.5539999999999736,2.161999999999921,3.1789999999999736,3.9009999999999536,4.545999999999935,5.201000000000022,5.826999999999998,6.538000000000011,7.097999999999956,7.768000000000029,8.361999999999966,9.033000000000015,9.574999999999932,10.197999999999979,10.773000000000025,11.370000000000005,12.021999999999935]",space,3.626,0.0,33.0,33.0,6.0,1.0,,,,,,,,,,,,,
,,,,,,,,,,,block_1/none_n_81_2.wav,no,n,none,81.0,1.043160571,20.19454379,,,,no,,3 years piano as a child and choir through high school,,,,,,1,2020-10-03_10h29.30.435,kura-A1,2020.1.2,MacIntel,60,,,"[""space"",""space"",""space"",""space"",""space"",""space"",""space"",""space"",""space"",""space"",""space"",""space"",""space"",""space"",""space"",""space"",""space"",""space"",""space"",""space"",""space"",""space"",""space"",""space"",""space"",""space"",""space"",""space"",""space""]","[0.7839999999999918,1.3570000000000846,1.9660000000000082,2.7250000000000227,3.4340000000000828,4.066000000000031,4.701000000000022,5.3250000000000455,5.970000000000027,6.594000000000051,7.252000000000066,7.908999999999992,8.583000000000084,9.298999999999978,9.950000000000045,10.610000000000014,11.218000000000075,11.944000000000187,12.601999999999975,13.259999999999991,13.902000000000044,14.595000000000027,15.304000000000087,15.96300000000008,16.653999999999996,17.266000000000076,17.95500000000004,18.53800000000001,19.273000000000025]",space,5.249,0.0,34.0,34.0,28.0,1.0,,,,,,,,,,,,,
,,,,,,,,,,,block_1/strong_n_119_1.wav,no,n,strong,119.0,2.241065743,12.1104535,,,,no,,3 years piano as a child and choir through high school,,,,,,1,2020-10-03_10h29.30.435,kura-A1,2020.1.2,MacIntel,60,,,"[""space"",""space"",""space"",""space"",""space"",""space"",""space"",""space"",""space"",""space"",""space"",""space"",""space"",""space"",""space"",""space"",""space"",""space""]","[1.45900000000006,1.8820000000000618,2.3640000000000327,2.8500000000000227,3.3940000000000055,3.9020000000000437,4.498000000000161,4.999000000000024,5.572999999999979,6.080000000000041,6.594000000000051,7.0919999999999845,7.6159999999999854,8.139999999999986,8.618000000000052,9.152000000000044,9.634000000000015,10.198999999999955]",space,0.421,0.0,35.0,35.0,19.0,1.0,,,,,,,,,,,,,
,,,,,,,,,,,block_1/medium_n_92_1.wav,no,n,medium,92.0,2.383742627,17.50115759,,,,no,,3 years piano as a child and choir through high school,,,,,,1,2020-10-03_10h29.30.435,kura-A1,2020.1.2,MacIntel,60,,,"[""space"",""space"",""space"",""space"",""space"",""space"",""space"",""space"",""space"",""space"",""space"",""space"",""space"",""space"",""space"",""space"",""space"",""space""]","[1.3640000000000327,2.044999999999959,2.786000000000058,3.59800000000007,4.388000000000034,5.187999999999988,5.956000000000017,6.70799999999997,7.498000000000047,8.262000000000057,9.134999999999991,9.879999999999995,10.653999999999996,11.427999999999997,12.326000000000022,13.272000000000048,14.072000000000003,14.836000000000013]",space,0.951,0.0,36.0,36.0,5.0,1.0,,,,,,,,,,,,,
,,,,,,,,,,,block_1/none_n_92_1.wav,no,n,none,92.0,1.720415177,18.30862379,,,,no,,3 years piano as a child and choir through high school,,,,,,1,2020-10-03_10h29.30.435,kura-A1,2020.1.2,MacIntel,60,,,"[""space"",""space"",""space"",""space"",""space"",""space"",""space"",""space"",""space"",""space"",""space"",""space"",""space"",""space"",""space"",""space"",""space"",""space"",""space"",""space"",""space""]","[1.350999999999999,2.211999999999989,2.921999999999912,3.67999999999995,4.392999999999915,5.200999999999908,5.969999999999914,6.723999999999933,7.442000000000007,8.105000000000018,8.83299999999997,9.557999999999993,10.230999999999995,11.033999999999992,11.717999999999961,12.442999999999984,13.177000000000021,13.810999999999922,14.774999999999977,15.448999999999955,16.201999999999998]",space,0.626,0.0,37.0,37.0,20.0,1.0,,,,,,,,,,,,,
,,,,,,,,,,,block_1/medium_n_105_2.wav,no,n,medium,105.0,2.100494097,12.22140113,,,,no,,3 years piano as a child and choir through high school,,,,,,1,2020-10-03_10h29.30.435,kura-A1,2020.1.2,MacIntel,60,,,"[""space"",""space"",""space"",""space"",""space"",""space"",""space"",""space"",""space"",""space"",""space"",""space"",""space"",""space"",""space"",""space""]","[0.9899999999998954,1.6299999999999955,2.172999999999888,2.6269999999999527,3.116000000000099,3.7779999999999063,4.6189999999999145,5.157999999999902,5.683999999999969,6.239999999999895,6.805999999999926,7.370999999999981,7.996999999999957,8.605999999999995,9.301999999999907,9.884999999999991]",space,0.587,0.0,38.0,38.0,3.0,1.0,,,,,,,,,,,,,
,,,,,,,,,,,block_1/weak_n_81_1.wav,no,n,weak,81.0,1.583230306,14.42368382,,,,no,,3 years piano as a child and choir through high school,,,,,,1,2020-10-03_10h29.30.435,kura-A1,2020.1.2,MacIntel,60,,,"[""space"",""space"",""space"",""space"",""space"",""space"",""space"",""space"",""space"",""space"",""space"",""space"",""space"",""space"",""space"",""space""]","[0.6800000000000637,1.3730000000000473,2.4540000000000646,3.302000000000021,4.209000000000174,5.053999999999974,5.84800000000007,6.808999999999969,7.543999999999983,8.262000000000057,9.05600000000004,9.950000000000045,10.668000000000006,11.370000000000005,12.093000000000075,12.84800000000007]",space,0.352,0.0,39.0,39.0,35.0,1.0,,,,,,,,,,,,,
,,,,,,,,,,,block_2/strong_t_105_2.wav,timbre,t,strong,105.0,1.902812304,12.72943362,,,,no,,3 years piano as a child and choir through high school,,,,,,1,2020-10-03_10h29.30.435,kura-A1,2020.1.2,MacIntel,60,,,,,,,,,,,,space,130.215,"[""space"",""space"",""space"",""space"",""space"",""space"",""space"",""space"",""space"",""space"",""space"",""space"",""space"",""space"",""space"",""space"",""space"",""space""]","[1.7029999999999745,2.1870000000001255,2.758000000000038,3.27800000000002,4.0060000000000855,4.499000000000024,4.980000000000018,5.520999999999958,6.0470000000000255,6.5900000000001455,7.158000000000129,7.75,8.403999999999996,8.982999999999947,9.462999999999965,9.973999999999933,10.552000000000362,11.126999999999953]",space,0.471,0.0,0.0,0.0,22.0,1.0,,
,,,,,,,,,,,block_2/none_t_81_1.wav,timbre,t,none,81.0,1.797175978,16.13359321,,,,no,,3 years piano as a child and choir through high school,,,,,,1,2020-10-03_10h29.30.435,kura-A1,2020.1.2,MacIntel,60,,,,,,,,,,,,,,"[""space"",""space"",""space"",""space"",""space"",""space"",""space"",""space"",""space"",""space"",""space"",""space"",""space"",""space""]","[1.01299999999992,1.6879999999998745,2.730000000000018,3.731999999999971,4.711000000000013,5.7569999999998345,6.9220000000000255,8.003999999999905,9.017000000000053,10.114000000000033,11.185999999999922,12.358999999999924,13.54099999999994,15.532999999999902]",space,0.91,0.0,1.0,1.0,11.0,1.0,,
,,,,,,,,,,,block_2/none_t_92_2.wav,timbre,t,none,92.0,1.981316359,18.5242642,,,,no,,3 years piano as a child and choir through high school,,,,,,1,2020-10-03_10h29.30.435,kura-A1,2020.1.2,MacIntel,60,,,,,,,,,,,,,,"[""space"",""space"",""space"",""space"",""space"",""space"",""space"",""space"",""space"",""space"",""space"",""space"",""space"",""space"",""space"",""space"",""space"",""space"",""space"",""space"",""space"",""space"",""space"",""space"",""space"",""space"",""space"",""space""]","[1.9260000000001583,2.4160000000001673,2.9710000000000036,3.4670000000000982,4.020000000000209,4.579000000000178,5.09900000000016,5.642000000000053,6.219000000000051,6.811000000000149,7.329000000000178,7.8680000000001655,8.527000000000044,9.067999999999984,9.624000000000024,10.211000000000013,10.778999999999996,11.38000000000011,11.939000000000078,12.451000000000022,12.934000000000196,13.47400000000016,13.950000000000045,14.523000000000138,15.035000000000082,15.605000000000018,16.192000000000007,16.69900000000007]",space,0.599,0.0,2.0,2.0,18.0,1.0,,
,,,,,,,,,,,block_2/none_t_72_1.wav,timbre,t,none,72.0,1.393664986,20.37801873,,,,no,,3 years piano as a child and choir through high school,,,,,,1,2020-10-03_10h29.30.435,kura-A1,2020.1.2,MacIntel,60,,,,,,,,,,,,,,"[""space"",""space"",""space"",""space"",""space"",""space"",""space"",""space"",""space"",""space"",""space"",""space"",""space"",""space"",""space"",""space"",""space"",""space"",""space"",""space"",""space"",""space"",""space"",""space"",""space"",""space"",""space"",""space"",""space"",""space"",""space"",""space"",""space"",""space"",""space""]","[1.3150000000000546,2.1790000000000873,2.5809999999999036,2.7950000000000728,3.020999999999958,3.258000000000038,3.61200000000008,4.152000000000044,4.6030000000000655,5.106999999999971,5.626999999999953,6.161000000000058,6.6590000000001055,7.276000000000067,7.816000000000031,8.375,8.930000000000064,9.452999999999975,9.995000000000118,10.552000000000135,11.107999999999947,11.632000000000062,12.259000000000015,12.814000000000078,13.423000000000002,14.029999999999973,14.604000000000042,15.144000000000005,15.707000000000107,16.258000000000038,16.770999999999958,17.423000000000002,17.97199999999998,18.587999999999965,19.12799999999993]",space,71.807,0.0,3.0,3.0,23.0,1.0,,
,,,,,,,,,,,block_2/none_t_81_2.wav,timbre,t,none,81.0,2.376288721,21.12975811,,,,no,,3 years piano as a child and choir through high school,,,,,,1,2020-10-03_10h29.30.435,kura-A1,2020.1.2,MacIntel,60,,,,,,,,,,,,,,"[""space"",""space"",""space"",""space"",""space"",""space"",""space"",""space"",""space"",""space"",""space"",""space"",""space"",""space"",""space"",""space"",""space"",""space"",""space"",""space"",""space"",""space"",""space"",""space"",""space"",""space"",""space"",""space"",""space"",""space"",""space"",""space"",""space"",""space"",""space"",""space"",""space"",""space"",""space"",""space"",""space"",""space"",""space""]","[0.9539999999999509,1.2819999999999254,1.6739999999999782,1.9860000000001037,2.4349999999999454,2.8040000000000873,3.1749999999999545,3.5799999999999272,3.9459999999999127,4.3940000000000055,4.849999999999909,5.261999999999944,5.69399999999996,6.097999999999956,6.5219999999999345,6.941000000000031,7.330999999999904,7.7349999999999,8.178000000000111,8.642000000000053,9.091000000000122,9.50500000000011,9.913999999999987,10.267000000000053,10.650000000000091,11.11200000000008,11.534000000000106,11.972999999999956,12.450000000000045,12.874000000000024,13.30600000000004,13.745000000000118,14.19399999999996,14.691000000000031,15.113000000000056,15.595000000000027,16.026000000000067,16.498000000000047,16.95399999999995,17.394999999999982,17.83400000000006,18.220000000000027,18.746000000000095]",space,0.553,0.0,4.0,4.0,10.0,1.0,,
,,,,,,,,,,,block_2/none_t_72_2.wav,timbre,t,none,72.0,2.345629585,20.60318061,,,,no,,3 years piano as a child and choir through high school,,,,,,1,2020-10-03_10h29.30.435,kura-A1,2020.1.2,MacIntel,60,,,,,,,,,,,,,,"[""space"",""space"",""space"",""space"",""space"",""space"",""space"",""space"",""space"",""space"",""space"",""space"",""space"",""space"",""space"",""space"",""space"",""space"",""space"",""space"",""space"",""space"",""space"",""space"",""space"",""space"",""space"",""space"",""space"",""space"",""space"",""space"",""space"",""space"",""space"",""space"",""space""]","[0.9639999999999418,1.3689999999999145,1.8429999999998472,2.300999999999931,2.9710000000000036,3.5139999999998963,4.070999999999913,4.612999999999829,5.134999999999991,5.623000000000047,6.0949999999998,6.588999999999942,7.1099999999999,7.580999999999904,8.037000000000035,8.561999999999898,9.049999999999955,9.636999999999944,10.004999999999882,10.467999999999847,10.889999999999873,11.364000000000033,11.80399999999986,12.258000000000038,12.780999999999949,13.229000000000042,13.692999999999984,14.100999999999885,14.503999999999905,14.981999999999971,15.468999999999824,15.989000000000033,16.468999999999824,16.971000000000004,17.458999999999833,17.896999999999935,18.36999999999989]",space,0.504,0.0,5.0,5.0,21.0,1.0,,
,,,,,,,,,,,block_2/none_t_105_1.wav,timbre,t,none,105.0,2.049885048,16.17201657,,,,no,,3 years piano as a child and choir through high school,,,,,,1,2020-10-03_10h29.30.435,kura-A1,2020.1.2,MacIntel,60,,,,,,,,,,,,,,"[""space"",""space"",""space"",""space"",""space"",""space"",""space"",""space"",""space"",""space"",""space"",""space"",""space"",""space"",""space""]","[0.8170000000000073,1.5289999999999964,2.3689999999999145,3.530999999999949,4.492999999999938,5.4809999999999945,6.316000000000031,7.3689999999999145,8.544999999999845,9.473999999999933,10.368999999999915,11.230000000000018,12.024999999999864,12.817000000000007,13.838999999999942]",space,0.436,0.0,6.0,6.0,17.0,1.0,,
,,,,,,,,,,,block_2/strong_t_81_2.wav,timbre,t,strong,81.0,1.682183604,15.83846478,,,,no,,3 years piano as a child and choir through high school,,,,,,1,2020-10-03_10h29.30.435,kura-A1,2020.1.2,MacIntel,60,,,,,,,,,,,,,,"[""space"",""space"",""space"",""space"",""space"",""space"",""space"",""space"",""space"",""space"",""space"",""space"",""space"",""space"",""space"",""space"",""space"",""space"",""space"",""space""]","[0.650000000000091,1.3859999999999673,2.18100000000004,2.9060000000001764,3.6490000000001146,4.343000000000075,5.066000000000031,5.772000000000162,6.5190000000000055,7.296000000000049,7.98700000000008,8.730000000000018,9.426000000000386,10.234000000000151,10.892000000000053,11.634999999999991,12.433999999999969,13.137000000000171,13.83400000000006,14.488000000000056]",space,0.453,0.0,7.0,7.0,26.0,1.0,,
,,,,,,,,,,,block_2/medium_t_81_2.wav,timbre,t,medium,81.0,1.338539444,16.50597709,,,,no,,3 years piano as a child and choir through high school,,,,,,1,2020-10-03_10h29.30.435,kura-A1,2020.1.2,MacIntel,60,,,,,,,,,,,,,,"[""space"",""space"",""space"",""space"",""space"",""space"",""space"",""space"",""space"",""space"",""space"",""space"",""space"",""space"",""space"",""space"",""space"",""space""]","[1.2660000000000764,2.0930000000000746,2.855000000000018,3.663000000000011,4.476000000000113,5.25200000000018,5.976000000000113,6.82100000000014,7.597000000000207,8.412000000000035,9.183999999999969,9.997000000000071,10.828000000000202,11.613000000000056,12.460000000000036,13.23700000000008,14.030000000000427,14.825000000000045]",space,0.775,0.0,8.0,8.0,7.0,1.0,,
,,,,,,,,,,,block_2/weak_t_119_2.wav,timbre,t,weak,119.0,2.381776461,12.65062,,,,no,,3 years piano as a child and choir through high school,,,,,,1,2020-10-03_10h29.30.435,kura-A1,2020.1.2,MacIntel,60,,,,,,,,,,,,,,"[""space"",""space"",""space"",""space"",""space"",""space"",""space"",""space"",""space"",""space"",""space"",""space"",""space"",""space"",""space"",""space"",""space"",""space""]","[0.90300000000002,1.4710000000000036,1.8070000000000164,2.397999999999911,2.6010000000001128,3.1929999999999836,3.6820000000000164,4.5779999999999745,5.099999999999909,5.472999999999956,6.002999999999929,6.54300000000012,7.108999999999924,7.682999999999993,8.326999999999998,8.982999999999947,9.591000000000122,10.267000000000053]",space,0.611,0.0,9.0,9.0,13.0,1.0,,
,,,,,,,,,,,block_2/medium_t_105_2.wav,timbre,t,medium,105.0,1.583239388,12.36101717,,,,no,,3 years piano as a child and choir through high school,,,,,,1,2020-10-03_10h29.30.435,kura-A1,2020.1.2,MacIntel,60,,,,,,,,,,,,,,"[""space"",""space"",""space"",""space"",""space"",""space"",""space"",""space"",""space"",""space"",""space"",""space"",""space"",""space"",""space"",""space"",""space"",""space"",""space""]","[0.6600000000000819,1.0140000000001237,1.61200000000008,2.1639999999999873,2.6200000000001182,3.116999999999962,3.6700000000000728,4.307000000000016,4.93100000000004,5.508000000000038,6.164999999999964,6.579999999999927,7.073000000000093,7.644999999999982,8.207000000000107,8.788000000000011,9.439000000000078,10.016000000000076,10.655999999999949]",space,0.573,0.0,10.0,10.0,19.0,1.0,,
,,,,,,,,,,,block_2/strong_t_105_1.wav,timbre,t,strong,105.0,2.348438476,14.79111421,,,,no,,3 years piano as a child and choir through high school,,,,,,1,2020-10-03_10h29.30.435,kura-A1,2020.1.2,MacIntel,60,,,,,,,,,,,,,,"[""space"",""space"",""space"",""space"",""space"",""space"",""space"",""space"",""space"",""space"",""space"",""space"",""space"",""space"",""space"",""space"",""space"",""space"",""space""]","[1.2200000000000273,1.740000000000009,2.382000000000062,2.9960000000000946,3.6520000000000437,4.324000000000069,4.940000000000055,5.606999999999971,6.267000000000053,6.891000000000076,7.5150000000001,8.142000000000053,8.782000000000153,9.43600000000015,10.1400000000001,10.82400000000007,11.476000000000113,12.107999999999947,12.749000000000024]",space,0.471,0.0,11.0,11.0,20.0,1.0,,
,,,,,,,,,,,block_2/medium_t_92_1.wav,timbre,t,medium,92.0,1.649670592,15.35429644,,,,no,,3 years piano as a child and choir through high school,,,,,,1,2020-10-03_10h29.30.435,kura-A1,2020.1.2,MacIntel,60,,,,,,,,,,,,,,"[""space"",""space"",""space"",""space"",""space"",""space"",""space"",""space"",""space"",""space"",""space"",""space"",""space"",""space"",""space"",""space"",""space"",""space"",""space"",""space"",""space""]","[0.4919999999999618,0.7260000000001128,1.183999999999969,2.0299999999999727,2.7050000000001546,3.382000000000062,4.003000000000156,4.663000000000011,5.439000000000078,6.115000000000009,6.86200000000008,7.5750000000000455,8.262000000000171,8.984000000000151,9.69600000000014,10.455000000000155,11.15800000000013,11.855999999999995,12.564000000000078,13.340000000000146,13.965000000000146]",space,0.794,0.0,12.0,12.0,36.0,1.0,,
,,,,,,,,,,,block_2/weak_t_92_1.wav,timbre,t,weak,92.0,1.077881565,14.47407204,,,,no,,3 years piano as a child and choir through high school,,,,,,1,2020-10-03_10h29.30.435,kura-A1,2020.1.2,MacIntel,60,,,,,,,,,,,,,,"[""space"",""space"",""space"",""space"",""space"",""space"",""space"",""space"",""space"",""space"",""space"",""space"",""space"",""space"",""space"",""space"",""space"",""space"",""space"",""space""]","[0.2380000000000564,0.9139999999999873,1.622000000000071,2.298000000000002,2.9739999999999327,3.66599999999994,4.382000000000062,5.117999999999938,5.837999999999965,6.4379999999998745,7.054000000000087,7.820999999999913,8.511999999999944,9.222999999999956,9.879999999999882,10.48700000000008,11.110999999999876,11.769999999999982,12.463999999999942,13.105000000000018]",space,0.757,0.0,13.0,13.0,33.0,1.0,,
,,,,,,,,,,,block_2/medium_t_119_1.wav,timbre,t,medium,119.0,2.133191859,13.15799912,,,,no,,3 years piano as a child and choir through high school,,,,,,1,2020-10-03_10h29.30.435,kura-A1,2020.1.2,MacIntel,60,,,,,,,,,,,,,,"[""space"",""space"",""space"",""space"",""space"",""space"",""space"",""space"",""space"",""space"",""space"",""space"",""space"",""space"",""space"",""space""]","[0.7760000000000673,1.4700000000000273,2.144999999999982,2.81899999999996,3.6979999999998654,4.373000000000275,4.913999999999987,5.492999999999938,6.125,6.9809999999999945,7.597999999999956,8.18100000000004,8.701000000000022,9.319999999999936,10.18899999999985,10.771999999999935]",space,0.357,0.0,14.0,14.0,34.0,1.0,,
,,,,,,,,,,,block_2/medium_t_92_2.wav,timbre,t,medium,92.0,2.383848972,15.42820271,,,,no,,3 years piano as a child and choir through high school,,,,,,1,2020-10-03_10h29.30.435,kura-A1,2020.1.2,MacIntel,60,,,,,,,,,,,,,,"[""space"",""space"",""space"",""space"",""space"",""space"",""space"",""space"",""space"",""space"",""space"",""space"",""space"",""space"",""space"",""space"",""space"",""space"",""space"",""space""]","[0.28899999999998727,0.8949999999999818,1.4529999999999745,2.1099999999999,2.8379999999999654,3.4279999999998836,4.06899999999996,4.694999999999936,5.379999999999882,6.08400000000006,6.7719999999999345,7.491999999999962,8.155999999999949,8.867999999999938,9.564000000000078,10.259999999999991,10.95900000000006,11.769000000000005,12.511999999999944,13.187999999999874]",space,0.494,0.0,15.0,15.0,32.0,1.0,,
,,,,,,,,,,,block_2/strong_t_119_2.wav,timbre,t,strong,119.0,1.752168489,11.36699842,,,,no,,3 years piano as a child and choir through high school,,,,,,1,2020-10-03_10h29.30.435,kura-A1,2020.1.2,MacIntel,60,,,,,,,,,,,,,,"[""space"",""space"",""space"",""space"",""space"",""space"",""space"",""space"",""space"",""space"",""space"",""space"",""space"",""space"",""space"",""space"",""space"",""space"",""space""]","[0.7400000000000091,1.106999999999971,1.5550000000000637,2.0240000000001146,2.4780000000000655,3.002999999999929,3.5150000000001,4.065000000000055,4.6059999999999945,5.098999999999933,5.6189999999999145,6.1469999999999345,6.906999999999925,7.476000000000113,8.05099999999993,8.47700000000009,8.928000000000338,9.451999999999998,9.826999999999998]",space,0.411,0.0,16.0,16.0,31.0,1.0,,
,,,,,,,,,,,block_2/none_t_92_1.wav,timbre,t,none,92.0,2.07216362,14.90350149,,,,no,,3 years piano as a child and choir through high school,,,,,,1,2020-10-03_10h29.30.435,kura-A1,2020.1.2,MacIntel,60,,,,,,,,,,,,,,"[""space"",""space"",""space"",""space"",""space"",""space"",""space"",""space"",""space"",""space"",""space"",""space"",""space"",""space"",""space"",""space"",""space""]","[0.625,1.3350000000000364,2.19399999999996,3.0039999999999054,3.7650000000001,4.480000000000018,5.182999999999993,5.886999999999944,6.5190000000000055,7.226000000000113,7.934999999999945,8.644000000000005,9.326999999999998,10.230999999999995,11.063000000000102,11.835000000000036,12.663000000000011]",space,0.438,0.0,17.0,17.0,15.0,1.0,,
,,,,,,,,,,,block_2/strong_t_81_1.wav,timbre,t,strong,81.0,1.294160312,15.54953446,,,,no,,3 years piano as a child and choir through high school,,,,,,1,2020-10-03_10h29.30.435,kura-A1,2020.1.2,MacIntel,60,,,,,,,,,,,,,,"[""space"",""space"",""space"",""space"",""space"",""space"",""space"",""space"",""space"",""space"",""space"",""space"",""space"",""space"",""space"",""space"",""space"",""space"",""space"",""space""]","[1.018000000000029,1.61200000000008,2.2999999999999545,3.0450000000000728,3.7719999999999345,4.55600000000004,5.2719999999999345,5.932000000000016,6.723999999999933,7.41599999999994,8.161000000000058,8.836000000000013,9.528999999999996,10.169000000000096,10.963999999999942,11.653999999999996,12.488000000000056,13.192000000000007,13.950000000000045,14.683999999999969]",space,0.391,0.0,18.0,18.0,30.0,1.0,,
,,,,,,,,,,,block_2/weak_t_105_2.wav,timbre,t,weak,105.0,2.1216156,16.06451809,,,,no,,3 years piano as a child and choir through high school,,,,,,1,2020-10-03_10h29.30.435,kura-A1,2020.1.2,MacIntel,60,,,,,,,,,,,,,,"[""space"",""space"",""space"",""space"",""space"",""space"",""space"",""space"",""space"",""space"",""space"",""space"",""space"",""space"",""space"",""space"",""space"",""space"",""space""]","[0.8430000000000746,1.5720000000001164,2.497000000000071,3.195000000000391,3.8990000000001146,4.625999999999976,5.331000000000131,6.098999999999933,6.826999999999998,7.7650000000001,8.427000000000135,9.098999999999933,9.843000000000075,10.483000000000175,11.202999999999975,11.859000000000151,12.560000000000173,13.372000000000071,14.113000000000056]",space,0.667,0.0,19.0,19.0,2.0,1.0,,
,,,,,,,,,,,block_2/medium_t_72_1.wav,timbre,t,medium,72.0,1.800053144,19.08504181,,,,no,,3 years piano as a child and choir through high school,,,,,,1,2020-10-03_10h29.30.435,kura-A1,2020.1.2,MacIntel,60,,,,,,,,,,,,,,"[""space"",""space"",""space"",""space"",""space"",""space"",""space"",""space"",""space"",""space"",""space"",""space"",""space"",""space"",""space"",""space"",""space"",""space"",""space"",""space""]","[0.2719999999999345,0.8099999999999454,1.5919999999998709,2.47199999999998,3.296000000000049,4.373000000000047,5.352000000000089,6.208000000000084,7.074000000000069,7.807999999999993,8.711999999999989,9.632000000000062,10.535000000000082,11.41599999999994,12.375,13.192000000000007,14.097999999999956,14.990000000000009,15.854000000000042,16.70399999999995]",space,0.894,0.0,20.0,20.0,24.0,1.0,,
,,,,,,,,,,,block_2/medium_t_81_1.wav,timbre,t,medium,81.0,1.868021577,16.02697849,,,,no,,3 years piano as a child and choir through high school,,,,,,1,2020-10-03_10h29.30.435,kura-A1,2020.1.2,MacIntel,60,,,,,,,,,,,,,,"[""space"",""space"",""space"",""space"",""space"",""space"",""space"",""space"",""space"",""space"",""space"",""space"",""space"",""space"",""space"",""space"",""space"",""space"",""space""]","[0.7409999999999854,1.2670000000000528,1.9570000000001073,2.719000000000051,3.4570000000001073,4.16599999999994,4.933999999999969,5.72199999999998,6.466000000000122,7.238000000000056,7.919000000000096,8.660000000000082,9.430000000000064,10.213999999999942,10.975000000000136,11.767000000000053,12.493999999999915,13.134999999999991,13.826999999999998]",space,0.406,0.0,21.0,21.0,4.0,1.0,,
,,,,,,,,,,,block_2/medium_t_72_2.wav,timbre,t,medium,72.0,1.613581299,18.7474135,,,,no,,3 years piano as a child and choir through high school,,,,,,1,2020-10-03_10h29.30.435,kura-A1,2020.1.2,MacIntel,60,,,,,,,,,,,,,,"[""space"",""space"",""space"",""space"",""space"",""space"",""space"",""space"",""space"",""space"",""space"",""space"",""space"",""space"",""space"",""space"",""space"",""space"",""space"",""space""]","[0.2519999999999527,0.7239999999999327,1.4359999999999218,2.395999999999958,3.2089999999998327,4.135999999999967,5.002999999999929,5.906999999999925,6.787000000000035,7.714999999999918,8.627999999999929,9.55600000000004,10.432999999999993,11.267000000000053,12.191000000000258,13.021999999999935,13.860999999999876,14.77299999999991,15.701000000000022,16.614000000000033]",space,0.439,0.0,22.0,22.0,28.0,1.0,,
,,,,,,,,,,,block_2/none_t_105_2.wav,timbre,t,none,105.0,1.468449628,14.54844963,,,,no,,3 years piano as a child and choir through high school,,,,,,1,2020-10-03_10h29.30.435,kura-A1,2020.1.2,MacIntel,60,,,,,,,,,,,,,,"[""space"",""space"",""space"",""space"",""space"",""space"",""space"",""space"",""space"",""space"",""space"",""space"",""space"",""space"",""space""]","[1.586999999999989,2.296000000000049,3.0909999999998945,3.8519999999998618,4.682999999999993,5.430999999999813,6.231999999999971,6.95699999999988,7.739000000000033,8.595000000000027,9.694999999999936,10.538999999999987,11.40300000000002,12.292999999999893,13.11999999999989]",space,0.472,0.0,23.0,23.0,14.0,1.0,,
,,,,,,,,,,,block_2/weak_t_72_2.wav,timbre,t,weak,72.0,2.280914128,17.55202524,,,,no,,3 years piano as a child and choir through high school,,,,,,1,2020-10-03_10h29.30.435,kura-A1,2020.1.2,MacIntel,60,,,,,,,,,,,,,,"[""space"",""space"",""space"",""space"",""space"",""space"",""space"",""space"",""space"",""space"",""space"",""space"",""space"",""space"",""space"",""space"",""space"",""space""]","[0.8280000000002019,1.693000000000211,2.5140000000001237,3.4680000000000746,4.254000000000133,5.068000000000211,5.992000000000189,6.844000000000051,7.7150000000001455,8.516000000000076,9.319000000000187,10.148000000000138,10.889000000000124,11.768000000000029,12.548000000000002,13.337999999999965,14.149000000000115,14.80600000000004]",space,0.454,0.0,24.0,24.0,25.0,1.0,,
,,,,,,,,,,,block_2/strong_t_119_1.wav,timbre,t,strong,119.0,1.599889289,11.56710017,,,,no,,3 years piano as a child and choir through high school,,,,,,1,2020-10-03_10h29.30.435,kura-A1,2020.1.2,MacIntel,60,,,,,,,,,,,,,,"[""space"",""space"",""space"",""space"",""space"",""space"",""space"",""space"",""space"",""space"",""space"",""space"",""space"",""space"",""space"",""space"",""space"",""space"",""space"",""space""]","[0.8289999999999509,1.18100000000004,1.65300000000002,2.1490000000001146,2.58400000000006,3.1920000000000073,3.7329999999999472,4.105000000000018,4.7650000000001,5,5.624000000000024,6.19600000000014,6.688000000000102,7.189000000000078,7.682000000000016,8.240999999999985,8.70900000000006,9.256000000000085,9.743999999999915,10.29300000000012]",space,0.832,0.0,25.0,25.0,27.0,1.0,,
,,,,,,,,,,,block_2/weak_t_72_1.wav,timbre,t,weak,72.0,1.161723604,18.236871,,,,no,,3 years piano as a child and choir through high school,,,,,,1,2020-10-03_10h29.30.435,kura-A1,2020.1.2,MacIntel,60,,,,,,,,,,,,,,"[""space"",""space"",""space"",""space"",""space"",""space"",""space"",""space"",""space"",""space"",""space"",""space"",""space"",""space"",""space"",""space"",""space"",""space"",""space"",""space"",""space""]","[0.7360000000001037,1.413000000000011,2.1059999999999945,2.9329999999999927,3.7940000000000964,4.705000000000155,5.600000000000136,6.494000000000142,7.188000000000102,8.065000000000055,8.917000000000144,9.752999999999929,10.605000000000018,11.441000000000031,12.341000000000122,13.2650000000001,14.045000000000073,14.803000000000111,15.566000000000031,16.373000000000047,17.29300000000012]",space,0.643,0.0,26.0,26.0,29.0,1.0,,
,,,,,,,,,,,block_2/weak_t_105_1.wav,timbre,t,weak,105.0,2.340100097,14.83112051,,,,no,,3 years piano as a child and choir through high school,,,,,,1,2020-10-03_10h29.30.435,kura-A1,2020.1.2,MacIntel,60,,,,,,,,,,,,,,"[""space"",""space"",""space"",""space"",""space"",""space"",""space"",""space"",""space"",""space"",""space"",""space"",""space"",""space"",""space"",""space""]","[0.34199999999987085,0.9199999999998454,1.6079999999999472,2.640999999999849,3.4990000000000236,4.319999999999936,5.207999999999856,5.948999999999842,6.655999999999949,7.416999999999916,8.279999999999973,9.071999999999889,9.779999999999973,10.543999999999869,11.266999999999825,12.041999999999916]",space,0.405,0.0,27.0,27.0,0.0,1.0,,
,,,,,,,,,,,block_2/weak_t_92_2.wav,timbre,t,weak,92.0,1.897128492,17.06302418,,,,no,,3 years piano as a child and choir through high school,,,,,,1,2020-10-03_10h29.30.435,kura-A1,2020.1.2,MacIntel,60,,,,,,,,,,,,,,"[""space"",""space"",""space"",""space"",""space"",""space"",""space"",""space"",""space"",""space"",""space"",""space"",""space"",""space"",""space"",""space"",""space"",""space"",""space"",""space""]","[0.3990000000001146,0.8600000000001273,1.4450000000001637,2.1240000000000236,2.8840000000000146,3.6920000000000073,4.468000000000075,5.261000000000195,5.953000000000202,6.705000000000155,7.492000000000189,8.350000000000136,9.165000000000191,9.920000000000073,10.716000000000122,11.49200000000019,12.269999999999982,13.095000000000027,13.876000000000204,14.700000000000045]",space,0.959,0.0,28.0,28.0,37.0,1.0,,
,,,,,,,,,,,block_2/strong_t_72_1.wav,timbre,t,strong,72.0,1.104397067,17.67881884,,,,no,,3 years piano as a child and choir through high school,,,,,,1,2020-10-03_10h29.30.435,kura-A1,2020.1.2,MacIntel,60,,,,,,,,,,,,,,"[""space"",""space"",""space"",""space"",""space"",""space"",""space"",""space"",""space"",""space"",""space"",""space"",""space"",""space"",""space"",""space"",""space"",""space"",""space"",""space""]","[1.2000000000000455,2.0470000000000255,2.8199999999999363,3.647999999999911,4.471000000000004,5.336000000000013,6.104000000000042,6.974999999999909,7.782999999999902,8.559999999999945,9.386999999999944,10.18100000000004,10.973999999999933,11.79099999999994,12.623000000000047,13.406999999999925,14.164999999999964,15.398999999999887,16.214999999999918,16.971000000000004]",space,0.506,0.0,29.0,29.0,9.0,1.0,,
,,,,,,,,,,,block_2/strong_t_92_2.wav,timbre,t,strong,92.0,2.142189268,15.39026183,,,,no,,3 years piano as a child and choir through high school,,,,,,1,2020-10-03_10h29.30.435,kura-A1,2020.1.2,MacIntel,60,,,,,,,,,,,,,,"[""space"",""space"",""space"",""space"",""space"",""space"",""space"",""space"",""space"",""space"",""space"",""space"",""space"",""space"",""space"",""space"",""space"",""space"",""space"",""space""]","[0.831000000000131,1.4290000000000873,2.20900000000006,2.8570000000001983,3.5230000000001382,4.129000000000133,4.745000000000118,5.449000000000069,6.124000000000024,6.785000000000082,7.457000000000107,8.167000000000144,8.875,9.552000000000135,10.22700000000009,10.93600000000015,11.628000000000156,12.253000000000156,12.969000000000051,13.620000000000118]",space,0.576,0.0,30.0,30.0,3.0,1.0,,
,,,,,,,,,,,block_2/weak_t_81_2.wav,timbre,t,weak,81.0,1.659662472,15.06274637,,,,no,,3 years piano as a child and choir through high school,,,,,,1,2020-10-03_10h29.30.435,kura-A1,2020.1.2,MacIntel,60,,,,,,,,,,,,,,"[""space"",""space"",""space"",""space"",""space"",""space"",""space"",""space"",""space"",""space"",""space"",""space"",""space"",""space"",""space"",""space"",""space"",""space"",""space""]","[1.2840000000001055,1.9459999999999127,2.617999999999938,3.3209999999999127,4.037000000000035,4.711999999999989,5.458000000000084,6.213999999999942,7.059999999999945,7.719000000000051,8.460000000000036,9.057000000000016,9.769000000000005,10.393000000000029,11.127999999999929,11.697000000000116,12.432999999999993,13.153999999999996,14.017000000000053]",space,2.985,0.0,31.0,31.0,5.0,1.0,,
,,,,,,,,,,,block_2/medium_t_119_2.wav,timbre,t,medium,119.0,1.931946566,12.84791029,,,,no,,3 years piano as a child and choir through high school,,,,,,1,2020-10-03_10h29.30.435,kura-A1,2020.1.2,MacIntel,60,,,,,,,,,,,,,,"[""space"",""space"",""space"",""space"",""space"",""space"",""space"",""space"",""space"",""space"",""space"",""space"",""space"",""space"",""space""]","[0.9269999999999072,1.79099999999994,2.4829999999999472,3.1870000000001255,3.91800000000012,4.661000000000058,5.404999999999973,6.067000000000007,6.757000000000062,7.583000000000084,8.29300000000012,8.98700000000008,9.710000000000036,10.403999999999996,11.131000000000085]",space,0.738,0.0,32.0,32.0,38.0,1.0,,
,,,,,,,,,,,block_2/none_t_119_2.wav,timbre,t,none,119.0,1.129624063,11.70173291,,,,no,,3 years piano as a child and choir through high school,,,,,,1,2020-10-03_10h29.30.435,kura-A1,2020.1.2,MacIntel,60,,,,,,,,,,,,,,"[""space"",""space"",""space"",""space"",""space"",""space"",""space"",""space"",""space"",""space"",""space"",""space"",""space""]","[0.8720000000000709,1.622000000000071,2.3659999999999854,3.125,3.872000000000071,4.6440000000000055,5.455000000000155,6.214999999999918,6.968000000000075,7.751999999999953,8.562000000000126,9.393000000000029,10.176000000000158]",space,0.763,0.0,33.0,33.0,35.0,1.0,,
,,,,,,,,,,,block_2/strong_t_72_2.wav,timbre,t,strong,72.0,2.404328943,17.8229684,,,,no,,3 years piano as a child and choir through high school,,,,,,1,2020-10-03_10h29.30.435,kura-A1,2020.1.2,MacIntel,60,,,,,,,,,,,,,,"[""space"",""space"",""space"",""space"",""space"",""space"",""space"",""space"",""space"",""space"",""space"",""space"",""space"",""space"",""space"",""space"",""space"",""space"",""space""]","[1.3759999999999764,2.203999999999951,2.9299999999998363,3.8579999999999472,4.634999999999991,5.3940000000000055,6.160999999999831,6.947999999999865,7.696999999999889,8.483999999999924,9.279999999999973,10.10499999999979,10.856999999999971,11.608999999999924,12.592999999999847,13.346999999999753,14.161999999999807,14.9849999999999,15.74499999999989]",space,0.69,0.0,34.0,34.0,6.0,1.0,,
,,,,,,,,,,,block_2/none_t_119_1.wav,timbre,t,none,119.0,1.241510023,14.60305197,,,,no,,3 years piano as a child and choir through high school,,,,,,1,2020-10-03_10h29.30.435,kura-A1,2020.1.2,MacIntel,60,,,,,,,,,,,,,,"[""space"",""space"",""space"",""space"",""space"",""space"",""space"",""space"",""space"",""space"",""space"",""space"",""space""]","[1.4290000000000873,2.2739999999998872,3.2200000000000273,4.233999999999924,5.230000000000018,6.227000000000089,7.2560000000000855,8.254999999999882,9.215999999999894,10.143000000000029,11.156999999999925,12.034000000000106,12.848999999999933]",space,0.506,0.0,35.0,35.0,39.0,1.0,,
,,,,,,,,,,,block_2/medium_t_105_1.wav,timbre,t,medium,105.0,1.073604292,13.26340021,,,,no,,3 years piano as a child and choir through high school,,,,,,1,2020-10-03_10h29.30.435,kura-A1,2020.1.2,MacIntel,60,,,,,,,,,,,,,,"[""space"",""space"",""space"",""space"",""space"",""space"",""space"",""space"",""space"",""space"",""space"",""space"",""space"",""space""]","[0.9939999999999145,1.8269999999999982,2.714999999999918,3.509999999999991,4.403999999999996,5.018000000000029,5.838999999999942,6.684999999999945,7.52800000000002,8.210000000000036,9.215999999999894,10.010999999999967,10.701999999999998,11.597999999999956]",space,0.506,0.0,36.0,36.0,16.0,1.0,,
,,,,,,,,,,,block_2/strong_t_92_1.wav,timbre,t,strong,92.0,2.398655974,13.52958568,,,,no,,3 years piano as a child and choir through high school,,,,,,1,2020-10-03_10h29.30.435,kura-A1,2020.1.2,MacIntel,60,,,,,,,,,,,,,,"[""space"",""space"",""space"",""space"",""space"",""space"",""space"",""space"",""space"",""space"",""space"",""space"",""space"",""space"",""space"",""space"",""space""]","[1.740000000000009,2.1549999999999727,2.719000000000051,3.326999999999998,3.905999999999949,4.541999999999916,5.170000000000073,5.713999999999942,6.315000000000055,6.837999999999965,7.446999999999889,8.086999999999989,8.644999999999982,9.742999999999938,10.177999999999884,10.770999999999958,11.363000000000056]",space,0.525,0.0,37.0,37.0,1.0,1.0,,
,,,,,,,,,,,block_2/weak_t_119_1.wav,timbre,t,weak,119.0,2.44047477,12.74986253,,,,no,,3 years piano as a child and choir through high school,,,,,,1,2020-10-03_10h29.30.435,kura-A1,2020.1.2,MacIntel,60,,,,,,,,,,,,,,"[""space"",""space"",""space"",""space"",""space"",""space"",""space"",""space"",""space"",""space"",""space""]","[1.6210000000000946,2.4160000000001673,3.3600000000001273,4.22199999999998,5.048999999999978,5.778999999999996,6.585000000000036,7.4650000000001455,8.341000000000122,9.18600000000015,10.012000000000171]",space,0.5,0.0,38.0,38.0,12.0,1.0,,
,,,,,,,,,,,block_2/weak_t_81_1.wav,timbre,t,weak,81.0,1.591601339,16.65690746,,,,no,,3 years piano as a child and choir through high school,,,,,,1,2020-10-03_10h29.30.435,kura-A1,2020.1.2,MacIntel,60,,,,,,,,,,,,,,"[""space"",""space"",""space"",""space"",""space"",""space"",""space"",""space"",""space"",""space"",""space"",""space"",""space"",""space"",""space"",""space"",""space"",""space"",""space""]","[0.9459999999999127,1.7229999999999563,2.4989999999997963,3.2259999999998854,4.003999999999905,4.7289999999998145,5.369999999999891,6.196999999999889,6.982999999999947,7.759999999999991,8.576999999999998,9.462999999999738,10.333999999999833,11.16099999999983,11.91099999999983,12.768999999999778,13.59199999999987,14.403999999999996,15.310999999999922]",space,30.053,0.0,39.0,39.0,8.0,1.0,,
,,,,,,,,,,,,,,,,,,,,,no,,3 years piano as a child and choir through high school,,,,,,1,2020-10-03_10h29.30.435,kura-A1,2020.1.2,MacIntel,60,,,,,,,,,,,,,,,,,,,,,,,space,16.557
