key_resp.keys,key_resp.rt,practice_taps.keys,practice_taps.rt,keyresp.keys,keyresp.rt,practice_stims_loop.thisRepN,practice_stims_loop.thisTrialN,practice_stims_loop.thisN,practice_stims_loop.thisIndex,practice_stims_loop.ran,sndfile,type,tempo,cond,version,delay,dur,Participant Initials,"If you are a MTurk worker, what is your MTurk worker ID?'",Are you wearing headphones?,What are the headphone make and model?,"How many years of musical training, if any, do you have?",Do you have any hearing problems? Please describe,What is your sex (f/m/decline)?,What is your age?,What is your handedness (R/L/ambi)?,Are you currently in a secure and quiet room without a possible interruption?,session,date,expName,psychopyVersion,OS,frameRate,instructions_prompt.keys,instructions_prompt.rt,block1_taps.keys,block1_taps.rt,key_resp_2.keys,key_resp_2.rt,trials.thisRepN,trials.thisTrialN,trials.thisN,trials.thisIndex,trials.ran,key_resp2.keys,key_resp2.rt,block2_taps.keys,block2_taps.rt,key_resp_3.keys,key_resp_3.rt,trials_2.thisRepN,trials_2.thisTrialN,trials_2.thisN,trials_2.thisIndex,trials_2.ran,key_resp_4.keys,key_resp_4.rt,"If you are not an MTurk worker, please provide your email address"
space,16.586,"[""space"",""space""]","[7.730999999912456,10.117000000085682]",space,1.601,0.0,0.0,0.0,3.0,1.0,block_2/strong_t_119_4.wav,timbre,t,strong,119.0,2.380207574,12.24809873,,,Yes,It is a in-ear headphones,0,no,m,43,R,yes,1,2020-09-16_10h16.41.575,kura-A2,2020.1.2,Win32,60,,,,,,,,,,,,,,,,,,,,,,,,,
,,"[""space"",""space"",""space"",""space"",""space"",""space""]","[1.0149999998975545,2.43100000009872,4.637000000104308,6.4709999999031425,9.587000000057742,11.202000000048429]",space,0.126,0.0,1.0,1.0,2.0,1.0,block_1/weak_n_72_4.wav,no,n,weak,72.0,1.922330121,17.89675189,,,Yes,It is a in-ear headphones,0,no,m,43,R,yes,1,2020-09-16_10h16.41.575,kura-A2,2020.1.2,Win32,60,,,,,,,,,,,,,,,,,,,,,,,,,
,,"[""space"",""space""]","[1.1500000001396984,3.9380000000819564]",space,1.322,0.0,2.0,2.0,0.0,1.0,block_1/medium_n_105_3.wav,no,n,medium,105.0,1.683245346,13.36533151,,,Yes,It is a in-ear headphones,0,no,m,43,R,yes,1,2020-09-16_10h16.41.575,kura-A2,2020.1.2,Win32,60,,,,,,,,,,,,,,,,,,,,,,,,,
,,"[""space"",""space"",""space""]","[1.377000000094995,6.969000000040978,8.576000000117347]",space,1.451,0.0,3.0,3.0,1.0,1.0,block_2/medium_t_119_4.wav,timbre,t,medium,119.0,2.073396767,11.89421309,,,Yes,It is a in-ear headphones,0,no,m,43,R,yes,1,2020-09-16_10h16.41.575,kura-A2,2020.1.2,Win32,60,,,,,,,,,,,,,,,,,,,,,,,,,
,,,,,,,,,,,block_1/weak_n_119_3.wav,no,n,weak,119.0,2.459758036,10.81612992,,,Yes,It is a in-ear headphones,0,no,m,43,R,yes,1,2020-09-16_10h16.41.575,kura-A2,2020.1.2,Win32,60,space,6.187,"[""space"",""space"",""space"",""space"",""space"",""space"",""space"",""space"",""space"",""space"",""space"",""space"",""space"",""space"",""space"",""space"",""space"",""space""]","[1.5619999999180436,2.1059999999124557,2.7959999998565763,3.168999999994412,3.800000000046566,4.141000000061467,4.429000000003725,4.785999999847263,5.222999999998137,5.8459999999031425,6.298999999882653,6.675999999977648,7.054000000003725,7.520999999949709,7.912000000011176,8.287000000011176,8.679000000003725,9.229999999981374]",space,1.717,0.0,0.0,0.0,37.0,1.0,,,,,,,,,,,,,,
,,,,,,,,,,,block_1/none_n_81_3.wav,no,n,none,81.0,1.098648096,17.74277508,,,Yes,It is a in-ear headphones,0,no,m,43,R,yes,1,2020-09-16_10h16.41.575,kura-A2,2020.1.2,Win32,60,,,"[""space"",""space"",""space"",""space"",""space"",""space"",""space"",""space"",""space"",""space"",""space"",""space"",""space"",""space"",""space"",""space"",""space"",""space"",""space""]","[0.8880000000353903,1.4250000000465661,2.06899999990128,3.084000000031665,3.422000000020489,4.021999999880791,4.658999999985099,5.114999999990687,7.881000000052154,8.365999999921769,8.820000000065193,9.34899999992922,9.834000000031665,10.450999999884516,10.915000000037253,11.442999999970198,12.084999999962747,12.62100000004284,13.267999999923632]",space,1.489,0.0,1.0,1.0,29.0,1.0,,,,,,,,,,,,,,
,,,,,,,,,,,block_1/strong_n_92_3.wav,no,n,strong,92.0,1.754608557,14.24499404,,,Yes,It is a in-ear headphones,0,no,m,43,R,yes,1,2020-09-16_10h16.41.575,kura-A2,2020.1.2,Win32,60,,,"[""space"",""space"",""space"",""space"",""space"",""space"",""space"",""space"",""space"",""space"",""space"",""space"",""space"",""space"",""space"",""space"",""space"",""space"",""space"",""space"",""space""]","[0.9169999998994172,1.6769999999087304,1.9930000000167638,2.6329999999143183,3.162999999942258,3.8089999998919666,4.403999999864027,5.119999999878928,5.682000000029802,6.296000000089407,6.969000000040978,7.585999999893829,8.227999999886379,8.886999999871477,9.466999999945983,10.101999999955297,10.76699999999255,11.395999999949709,12.07300000009127,12.635000000009313,13.270000000018626]",space,1.204,0.0,2.0,2.0,39.0,1.0,,,,,,,,,,,,,,
,,,,,,,,,,,block_1/weak_n_81_3.wav,no,n,weak,81.0,1.412334255,16.47029344,,,Yes,It is a in-ear headphones,0,no,m,43,R,yes,1,2020-09-16_10h16.41.575,kura-A2,2020.1.2,Win32,60,,,"[""space"",""space"",""space"",""space"",""space"",""space"",""space"",""space"",""space"",""space"",""space"",""space"",""space"",""space"",""space"",""space"",""space"",""space"",""space""]","[0.8419999999459833,2.5149999998975545,3.2259999997913837,4.004999999888241,4.760999999940395,5.458999999798834,6.168999999994412,6.8409999997820705,7.582999999867752,8.464999999850988,9.169999999925494,9.802999999839813,10.665999999968335,11.375,12.031999999890104,12.846999999834225,13.62099999981001,14.402999999932945,15.114999999990687]",space,1.518,0.0,3.0,3.0,30.0,1.0,,,,,,,,,,,,,,
,,,,,,,,,,,block_1/none_n_92_3.wav,no,n,none,92.0,2.336707073,18.23675242,,,Yes,It is a in-ear headphones,0,no,m,43,R,yes,1,2020-09-16_10h16.41.575,kura-A2,2020.1.2,Win32,60,,,"[""space"",""space"",""space"",""space"",""space"",""space"",""space"",""space"",""space"",""space"",""space"",""space"",""space"",""space"",""space"",""space"",""space"",""space"",""space"",""space"",""space"",""space""]","[0.8109999999869615,1.3980000000447035,2.0740000000223517,2.959000000031665,3.9380000000819564,4.6920000000391155,5.399999999906868,6.108999999938533,6.909999999916181,7.854000000050291,8.537999999942258,9.30600000009872,9.975000000093132,10.989000000059605,11.621999999973923,12.304000000003725,13.074000000022352,13.67699999990873,14.381999999983236,14.995000000111759,15.77600000007078,16.472000000067055]",space,1.639,0.0,4.0,4.0,25.0,1.0,,,,,,,,,,,,,,
,,,,,,,,,,,block_1/strong_n_81_3.wav,no,n,strong,81.0,1.6043637,15.60930701,,,Yes,It is a in-ear headphones,0,no,m,43,R,yes,1,2020-09-16_10h16.41.575,kura-A2,2020.1.2,Win32,60,,,"[""space"",""space"",""space"",""space"",""space"",""space"",""space"",""space"",""space"",""space"",""space"",""space"",""space"",""space"",""space"",""space"",""space"",""space"",""space"",""space""]","[1.0560000000987202,1.4760000000242144,2.005000000121072,2.7040000001434237,3.422000000020489,4.184000000124797,4.785000000149012,5.518000000156462,6.295000000158325,6.902000000001863,7.623000000137836,8.324000000022352,9.119000000180677,9.77100000018254,10.506000000052154,11.470000000204891,12.334000000031665,13.077999999979511,13.722000000067055,14.322000000160187]",space,0.944,0.0,5.0,5.0,10.0,1.0,,,,,,,,,,,,,,
,,,,,,,,,,,block_1/none_n_119_3.wav,no,n,none,119.0,1.932281918,14.89500301,,,Yes,It is a in-ear headphones,0,no,m,43,R,yes,1,2020-09-16_10h16.41.575,kura-A2,2020.1.2,Win32,60,,,"[""space"",""space"",""space"",""space"",""space"",""space"",""space"",""space"",""space"",""space"",""space"",""space"",""space"",""space"",""space"",""space"",""space"",""space"",""space"",""space"",""space"",""space"",""space"",""space""]","[0.7719999998807907,1.1749999998137355,1.618999999947846,1.8959999999497086,2.459999999962747,2.791999999899417,3.2600000000093132,3.9369999999180436,4.609999999869615,5.277000000001863,6.76299999980256,7.326999999815598,7.574999999953434,7.673999999882653,8.079999999841675,8.389999999897555,8.812999999849126,9.395000000018626,9.763999999966472,10.239999999990687,10.724999999860302,11.289999999804422,11.812999999849126,13.113999999826774]",space,3.686,0.0,6.0,6.0,24.0,1.0,,,,,,,,,,,,,,
,,,,,,,,,,,block_1/none_n_119_4.wav,no,n,none,119.0,2.009432028,15.37111003,,,Yes,It is a in-ear headphones,0,no,m,43,R,yes,1,2020-09-16_10h16.41.575,kura-A2,2020.1.2,Win32,60,,,"[""space"",""space"",""space"",""space"",""space"",""space"",""space"",""space"",""space"",""space"",""space"",""space"",""space"",""space"",""space"",""space"",""space"",""space"",""space"",""space"",""space"",""space"",""space"",""space""]","[1.1409999998286366,1.621999999973923,2.2169999999459833,2.787999999942258,3.328999999910593,3.912999999942258,4.523999999975786,5.248999999836087,5.740999999921769,6.362999999895692,6.8549999999813735,7.3950000000186265,7.8980000000447035,8.579999999841675,9.162000000011176,9.71999999997206,10.21999999997206,10.761999999871477,11.35399999981746,11.778999999864027,12.246999999973923,12.81499999994412,13.466999999945983,14.023999999975786]",space,35.986,0.0,7.0,7.0,20.0,1.0,,,,,,,,,,,,,,
,,,,,,,,,,,block_1/medium_n_92_3.wav,no,n,medium,92.0,1.602440637,13.28810957,,,Yes,It is a in-ear headphones,0,no,m,43,R,yes,1,2020-09-16_10h16.41.575,kura-A2,2020.1.2,Win32,60,,,"[""space"",""space"",""space"",""space"",""space"",""space"",""space"",""space"",""space"",""space"",""space"",""space""]","[4.846999999834225,6.402999999932945,6.891999999992549,7.661999999778345,8.336999999824911,8.871999999973923,9.596999999834225,10.25,10.729999999981374,11.355999999912456,11.911999999778345,12.490999999921769]",space,14.12,0.0,8.0,8.0,2.0,1.0,,,,,,,,,,,,,,
,,,,,,,,,,,block_1/medium_n_119_4.wav,no,n,medium,119.0,1.261396351,9.568471181,,,Yes,It is a in-ear headphones,0,no,m,43,R,yes,1,2020-09-16_10h16.41.575,kura-A2,2020.1.2,Win32,60,,,"[""space"",""space"",""space"",""space"",""space"",""space"",""space"",""space"",""space"",""space"",""space"",""space"",""space"",""space"",""space"",""space"",""space"",""space""]","[1.090000000083819,1.8410000000149012,2.3850000000093132,2.8109999999869615,3.296000000089407,3.846000000135973,4.162000000011176,4.549000000115484,4.977000000188127,5.5750000001862645,5.86200000019744,6.378000000026077,6.87900000018999,7.32300000009127,7.761000000173226,8.206000000005588,8.628000000026077,9.165000000037253]",space,2.56,0.0,9.0,9.0,17.0,1.0,,,,,,,,,,,,,,
,,,,,,,,,,,block_1/strong_n_105_3.wav,no,n,strong,105.0,1.156897655,12.38746455,,,Yes,It is a in-ear headphones,0,no,m,43,R,yes,1,2020-09-16_10h16.41.575,kura-A2,2020.1.2,Win32,60,,,"[""space"",""space"",""space"",""space"",""space"",""space"",""space"",""space"",""space"",""space"",""space"",""space"",""space"",""space"",""space"",""space"",""space"",""space"",""space"",""space"",""space""]","[0.8529999998863786,1.3910000000614673,1.793999999994412,2.2179999998770654,2.8209999999962747,3.3999999999068677,3.925000000046566,4.550999999977648,5.166999999899417,6.087000000057742,6.287000000011176,6.8869999998714775,7.446999999927357,7.925000000046566,8.649999999906868,9.162999999942258,9.66399999987334,10.278999999864027,10.851999999955297,11.480999999912456,12.037000000011176]",space,1.174,0.0,10.0,10.0,9.0,1.0,,,,,,,,,,,,,,
,,,,,,,,,,,block_1/none_n_105_4.wav,no,n,none,105.0,1.493653366,16.97025201,,,Yes,It is a in-ear headphones,0,no,m,43,R,yes,1,2020-09-16_10h16.41.575,kura-A2,2020.1.2,Win32,60,,,"[""space"",""space"",""space"",""space"",""space"",""space"",""space"",""space"",""space"",""space"",""space"",""space"",""space"",""space"",""space"",""space"",""space"",""space"",""space"",""space"",""space"",""space"",""space"",""space"",""space""]","[0.9369999999180436,1.3969999998807907,1.8889999999664724,3,3.5629999998491257,3.9869999999646097,4.588999999919906,5.237999999895692,5.632999999914318,6.270999999949709,6.86199999996461,7.537000000011176,8.287999999942258,8.847999999998137,9.577000000048429,10.219000000040978,10.78899999987334,11.587999999988824,12.004999999888241,12.720999999903142,13.170999999856576,13.768999999854714,14.294999999925494,14.851000000024214,15.638999999966472]",space,1.055,0.0,11.0,11.0,14.0,1.0,,,,,,,,,,,,,,
,,,,,,,,,,,block_1/weak_n_92_4.wav,no,n,weak,92.0,2.208253857,14.29442166,,,Yes,It is a in-ear headphones,0,no,m,43,R,yes,1,2020-09-16_10h16.41.575,kura-A2,2020.1.2,Win32,60,,,"[""space"",""space"",""space"",""space"",""space"",""space"",""space"",""space"",""space"",""space"",""space"",""space"",""space"",""space"",""space"",""space"",""space"",""space"",""space"",""space"",""space""]","[0.8640000000596046,1.3330000001005828,1.962000000057742,2.6149999999906868,3.283999999985099,3.7690000000875443,4.3489999999292195,4.949000000022352,5.483999999938533,6.040000000037253,6.6070000000763685,7.250999999931082,7.851000000024214,8.416999999899417,9.067000000039116,9.712000000057742,10.317999999970198,11.058999999891967,11.564000000013039,12.199999999953434,12.783999999985099]",space,1.173,0.0,12.0,12.0,15.0,1.0,,,,,,,,,,,,,,
,,,,,,,,,,,block_1/strong_n_72_3.wav,no,n,strong,72.0,2.03136762,17.09667374,,,Yes,It is a in-ear headphones,0,no,m,43,R,yes,1,2020-09-16_10h16.41.575,kura-A2,2020.1.2,Win32,60,,,"[""space"",""space"",""space"",""space"",""space"",""space"",""space"",""space"",""space"",""space"",""space"",""space"",""space"",""space"",""space"",""space"",""space"",""space"",""space"",""space""]","[0.9429999999701977,1.3090000001247972,1.9820000000763685,2.7600000000093132,3.5740000000223517,4.350000000093132,5.16800000006333,5.967000000178814,6.775000000139698,7.662000000011176,8.466000000014901,9.13800000003539,9.99600000004284,10.657000000122935,11.425999999977648,12.192999999970198,13.025000000139698,13.672999999951571,14.434000000124797,15.922000000020489]",space,0.954,0.0,13.0,13.0,32.0,1.0,,,,,,,,,,,,,,
,,,,,,,,,,,block_1/weak_n_72_3.wav,no,n,weak,72.0,1.008682366,16.87657352,,,Yes,It is a in-ear headphones,0,no,m,43,R,yes,1,2020-09-16_10h16.41.575,kura-A2,2020.1.2,Win32,60,,,"[""space"",""space"",""space"",""space"",""space"",""space"",""space"",""space"",""space"",""space"",""space"",""space"",""space"",""space"",""space"",""space"",""space"",""space"",""space"",""space"",""space"",""space""]","[0.9189999999944121,1.4350000000558794,2.0239999999757856,2.743000000016764,3.302000000141561,4.2299999999813735,4.9470000001601875,5.4880000001285225,6.560000000055879,7.256000000052154,8.019000000087544,8.886000000173226,9.570000000065193,10.47400000016205,11.003000000026077,11.803000000072643,12.766000000061467,13.427000000141561,14.25400000018999,15.154000000096858,15.844000000040978,16.706000000005588]",space,1.043,0.0,14.0,14.0,8.0,1.0,,,,,,,,,,,,,,
,,,,,,,,,,,block_1/medium_n_72_3.wav,no,n,medium,72.0,2.102023577,18.17590113,,,Yes,It is a in-ear headphones,0,no,m,43,R,yes,1,2020-09-16_10h16.41.575,kura-A2,2020.1.2,Win32,60,,,"[""space"",""space"",""space"",""space"",""space"",""space"",""space"",""space"",""space"",""space"",""space"",""space"",""space"",""space"",""space"",""space"",""space"",""space"",""space"",""space""]","[0.8819999999832362,1.5100000000093132,2.28899999987334,2.9209999998565763,3.6839999998919666,4.589999999850988,5.4359999999869615,6.197999999858439,6.945999999996275,7.780999999959022,8.640999999828637,9.540999999968335,10.320999999996275,11.174999999813735,11.991999999852851,12.764999999897555,13.6339999998454,14.466000000014901,15.257999999914318,16.15500000002794]",space,0.982,0.0,15.0,15.0,13.0,1.0,,,,,,,,,,,,,,
,,,,,,,,,,,block_1/medium_n_105_4.wav,no,n,medium,105.0,1.402482856,15.80924023,,,Yes,It is a in-ear headphones,0,no,m,43,R,yes,1,2020-09-16_10h16.41.575,kura-A2,2020.1.2,Win32,60,,,"[""space"",""space"",""space"",""space"",""space"",""space"",""space"",""space"",""space"",""space"",""space"",""space"",""space"",""space"",""space"",""space"",""space"",""space"",""space""]","[0.8260000001173466,1.503000000026077,2.0700000000651926,2.883000000147149,3.5760000001173466,4.489000000059605,5.214000000152737,6.141999999992549,6.843000000109896,7.8170000000391155,8.62100000004284,9.377000000094995,10.231000000145286,10.925000000046566,11.729999999981374,12.550000000046566,13.339000000152737,13.988000000128523,14.751000000163913]",space,0.964,0.0,16.0,16.0,12.0,1.0,,,,,,,,,,,,,,
,,,,,,,,,,,block_1/strong_n_119_4.wav,no,n,strong,119.0,1.980480326,12.048825,,,Yes,It is a in-ear headphones,0,no,m,43,R,yes,1,2020-09-16_10h16.41.575,kura-A2,2020.1.2,Win32,60,,,"[""space"",""space"",""space"",""space"",""space"",""space"",""space"",""space"",""space"",""space"",""space"",""space"",""space"",""space"",""space"",""space"",""space"",""space"",""space"",""space""]","[1.0069999999832362,1.496999999973923,2.2339999999385327,2.621000000042841,3.1459999999497086,3.631000000052154,4.159999999916181,4.6809999998658895,5.3109999999869615,5.731999999843538,6.2299999999813735,6.747999999905005,7.239000000059605,7.783999999985099,8.26699999999255,8.81499999994412,9.30599999986589,9.845999999903142,10.352999999886379,10.99600000004284]",space,0.763,0.0,17.0,17.0,23.0,1.0,,,,,,,,,,,,,,
,,,,,,,,,,,block_1/medium_n_72_4.wav,no,n,medium,72.0,1.204769933,15.71334136,,,Yes,It is a in-ear headphones,0,no,m,43,R,yes,1,2020-09-16_10h16.41.575,kura-A2,2020.1.2,Win32,60,,,"[""space"",""space"",""space"",""space"",""space"",""space"",""space"",""space"",""space"",""space"",""space"",""space"",""space"",""space"",""space"",""space"",""space"",""space"",""space"",""space""]","[0.9320000000298023,1.452999999979511,2.1990000000223517,2.9799999999813735,3.627000000094995,4.341000000014901,5.122999999905005,5.908000000054017,6.618000000016764,7.425000000046566,8.182000000029802,9,9.561999999918044,10.303000000072643,10.915999999968335,11.682999999960884,12.465000000083819,13.173999999882653,14.088999999919906,14.786000000080094]",space,0.991,0.0,18.0,18.0,7.0,1.0,,,,,,,,,,,,,,
,,,,,,,,,,,block_1/medium_n_81_3.wav,no,n,medium,81.0,1.199970007,16.72060493,,,Yes,It is a in-ear headphones,0,no,m,43,R,yes,1,2020-09-16_10h16.41.575,kura-A2,2020.1.2,Win32,60,,,"[""space"",""space"",""space"",""space"",""space"",""space"",""space"",""space"",""space"",""space"",""space"",""space"",""space"",""space"",""space"",""space"",""space"",""space"",""space"",""space""]","[0.9480000000912696,1.4229999999515712,2.0079999999143183,2.8970000001136214,3.6170000000856817,4.391000000061467,5.128999999957159,5.986000000033528,6.66800000006333,7.618000000016764,8.402999999932945,9.184000000124797,9.965000000083819,10.847999999998137,11.699999999953434,12.43100000009872,13.330000000074506,14.120000000111759,14.918999999994412,15.830000000074506]",space,0.875,0.0,19.0,19.0,33.0,1.0,,,,,,,,,,,,,,
,,,,,,,,,,,block_1/strong_n_72_4.wav,no,n,strong,72.0,1.599228342,16.96784512,,,Yes,It is a in-ear headphones,0,no,m,43,R,yes,1,2020-09-16_10h16.41.575,kura-A2,2020.1.2,Win32,60,,,"[""space"",""space"",""space"",""space"",""space"",""space"",""space"",""space"",""space"",""space"",""space"",""space"",""space"",""space"",""space"",""space"",""space"",""space"",""space"",""space""]","[1.4379999998491257,1.9239999998826534,2.6739999998826534,3.4350000000558794,4.162000000011176,5.205000000074506,5.962000000057742,6.759000000078231,7.422000000020489,8.300999999977648,9.21099999989383,9.885999999940395,10.910999999847263,11.547999999951571,12.240999999921769,13.126999999862164,13.972999999998137,14.634000000078231,15.43999999994412,16.298999999882653]",space,0.909,0.0,20.0,20.0,35.0,1.0,,,,,,,,,,,,,,
,,,,,,,,,,,block_1/medium_n_92_4.wav,no,n,medium,92.0,1.438882438,14.02917722,,,Yes,It is a in-ear headphones,0,no,m,43,R,yes,1,2020-09-16_10h16.41.575,kura-A2,2020.1.2,Win32,60,,,"[""space"",""space"",""space"",""space"",""space"",""space"",""space"",""space"",""space"",""space"",""space"",""space"",""space"",""space"",""space"",""space"",""space"",""space"",""space""]","[1.0239999999757856,1.8240000000223517,2.290000000037253,2.9269999999087304,3.662999999942258,4.3059999998658895,4.8869999998714775,5.66399999987334,6.189999999944121,6.822999999858439,7.5529999998398125,8.12899999995716,8.909999999916181,9.64699999988079,10.540000000037253,11,11.604999999981374,12.361000000033528,13.045999999856576]",space,0.983,0.0,21.0,21.0,11.0,1.0,,,,,,,,,,,,,,
,,,,,,,,,,,block_1/medium_n_105_3.wav,no,n,medium,105.0,2.417465983,14.09955215,,,Yes,It is a in-ear headphones,0,no,m,43,R,yes,1,2020-09-16_10h16.41.575,kura-A2,2020.1.2,Win32,60,,,"[""space"",""space"",""space"",""space"",""space"",""space"",""space"",""space"",""space"",""space"",""space"",""space"",""space"",""space"",""space"",""space"",""space"",""space"",""space"",""space""]","[0.9350000000558794,1.5800000000745058,2.1940000001341105,2.8389999999199063,3.4229999999515712,3.8970000001136214,4.478000000119209,4.945000000065193,5.563000000081956,6.174000000115484,6.762000000104308,7.316000000108033,7.878000000026077,8.44400000013411,9.077000000048429,9.72800000011921,10.307999999960884,10.810999999986961,11.34499999997206,11.966999999945983]",space,1.375,0.0,22.0,22.0,0.0,1.0,,,,,,,,,,,,,,
,,,,,,,,,,,block_1/none_n_72_3.wav,no,n,none,72.0,1.892162994,23.61892036,,,Yes,It is a in-ear headphones,0,no,m,43,R,yes,1,2020-09-16_10h16.41.575,kura-A2,2020.1.2,Win32,60,,,"[""space"",""space"",""space"",""space"",""space"",""space"",""space"",""space"",""space"",""space"",""space"",""space"",""space"",""space"",""space"",""space"",""space"",""space"",""space"",""space"",""space"",""space"",""space""]","[0.9380000000819564,1.8479999999981374,2.8510000000242144,3.4860000000335276,4.227000000188127,5.1940000001341105,6.059000000124797,7.310000000055879,8.229999999981374,9.234000000171363,10.14199999999255,11.070999999996275,12.235000000102445,13.255000000121072,14.334000000031665,15.231000000145286,16.282000000122935,17.299000000115484,18.209000000031665,18.98200000007637,20.031000000191852,21.55200000014156,22.097000000067055]",space,1.169,0.0,23.0,23.0,18.0,1.0,,,,,,,,,,,,,,
,,,,,,,,,,,block_1/medium_n_81_4.wav,no,n,medium,81.0,1.742854158,16.25138024,,,Yes,It is a in-ear headphones,0,no,m,43,R,yes,1,2020-09-16_10h16.41.575,kura-A2,2020.1.2,Win32,60,,,"[""space"",""space"",""space"",""space"",""space"",""space"",""space"",""space"",""space"",""space"",""space"",""space"",""space"",""space"",""space"",""space"",""space"",""space"",""space"",""space"",""space""]","[1.040999999968335,1.5039999999571592,2.1959999999962747,2.841000000014901,3.70699999993667,4.471000000135973,5.155999999959022,5.864999999990687,6.7410000001545995,7.277999999932945,8.030999999959022,8.72800000011921,9.58199999993667,10.356000000145286,11.002000000094995,11.750999999931082,12.46999999997206,13.13800000003539,14.047000000020489,14.604999999981374,15.322000000160187]",space,1.541,0.0,24.0,24.0,38.0,1.0,,,,,,,,,,,,,,
,,,,,,,,,,,block_1/none_n_92_4.wav,no,n,none,92.0,1.296817987,15.18938035,,,Yes,It is a in-ear headphones,0,no,m,43,R,yes,1,2020-09-16_10h16.41.575,kura-A2,2020.1.2,Win32,60,,,"[""space"",""space"",""space"",""space"",""space"",""space"",""space"",""space"",""space"",""space"",""space"",""space"",""space"",""space"",""space"",""space"",""space"",""space""]","[0.9169999998994172,1.422000000020489,2.1350000000093132,2.780999999959022,3.3500000000931323,4.155999999959022,5.21100000012666,5.8549999999813735,6.5230000000447035,7.32300000009127,8.083000000100583,8.96100000012666,9.588999999919906,10.524999999906868,11.510999999940395,12.411000000080094,13.360000000102445,14.222999999998137]",space,1.191,0.0,25.0,25.0,19.0,1.0,,,,,,,,,,,,,,
,,,,,,,,,,,block_1/weak_n_105_4.wav,no,n,weak,105.0,1.436012468,12.20911904,,,Yes,It is a in-ear headphones,0,no,m,43,R,yes,1,2020-09-16_10h16.41.575,kura-A2,2020.1.2,Win32,60,,,"[""space"",""space"",""space"",""space"",""space"",""space"",""space"",""space"",""space"",""space"",""space"",""space"",""space"",""space"",""space""]","[0.8710000000428408,1.4120000000111759,2.2720000001136214,2.9410000001080334,3.7750000001396984,4.803000000072643,5.907000000122935,6.537999999942258,7.0720000001601875,7.6890000000130385,8.171000000089407,8.98699999996461,9.756000000052154,10.56900000013411,11.462999999988824]",space,1.08,0.0,26.0,26.0,28.0,1.0,,,,,,,,,,,,,,
,,,,,,,,,,,block_1/weak_n_119_4.wav,no,n,weak,119.0,2.305568033,13.07926418,,,Yes,It is a in-ear headphones,0,no,m,43,R,yes,1,2020-09-16_10h16.41.575,kura-A2,2020.1.2,Win32,60,,,"[""space"",""space"",""space"",""space"",""space"",""space"",""space"",""space"",""space"",""space"",""space"",""space"",""space"",""space"",""space"",""space"",""space"",""space"",""space"",""space""]","[0.9779999998863786,1.3179999999701977,1.9029999999329448,2.457999999867752,3.1829999999608845,3.70699999993667,4.192999999970198,4.824999999953434,5.717999999877065,6.179999999934807,6.961999999824911,7.3549999999813735,7.929999999934807,8.419999999925494,8.998999999836087,9.552999999839813,10.145000000018626,10.802999999839813,10.929000000003725,11.545999999856576]",space,0.757,0.0,27.0,27.0,31.0,1.0,,,,,,,,,,,,,,
,,,,,,,,,,,block_1/weak_n_81_4.wav,no,n,weak,81.0,2.484743178,17.5438815,,,Yes,It is a in-ear headphones,0,no,m,43,R,yes,1,2020-09-16_10h16.41.575,kura-A2,2020.1.2,Win32,60,,,"[""space"",""space"",""space"",""space"",""space"",""space"",""space"",""space"",""space"",""space"",""space"",""space"",""space"",""space"",""space"",""space"",""space"",""space"",""space""]","[0.9280000000726432,1.5290000000968575,2.249000000068918,3.386000000173226,3.9320000000298023,4.83600000012666,5.614000000059605,6.457000000169501,7.3109999999869615,7.9359999999869615,8.74600000004284,9.611000000033528,10.363000000128523,11.145000000018626,11.833000000100583,12.628000000026077,13.515000000130385,14.397000000113621,15.197000000160187]",space,1.063,0.0,28.0,28.0,36.0,1.0,,,,,,,,,,,,,,
,,,,,,,,,,,block_1/weak_n_72_4.wav,no,n,weak,72.0,1.441009476,17.41543124,,,Yes,It is a in-ear headphones,0,no,m,43,R,yes,1,2020-09-16_10h16.41.575,kura-A2,2020.1.2,Win32,60,,,"[""space"",""space"",""space"",""space"",""space"",""space"",""space"",""space"",""space"",""space"",""space"",""space"",""space"",""space"",""space"",""space"",""space"",""space"",""space"",""space""]","[0.9580000001005828,2.1410000000614673,2.7639999999664724,3.5640000000130385,4.606000000145286,5.451000000117347,6.260000000009313,7.076000000117347,7.8549999999813735,8.60300000011921,9.374000000068918,10.158999999985099,11.120000000111759,11.878000000026077,12.888999999966472,13.675000000046566,14.324000000022352,15.361000000033528,16.110000000102445,16.790999999968335]",space,0.712,0.0,29.0,29.0,4.0,1.0,,,,,,,,,,,,,,
,,,,,,,,,,,block_1/weak_n_92_3.wav,no,n,weak,92.0,1.887522896,14.6307882,,,Yes,It is a in-ear headphones,0,no,m,43,R,yes,1,2020-09-16_10h16.41.575,kura-A2,2020.1.2,Win32,60,,,"[""space"",""space"",""space"",""space"",""space"",""space"",""space"",""space"",""space"",""space"",""space"",""space"",""space"",""space"",""space"",""space"",""space"",""space"",""space"",""space""]","[0.8399999998509884,1.5509999999776483,2.0549999999348074,2.7549999998882413,3.3619999999646097,3.919999999925494,4.5609999999869615,5.211999999824911,6.100999999791384,6.48699999996461,7.227999999886379,7.8109999999869615,8.56899999990128,9.204999999841675,9.846999999834225,10.530999999959022,11.088999999919906,11.668999999994412,12.27199999988079,12.977999999886379]",space,1.78,0.0,30.0,30.0,5.0,1.0,,,,,,,,,,,,,,
,,,,,,,,,,,block_1/none_n_72_4.wav,no,n,none,72.0,1.118979514,23.86124709,,,Yes,It is a in-ear headphones,0,no,m,43,R,yes,1,2020-09-16_10h16.41.575,kura-A2,2020.1.2,Win32,60,,,"[""space"",""space"",""space"",""space"",""space"",""space"",""space"",""space"",""space"",""space"",""space"",""space"",""space"",""space"",""space"",""space"",""space"",""space"",""space"",""space"",""space"",""space"",""space"",""space"",""space"",""space"",""space"",""space"",""space"",""space"",""space"",""space"",""space""]","[0.947999999858439,1.7600000000093132,2.534999999916181,3.368999999947846,4.1749999998137355,4.572999999858439,5.709999999962747,6.311999999918044,7.091999999945983,7.859999999869615,8.639999999897555,9.342999999877065,10.037999999942258,10.529999999795109,11.289999999804422,11.875999999931082,12.627999999793246,13.017999999923632,13.690999999875203,14.33599999989383,14.869999999878928,15.476999999955297,16.30999999982305,16.94399999990128,17.70299999997951,18.143999999854714,19.419999999925494,19.93499999982305,20.527999999932945,21.30099999997765,22.139999999897555,23.02099999994971,23.557999999960884]",space,1.202,0.0,31.0,31.0,21.0,1.0,,,,,,,,,,,,,,
,,,,,,,,,,,block_1/strong_n_92_4.wav,no,n,strong,92.0,2.276261723,15.98016195,,,Yes,It is a in-ear headphones,0,no,m,43,R,yes,1,2020-09-16_10h16.41.575,kura-A2,2020.1.2,Win32,60,,,"[""space"",""space"",""space"",""space"",""space"",""space"",""space"",""space"",""space"",""space"",""space"",""space"",""space"",""space"",""space"",""space"",""space"",""space"",""space""]","[1.244999999878928,1.8339999997988343,2.519999999785796,3.1439999998547137,4.589999999850988,5.20699999993667,5.939999999944121,6.7159999997820705,7.380999999819323,7.949999999953434,8.791999999899417,9.402999999932945,9.977999999886379,10.629999999888241,11.67699999990873,12.152999999932945,12.877999999793246,13.518999999854714,14.231999999843538]",space,0.975,0.0,32.0,32.0,34.0,1.0,,,,,,,,,,,,,,
,,,,,,,,,,,block_1/weak_n_105_3.wav,no,n,weak,105.0,1.738990723,13.41450093,,,Yes,It is a in-ear headphones,0,no,m,43,R,yes,1,2020-09-16_10h16.41.575,kura-A2,2020.1.2,Win32,60,,,"[""space"",""space"",""space"",""space"",""space"",""space"",""space"",""space"",""space"",""space"",""space"",""space"",""space"",""space"",""space"",""space"",""space"",""space"",""space""]","[1.0069999999832362,1.5200000000186265,2.0190000000875443,2.6419999999925494,3.341000000014901,4.177000000141561,4.715000000083819,5.26300000003539,5.972000000067055,6.699000000022352,7.376000000163913,7.994000000180677,8.533000000054017,9.220000000204891,9.857000000076368,10.430000000167638,11.018000000156462,11.7410000001546,12.44400000013411]",space,0.901,0.0,33.0,33.0,27.0,1.0,,,,,,,,,,,,,,
,,,,,,,,,,,block_1/none_n_81_4.wav,no,n,none,81.0,2.242955119,22.19488256,,,Yes,It is a in-ear headphones,0,no,m,43,R,yes,1,2020-09-16_10h16.41.575,kura-A2,2020.1.2,Win32,60,,,"[""space"",""space"",""space"",""space"",""space"",""space"",""space"",""space"",""space"",""space"",""space"",""space"",""space"",""space"",""space"",""space"",""space"",""space"",""space"",""space"",""space"",""space"",""space"",""space"",""space""]","[0.9980000001378357,1.6730000001844019,2.2450000001117587,2.8200000000651926,3.583000000100583,4.2790000000968575,4.912000000011176,5.927000000141561,6.9359999999869615,7.777000000001863,8.564000000013039,9.37100000004284,10.087000000057742,11.06000000005588,12.16400000010617,13.033999999985099,13.923000000184402,14.570999999996275,15.258000000147149,16.02600000007078,16.89600000018254,17.85700000007637,18.596000000135973,19.39600000018254,20.34000000008382]",space,1.12,0.0,34.0,34.0,26.0,1.0,,,,,,,,,,,,,,
,,,,,,,,,,,block_1/strong_n_119_3.wav,no,n,strong,119.0,1.213627968,10.9792062,,,Yes,It is a in-ear headphones,0,no,m,43,R,yes,1,2020-09-16_10h16.41.575,kura-A2,2020.1.2,Win32,60,,,"[""space"",""space"",""space"",""space"",""space"",""space"",""space"",""space"",""space"",""space"",""space"",""space"",""space"",""space"",""space"",""space"",""space"",""space"",""space"",""space""]","[1.0079999999143183,1.4879999998956919,1.8859999999403954,2.3850000000093132,2.7139999999199063,3.2369999999646097,3.655999999959022,4.213999999919906,4.6510000000707805,5.236000000033528,5.665999999968335,6.122999999905005,6.591999999945983,7.21999999997206,7.7350000001024455,8.120000000111759,8.665000000037253,9.152999999932945,9.577000000048429,10.044999999925494]",space,0.824,0.0,35.0,35.0,16.0,1.0,,,,,,,,,,,,,,
,,,,,,,,,,,block_1/none_n_105_3.wav,no,n,none,105.0,2.216733946,14.87818519,,,Yes,It is a in-ear headphones,0,no,m,43,R,yes,1,2020-09-16_10h16.41.575,kura-A2,2020.1.2,Win32,60,,,"[""space"",""space"",""space"",""space"",""space"",""space"",""space"",""space"",""space"",""space"",""space"",""space"",""space"",""space"",""space"",""space"",""space""]","[0.991999999852851,1.6559999999590218,2.3419999999459833,3.125,3.8899999998975545,4.63800000003539,5.4279999998398125,6.381000000052154,7.0529999998398125,7.822999999858439,8.588999999919906,9.45699999993667,10.091999999945983,10.817999999970198,11.548999999882653,12.2929999998305,13.06899999990128]",space,1.319,0.0,36.0,36.0,6.0,1.0,,,,,,,,,,,,,,
,,,,,,,,,,,block_1/strong_n_105_4.wav,no,n,strong,105.0,1.30585928,13.14087062,,,Yes,It is a in-ear headphones,0,no,m,43,R,yes,1,2020-09-16_10h16.41.575,kura-A2,2020.1.2,Win32,60,,,"[""space"",""space"",""space"",""space"",""space"",""space"",""space"",""space"",""space"",""space"",""space"",""space"",""space"",""space"",""space"",""space"",""space"",""space"",""space"",""space""]","[1.1959999999962747,1.956000000005588,2.407999999821186,3.0059999998193234,3.662999999942258,4.319999999832362,4.855999999912456,5.454999999841675,6.029999999795109,6.689999999944121,7.26299999980256,7.829999999841675,8.416999999899417,9.10399999981746,9.670999999856576,10.220999999903142,10.858999999938533,11.584999999962747,12.119999999878928,12.572999999858439]",space,0.825,0.0,37.0,37.0,3.0,1.0,,,,,,,,,,,,,,
,,,,,,,,,,,block_1/strong_n_81_4.wav,no,n,strong,81.0,1.727706814,17.69954355,,,Yes,It is a in-ear headphones,0,no,m,43,R,yes,1,2020-09-16_10h16.41.575,kura-A2,2020.1.2,Win32,60,,,"[""space"",""space"",""space"",""space"",""space"",""space"",""space"",""space"",""space"",""space"",""space"",""space"",""space"",""space"",""space"",""space"",""space"",""space"",""space"",""space"",""space""]","[1.0059999998193234,1.4299999999348074,2.3649999999906868,3.0670000000391155,3.909999999916181,4.71999999997206,5.665999999968335,6.3459999999031425,7.179999999934807,7.922000000020489,8.757999999914318,9.498999999836087,10.38800000003539,11.194999999832362,12.075999999884516,12.845999999903142,13.557000000029802,14.345999999903142,15.158999999985099,16.131999999983236,16.794999999925494]",space,1.492,0.0,38.0,38.0,1.0,1.0,,,,,,,,,,,,,,
,,,,,,,,,,,block_1/medium_n_119_3.wav,no,n,medium,119.0,1.238363393,11.09976929,,,Yes,It is a in-ear headphones,0,no,m,43,R,yes,1,2020-09-16_10h16.41.575,kura-A2,2020.1.2,Win32,60,,,"[""space"",""space"",""space"",""space"",""space"",""space"",""space"",""space"",""space"",""space"",""space"",""space"",""space"",""space"",""space"",""space""]","[0.9830000000074506,1.9369999999180436,2.6920000000391155,3.6200000001117587,4.3109999999869615,4.881999999983236,5.550999999977648,6.067999999970198,6.618999999947846,7.296000000089407,7.959999999962747,8.534999999916181,9.002000000094995,9.689000000013039,10.165000000037253,10.735000000102445]",space,1.277,0.0,39.0,39.0,22.0,1.0,,,,,,,,,,,,,,
,,,,,,,,,,,block_2/weak_t_72_4.wav,timbre,t,weak,72.0,1.41938316,17.89516547,,,Yes,It is a in-ear headphones,0,no,m,43,R,yes,1,2020-09-16_10h16.41.575,kura-A2,2020.1.2,Win32,60,,,,,,,,,,,,space,12.209,"[""space"",""space"",""space"",""space"",""space"",""space"",""space"",""space"",""space"",""space"",""space"",""space"",""space"",""space"",""space"",""space"",""space"",""space"",""space"",""space"",""space""]","[0.9979999999050051,1.5079999999143183,2.1790000000037253,3.0640000000130385,3.9299999999348074,4.777999999932945,5.63800000003539,6.583000000100583,7.310000000055879,8.09899999992922,9.007999999914318,9.779000000096858,10.811999999918044,11.672000000020489,12.294999999925494,13.087999999988824,13.959000000031665,14.688000000081956,15.477999999886379,16.199999999953434,16.985000000102445]",space,3.366,0.0,0.0,0.0,33.0,1.0,,,
,,,,,,,,,,,block_2/weak_t_92_3.wav,timbre,t,weak,92.0,1.995389518,17.35720358,,,Yes,It is a in-ear headphones,0,no,m,43,R,yes,1,2020-09-16_10h16.41.575,kura-A2,2020.1.2,Win32,60,,,,,,,,,,,,,,"[""space"",""space"",""space"",""space"",""space"",""space"",""space"",""space"",""space"",""space"",""space"",""space"",""space"",""space"",""space"",""space"",""space"",""space"",""space"",""space"",""space""]","[0.9280000000726432,1.540000000037253,2.1610000000800937,3.093000000109896,4.009000000078231,4.854000000050291,5.479000000050291,6.262000000104308,7.162999999942258,7.914000000106171,8.597000000067055,9.374000000068918,10.019000000087544,10.949999999953434,11.712999999988824,12.630000000121072,13.187000000150874,13.925999999977648,14.81499999994412,15.47800000011921,16.330000000074506]",space,4.953,0.0,1.0,1.0,38.0,1.0,,,
,,,,,,,,,,,block_2/weak_t_81_4.wav,timbre,t,weak,81.0,1.138387897,14.33417021,,,Yes,It is a in-ear headphones,0,no,m,43,R,yes,1,2020-09-16_10h16.41.575,kura-A2,2020.1.2,Win32,60,,,,,,,,,,,,,,"[""space"",""space"",""space"",""space"",""space"",""space"",""space"",""space"",""space"",""space"",""space"",""space"",""space"",""space"",""space"",""space"",""space"",""space"",""space"",""space""]","[1.0169999999925494,1.6259999999310821,2.2579999999143183,2.8889999999664724,3.4229999999515712,4.06899999990128,4.756999999983236,5.408000000054017,6.121999999973923,6.736000000033528,7.339999999850988,8.054000000003725,8.783999999985099,9.320999999996275,10.084000000031665,10.770999999949709,11.409999999916181,12.12899999995716,12.845999999903142,13.489000000059605]",space,0.894,0.0,2.0,2.0,0.0,1.0,,,
,,,,,,,,,,,block_2/weak_t_105_3.wav,timbre,t,weak,105.0,1.911505731,13.14248079,,,Yes,It is a in-ear headphones,0,no,m,43,R,yes,1,2020-09-16_10h16.41.575,kura-A2,2020.1.2,Win32,60,,,,,,,,,,,,,,"[""space"",""space"",""space"",""space"",""space"",""space"",""space"",""space"",""space"",""space"",""space"",""space"",""space"",""space"",""space"",""space"",""space"",""space"",""space""]","[0.9439999999012798,1.7109999998938292,2.3950000000186265,2.996000000042841,3.6729999999515712,4.368999999947846,4.9359999999869615,5.403999999864027,5.9769999999552965,6.403999999864027,6.9420000000391155,7.589999999850988,8.324999999953434,8.876999999862164,9.445000000065193,9.942999999970198,10.368999999947846,10.942999999970198,11.562999999849126]",space,1.166,0.0,3.0,3.0,4.0,1.0,,,
,,,,,,,,,,,block_2/none_t_81_4.wav,timbre,t,none,81.0,1.883383873,17.9242909,,,Yes,It is a in-ear headphones,0,no,m,43,R,yes,1,2020-09-16_10h16.41.575,kura-A2,2020.1.2,Win32,60,,,,,,,,,,,,,,"[""space"",""space"",""space"",""space"",""space"",""space"",""space""]","[0.9329999999608845,1.5139999999664724,2.6040000000502914,3.531999999890104,7.047000000020489,12.453999999910593,14.760000000009313]",space,1.164,0.0,4.0,4.0,12.0,1.0,,,
,,,,,,,,,,,block_2/strong_t_72_3.wav,timbre,t,strong,72.0,1.757165856,18.23458082,,,Yes,It is a in-ear headphones,0,no,m,43,R,yes,1,2020-09-16_10h16.41.575,kura-A2,2020.1.2,Win32,60,,,,,,,,,,,,,,"[""space"",""space"",""space"",""space"",""space"",""space"",""space"",""space"",""space"",""space"",""space"",""space"",""space"",""space"",""space"",""space"",""space"",""space"",""space"",""space"",""space""]","[0.9080000000540167,1.3419999999459833,2.1950000000651926,3.074999999953434,3.915000000037253,4.7790000000968575,5.655999999959022,6.510000000009313,7.303000000072643,8.230999999912456,8.962000000057742,9.827999999979511,10.762000000104308,11.699999999953434,12.523000000044703,13.242000000085682,14.110000000102445,14.890000000130385,15.740999999921769,16.55600000009872,17.42299999995157]",space,1.427,0.0,5.0,5.0,5.0,1.0,,,
,,,,,,,,,,,block_2/medium_t_92_4.wav,timbre,t,medium,92.0,1.599417172,14.59601581,,,Yes,It is a in-ear headphones,0,no,m,43,R,yes,1,2020-09-16_10h16.41.575,kura-A2,2020.1.2,Win32,60,,,,,,,,,,,,,,"[""space"",""space"",""space"",""space"",""space"",""space"",""space"",""space"",""space"",""space"",""space"",""space"",""space"",""space"",""space"",""space"",""space"",""space"",""space"",""space""]","[0.9259999999776483,1.422000000020489,1.9420000000391155,2.6829999999608845,3.332999999867752,3.9309999998658895,4.673999999882653,5.317999999970198,5.888999999966472,6.540000000037253,7.2730000000447035,7.933999999891967,8.59499999997206,9.457999999867752,10.10800000000745,10.721999999834225,11.540000000037253,12.040999999968335,12.804000000003725,13.520999999949709]",space,3.184,0.0,6.0,6.0,25.0,1.0,,,
,,,,,,,,,,,block_2/strong_t_105_3.wav,timbre,t,strong,105.0,1.973938856,13.50654657,,,Yes,It is a in-ear headphones,0,no,m,43,R,yes,1,2020-09-16_10h16.41.575,kura-A2,2020.1.2,Win32,60,,,,,,,,,,,,,,"[""space"",""space"",""space"",""space"",""space"",""space"",""space"",""space"",""space"",""space"",""space"",""space"",""space"",""space"",""space"",""space"",""space"",""space"",""space"",""space"",""space""]","[0.9139999998733401,1.3519999999552965,1.8369999998249114,2.409999999916181,3.06899999990128,3.6359999999403954,4.283999999985099,4.78899999987334,5.304999999934807,5.976000000024214,6.570999999996275,7.168999999994412,7.7589999998454005,9.466999999945983,9.486000000033528,9.631999999983236,10.119999999878928,10.717999999877065,11.241999999852851,11.76300000003539,12.385000000009313]",space,1.761,0.0,7.0,7.0,21.0,1.0,,,
,,,,,,,,,,,block_2/none_t_72_3.wav,timbre,t,none,72.0,1.763210745,21.95785927,,,Yes,It is a in-ear headphones,0,no,m,43,R,yes,1,2020-09-16_10h16.41.575,kura-A2,2020.1.2,Win32,60,,,,,,,,,,,,,,"[""space"",""space"",""space"",""space"",""space"",""space"",""space"",""space"",""space"",""space"",""space"",""space"",""space"",""space"",""space"",""space"",""space"",""space"",""space"",""space"",""space"",""space"",""space"",""space"",""space"",""space"",""space"",""space"",""space""]","[1.040000000037253,1.575999999884516,2.256000000052154,2.959000000031665,3.6580000000540167,4.371999999973923,5.1429999999236315,5.844000000040978,6.422000000020489,7.121999999973923,7.706000000005588,8.297000000020489,9.114999999990687,9.908000000054017,10.44399999990128,11.27199999988079,12.031999999890104,12.68099999986589,13.497999999905005,14.26699999999255,14.92699999990873,15.690999999875203,16.631999999983236,17.136999999871477,17.928000000072643,18.837999999988824,19.49099999992177,20.1589999999851,20.774999999906868]",space,1.111,0.0,8.0,8.0,19.0,1.0,,,
,,,,,,,,,,,block_2/weak_t_119_4.wav,timbre,t,weak,119.0,2.497661912,13.1066415,,,Yes,It is a in-ear headphones,0,no,m,43,R,yes,1,2020-09-16_10h16.41.575,kura-A2,2020.1.2,Win32,60,,,,,,,,,,,,,,"[""space"",""space"",""space"",""space"",""space"",""space"",""space"",""space"",""space"",""space"",""space"",""space"",""space"",""space"",""space""]","[0.7970000000204891,1.334000000031665,2.0540000000037253,3.003999999957159,3.6529999999329448,4.339999999850988,4.994999999878928,5.808999999891967,6.652000000001863,7.253999999957159,7.954999999841675,8.714999999850988,9.653999999864027,10.709000000031665,11.266000000061467]",space,1.114,0.0,9.0,9.0,11.0,1.0,,,
,,,,,,,,,,,block_2/strong_t_81_3.wav,timbre,t,strong,81.0,1.276002308,16.49137646,,,Yes,It is a in-ear headphones,0,no,m,43,R,yes,1,2020-09-16_10h16.41.575,kura-A2,2020.1.2,Win32,60,,,,,,,,,,,,,,"[""space"",""space"",""space"",""space"",""space"",""space"",""space"",""space"",""space"",""space"",""space"",""space"",""space"",""space"",""space"",""space"",""space"",""space"",""space"",""space"",""space""]","[1.0679999999701977,1.4520000000484288,2.1920000000391155,3.047000000020489,3.7299999999813735,4.465000000083819,5.255000000121072,6.0230000000447035,6.891000000061467,7.716000000014901,8.347999999998137,9.242000000085682,9.932000000029802,10.686999999918044,11.642999999923632,12.216999999945983,13.003000000026077,13.765000000130385,14.72399999992922,15.333000000100583,16.10400000005029]",space,0.857,0.0,10.0,10.0,24.0,1.0,,,
,,,,,,,,,,,block_2/strong_t_92_3.wav,timbre,t,strong,92.0,2.058598996,15.10526566,,,Yes,It is a in-ear headphones,0,no,m,43,R,yes,1,2020-09-16_10h16.41.575,kura-A2,2020.1.2,Win32,60,,,,,,,,,,,,,,"[""space"",""space"",""space"",""space"",""space"",""space"",""space"",""space"",""space"",""space"",""space"",""space"",""space"",""space"",""space"",""space"",""space"",""space"",""space"",""space"",""space""]","[1.0679999999701977,1.3969999998807907,1.9379999998491257,2.622999999905005,3.1990000000223517,3.8580000000074506,4.582999999867752,5.256000000052154,5.881999999983236,6.655999999959022,7.300999999977648,7.952000000048429,8.625,9.277999999932945,9.947999999858439,10.703999999910593,11.389999999897555,11.92699999990873,12.739000000059605,13.347999999998137,13.980999999912456]",space,14.922,0.0,11.0,11.0,3.0,1.0,,,
,,,,,,,,,,,block_2/weak_t_92_4.wav,timbre,t,weak,92.0,2.338363624,13.8208126,,,Yes,It is a in-ear headphones,0,no,m,43,R,yes,1,2020-09-16_10h16.41.575,kura-A2,2020.1.2,Win32,60,,,,,,,,,,,,,,"[""space"",""space"",""space"",""space"",""space"",""space"",""space"",""space"",""space"",""space"",""space"",""space"",""space"",""space"",""space"",""space"",""space"",""space"",""space""]","[0.9710000001359731,1.3240000000223517,1.959000000031665,2.5310000001918525,3.0250000001396984,3.7750000001396984,4.373000000137836,4.8190000001341105,5.430000000167638,6.187000000150874,6.639000000199303,7.294000000227243,8.169000000227243,8.69400000013411,9.341000000014901,9.97400000016205,10.665000000037253,11.279000000096858,11.872000000206754]",space,1.746,0.0,12.0,12.0,29.0,1.0,,,
,,,,,,,,,,,block_2/strong_t_119_4.wav,timbre,t,strong,119.0,1.529717424,11.39760858,,,Yes,It is a in-ear headphones,0,no,m,43,R,yes,1,2020-09-16_10h16.41.575,kura-A2,2020.1.2,Win32,60,,,,,,,,,,,,,,"[""space"",""space"",""space"",""space"",""space"",""space"",""space"",""space"",""space"",""space"",""space"",""space"",""space"",""space"",""space"",""space"",""space"",""space"",""space"",""space"",""space""]","[1.168999999994412,1.3730000001378357,1.70699999993667,2.1149999999906868,2.5139999999664724,3.0649999999441206,3.6480000000447035,4.063000000081956,4.493000000016764,5.022000000113621,5.796000000089407,5.996999999973923,6.667000000132248,7.101000000024214,7.570000000065193,8.030999999959022,8.611000000033528,9.21100000012666,9.597000000067055,10.154000000096858,10.705000000074506]",space,1.328,0.0,13.0,13.0,39.0,1.0,,,
,,,,,,,,,,,block_2/medium_t_72_3.wav,timbre,t,medium,72.0,1.064285065,17.84451182,,,Yes,It is a in-ear headphones,0,no,m,43,R,yes,1,2020-09-16_10h16.41.575,kura-A2,2020.1.2,Win32,60,,,,,,,,,,,,,,"[""space"",""space"",""space"",""space"",""space"",""space"",""space"",""space"",""space"",""space"",""space"",""space"",""space"",""space"",""space"",""space"",""space"",""space"",""space"",""space"",""space""]","[0.8769999998621643,1.3440000000409782,2.1759999999776483,3.072999999858439,4.0119999998714775,4.773999999975786,5.479000000050291,6.425999999977648,7.344000000040978,8.142999999923632,8.925999999977648,9.846999999834225,10.666999999899417,11.415000000037253,12.2929999998305,13.14199999999255,13.858999999938533,14.729999999981374,15.662000000011176,16.442999999970198,17.251999999862164]",space,0.868,0.0,14.0,14.0,31.0,1.0,,,
,,,,,,,,,,,block_2/weak_t_119_3.wav,timbre,t,weak,119.0,2.134308914,11.54587354,,,Yes,It is a in-ear headphones,0,no,m,43,R,yes,1,2020-09-16_10h16.41.575,kura-A2,2020.1.2,Win32,60,,,,,,,,,,,,,,"[""space"",""space"",""space"",""space"",""space"",""space"",""space"",""space"",""space"",""space"",""space"",""space"",""space"",""space"",""space"",""space""]","[0.8430000001098961,1.537999999942258,2.134000000078231,2.7399999999906868,3.3500000000931323,4.1890000000130385,4.7320000000763685,5.351000000024214,6.050000000046566,6.743000000016764,7.550000000046566,8.02600000007078,8.584999999962747,9.216000000014901,9.851000000024214,10.195999999996275]",space,1.245,0.0,15.0,15.0,13.0,1.0,,,
,,,,,,,,,,,block_2/none_t_105_4.wav,timbre,t,none,105.0,1.723889958,15.53967227,,,Yes,It is a in-ear headphones,0,no,m,43,R,yes,1,2020-09-16_10h16.41.575,kura-A2,2020.1.2,Win32,60,,,,,,,,,,,,,,"[""space"",""space"",""space"",""space"",""space"",""space"",""space"",""space"",""space"",""space"",""space"",""space"",""space""]","[0.8799999998882413,1.3649999999906868,2.084000000031665,2.621000000042841,3.207999999867752,3.922000000020489,4.506999999983236,5.21999999997206,7.412999999942258,8.587999999988824,9.719000000040978,11.018999999854714,11.91800000006333]",space,0.87,0.0,16.0,16.0,20.0,1.0,,,
,,,,,,,,,,,block_2/strong_t_72_4.wav,timbre,t,strong,72.0,1.957123463,17.07435702,,,Yes,It is a in-ear headphones,0,no,m,43,R,yes,1,2020-09-16_10h16.41.575,kura-A2,2020.1.2,Win32,60,,,,,,,,,,,,,,"[""space"",""space"",""space"",""space"",""space"",""space"",""space"",""space"",""space"",""space"",""space"",""space"",""space"",""space"",""space"",""space"",""space"",""space"",""space"",""space""]","[1.1459999999497086,1.7739999999757856,2.496000000042841,3.33199999993667,4.199999999953434,5.165000000037253,5.759000000078231,6.4850000001024455,7.212999999988824,8.074000000022352,8.864000000059605,9.497999999905005,10.347000000067055,11.031999999890104,11.800999999977648,12.617000000085682,13.254999999888241,13.972999999998137,14.897000000113621,15.48699999996461]",space,2.3,0.0,17.0,17.0,1.0,1.0,,,
,,,,,,,,,,,block_2/medium_t_81_3.wav,timbre,t,medium,81.0,1.280563259,13.87394194,,,Yes,It is a in-ear headphones,0,no,m,43,R,yes,1,2020-09-16_10h16.41.575,kura-A2,2020.1.2,Win32,60,,,,,,,,,,,,,,"[""space"",""space"",""space"",""space"",""space"",""space"",""space"",""space"",""space"",""space"",""space"",""space"",""space"",""space"",""space"",""space"",""space"",""space"",""space"",""space""]","[0.8789999999571592,1.3440000000409782,1.8019999999087304,2.5429999998304993,3.047000000020489,3.8070000000298023,4.550999999977648,5.25,5.841000000014901,6.635999999940395,7.321999999927357,8.05199999990873,8.471999999834225,9.096999999834225,10.28000000002794,10.541999999899417,11.062999999849126,11.643999999854714,12.325999999884516,13.040999999968335]",space,0.877,0.0,18.0,18.0,8.0,1.0,,,
,,,,,,,,,,,block_2/none_t_92_3.wav,timbre,t,none,92.0,1.328085357,13.39815338,,,Yes,It is a in-ear headphones,0,no,m,43,R,yes,1,2020-09-16_10h16.41.575,kura-A2,2020.1.2,Win32,60,,,,,,,,,,,,,,"[""space"",""space"",""space"",""space"",""space"",""space"",""space"",""space"",""space"",""space"",""space"",""space"",""space"",""space""]","[0.9199999999254942,1.5160000000614673,2.2199999999720603,3.287999999942258,4.102999999886379,4.733999999938533,5.703999999910593,6.45699999993667,7.253000000026077,8.024999999906868,8.730999999912456,9.727999999886379,10.990999999921769,11.895999999949709]",space,2.824,0.0,19.0,19.0,17.0,1.0,,,
,,,,,,,,,,,block_2/medium_t_81_4.wav,timbre,t,medium,81.0,2.313262111,15.10881767,,,Yes,It is a in-ear headphones,0,no,m,43,R,yes,1,2020-09-16_10h16.41.575,kura-A2,2020.1.2,Win32,60,,,,,,,,,,,,,,"[""space"",""space"",""space"",""space"",""space"",""space"",""space"",""space"",""space"",""space"",""space"",""space"",""space"",""space"",""space"",""space"",""space"",""space"",""space"",""space""]","[0.9189999999944121,1.6950000000651926,2.4750000000931323,3.046000000089407,3.7609999999403954,4.334999999962747,5.047999999951571,5.631999999983236,6.5,6.932000000029802,7.591000000014901,8.351999999955297,8.963999999919906,9.57300000009127,10.22800000011921,10.84899999992922,12.72800000011921,12.729999999981374,12.78000000002794,13.71099999989383]",space,2.488,0.0,20.0,20.0,2.0,1.0,,,
,,,,,,,,,,,block_2/none_t_72_4.wav,timbre,t,none,72.0,1.053800106,24.75334659,,,Yes,It is a in-ear headphones,0,no,m,43,R,yes,1,2020-09-16_10h16.41.575,kura-A2,2020.1.2,Win32,60,,,,,,,,,,,,,,"[""space"",""space"",""space"",""space"",""space"",""space"",""space"",""space"",""space"",""space"",""space"",""space"",""space"",""space"",""space"",""space"",""space"",""space"",""space"",""space"",""space"",""space"",""space"",""space"",""space"",""space"",""space"",""space"",""space"",""space"",""space"",""space"",""space"",""space"",""space"",""space""]","[1.883000000147149,2.4910000001545995,3.331000000005588,4.313000000081956,5.047000000020489,5.516999999992549,6.251000000163913,6.9820000000763685,7.540999999968335,8.107000000076368,8.78900000010617,9.317000000039116,9.981000000145286,10.742000000085682,11.364999999990687,11.755000000121072,12.533000000054017,12.98300000000745,13.574999999953434,14.202000000048429,14.86199999996461,15.525000000139698,16.067000000039116,16.7750000001397,17.597999999998137,18.280999999959022,18.714000000152737,19.65100000007078,20.23200000007637,20.783000000054017,21.29700000002049,21.959000000031665,22.631000000052154,23.16300000017509,23.833000000100583,24.4910000001546]",space,1.198,0.0,21.0,21.0,15.0,1.0,,,
,,,,,,,,,,,block_2/medium_t_119_3.wav,timbre,t,medium,119.0,1.894752713,10.65330147,,,Yes,It is a in-ear headphones,0,no,m,43,R,yes,1,2020-09-16_10h16.41.575,kura-A2,2020.1.2,Win32,60,,,,,,,,,,,,,,"[""space"",""space"",""space"",""space"",""space"",""space"",""space"",""space"",""space"",""space"",""space"",""space"",""space"",""space"",""space"",""space"",""space"",""space""]","[0.9639999999199063,1.4990000000689179,2.003000000026077,2.4679999998770654,2.841000000014901,3.303000000072643,3.7519999998621643,4.293999999994412,4.746999999973923,5.372999999905005,6.06899999990128,6.814999999944121,7.11199999996461,7.618000000016764,8.347999999998137,8.974999999860302,9.169999999925494,9.597000000067055]",space,1.632,0.0,22.0,22.0,37.0,1.0,,,
,,,,,,,,,,,block_2/weak_t_81_3.wav,timbre,t,weak,81.0,1.745235196,18.01484971,,,Yes,It is a in-ear headphones,0,no,m,43,R,yes,1,2020-09-16_10h16.41.575,kura-A2,2020.1.2,Win32,60,,,,,,,,,,,,,,"[""space"",""space"",""space"",""space"",""space"",""space"",""space"",""space"",""space"",""space"",""space"",""space"",""space"",""space"",""space"",""space"",""space"",""space"",""space"",""space"",""space"",""space"",""space""]","[0.9359999999869615,1.490999999921769,2.074999999953434,2.6359999999403954,3.28899999987334,4.023999999975786,4.7320000000763685,5.615999999921769,6.518999999854714,7.263999999966472,7.920999999856576,8.697999999858439,9.53899999987334,10.452000000048429,11.219000000040978,11.959999999962747,12.699000000022352,13.544999999925494,14.18099999986589,14.979000000050291,15.78899999987334,16.378000000026077,17.11599999992177]",space,0.967,0.0,23.0,23.0,6.0,1.0,,,
,,,,,,,,,,,block_2/none_t_81_3.wav,timbre,t,none,81.0,2.3234515,21.58667145,,,Yes,It is a in-ear headphones,0,no,m,43,R,yes,1,2020-09-16_10h16.41.575,kura-A2,2020.1.2,Win32,60,,,,,,,,,,,,,,"[""space"",""space"",""space"",""space"",""space"",""space"",""space"",""space"",""space"",""space"",""space"",""space"",""space"",""space"",""space"",""space"",""space"",""space"",""space"",""space"",""space"",""space"",""space"",""space"",""space""]","[1.08199999993667,1.4399999999441206,2.3500000000931323,3.006000000052154,3.780999999959022,4.646999999880791,5.46999999997206,6.172999999951571,7.135999999940395,7.972999999998137,8.744999999878928,9.688000000081956,10.469000000040978,11.229999999981374,12.06499999994412,12.780999999959022,13.565999999875203,14.39199999999255,15.239000000059605,15.965000000083819,16.85299999988638,17.760999999940395,18.450999999884516,19.39199999999255,20.011999999871477]",space,1.027,0.0,24.0,24.0,10.0,1.0,,,
,,,,,,,,,,,block_2/strong_t_119_3.wav,timbre,t,strong,119.0,2.177542179,13.00520658,,,Yes,It is a in-ear headphones,0,no,m,43,R,yes,1,2020-09-16_10h16.41.575,kura-A2,2020.1.2,Win32,60,,,,,,,,,,,,,,"[""space"",""space"",""space"",""space"",""space"",""space"",""space"",""space"",""space"",""space"",""space"",""space"",""space"",""space"",""space"",""space"",""space"",""space"",""space"",""space""]","[1.1100000001024455,1.6859999999869615,2.297000000020489,2.6859999999869615,3.256999999983236,4.106000000145286,4.523999999975786,5.057000000029802,5.483000000007451,6.053000000072643,6.621000000042841,7.187000000150874,7.760999999940395,8.222999999998137,8.856000000145286,9.40100000007078,9.927000000141561,10.687000000150874,11.172000000020489,11.638999999966472]",space,0.919,0.0,25.0,25.0,28.0,1.0,,,
,,,,,,,,,,,block_2/strong_t_105_4.wav,timbre,t,strong,105.0,1.910106179,12.02788396,,,Yes,It is a in-ear headphones,0,no,m,43,R,yes,1,2020-09-16_10h16.41.575,kura-A2,2020.1.2,Win32,60,,,,,,,,,,,,,,"[""space"",""space"",""space"",""space"",""space"",""space"",""space"",""space"",""space"",""space"",""space"",""space"",""space"",""space"",""space"",""space"",""space"",""space"",""space"",""space"",""space""]","[0.9109999998472631,1.490999999921769,1.997999999905005,2.4339999998919666,2.8499999998603016,3.3539999998174608,3.8889999999664724,4.507999999914318,4.945999999996275,5.342999999877065,5.8140000000130385,6.347999999998137,6.9390000000130385,7.295999999856576,7.8489999999292195,8.397999999811873,8.862999999895692,9.26299999980256,9.871999999973923,10.432999999960884,10.843999999808148]",space,1.86,0.0,26.0,26.0,18.0,1.0,,,
,,,,,,,,,,,block_2/none_t_105_3.wav,timbre,t,none,105.0,1.906849656,15.72757528,,,Yes,It is a in-ear headphones,0,no,m,43,R,yes,1,2020-09-16_10h16.41.575,kura-A2,2020.1.2,Win32,60,,,,,,,,,,,,,,"[""space"",""space"",""space"",""space"",""space"",""space"",""space"",""space"",""space"",""space"",""space"",""space"",""space"",""space"",""space"",""space"",""space"",""space"",""space"",""space"",""space"",""space"",""space"",""space""]","[0.950999999884516,1.5679999999701977,2.253000000026077,2.8359999998938292,3.329999999841675,4.116999999852851,4.605999999912456,5.199999999953434,5.765999999828637,6.353999999817461,6.8489999999292195,7.4359999999869615,7.961999999824911,8.571999999927357,9.197999999858439,9.826999999815598,10.45699999993667,11.16399999987334,11.507999999914318,12.166999999899417,12.52199999988079,13.14699999988079,13.84899999992922,14.46099999989383]",space,0.878,0.0,27.0,27.0,14.0,1.0,,,
,,,,,,,,,,,block_2/none_t_92_4.wav,timbre,t,none,92.0,1.414044957,16.25508804,,,Yes,It is a in-ear headphones,0,no,m,43,R,yes,1,2020-09-16_10h16.41.575,kura-A2,2020.1.2,Win32,60,,,,,,,,,,,,,,"[""space"",""space"",""space"",""space"",""space"",""space"",""space"",""space"",""space"",""space"",""space"",""space"",""space"",""space"",""space"",""space"",""space"",""space"",""space"",""space"",""space"",""space"",""space"",""space"",""space""]","[0.9830000000074506,1.5420000001322478,2.0760000001173466,2.6790000000037253,3.378999999957159,3.9029999999329448,4.7730000000447035,5.160000000149012,5.731000000145286,6.451000000117347,7.025000000139698,7.652000000001863,8.35300000011921,9.025000000139698,9.773999999975786,10.54300000006333,11.373000000137836,11.68999999994412,12.286000000080094,12.613000000128523,13.30600000009872,13.775000000139698,14.820999999996275,15.053000000072643,15.716999999945983]",space,0.957,0.0,28.0,28.0,22.0,1.0,,,
,,,,,,,,,,,block_2/none_t_119_3.wav,timbre,t,none,119.0,1.207484261,12.32644118,,,Yes,It is a in-ear headphones,0,no,m,43,R,yes,1,2020-09-16_10h16.41.575,kura-A2,2020.1.2,Win32,60,,,,,,,,,,,,,,"[""space"",""space"",""space"",""space"",""space"",""space"",""space"",""space"",""space"",""space"",""space"",""space"",""space"",""space"",""space"",""space"",""space"",""space"",""space""]","[0.9720000000670552,1.6580000000540167,2.2199999999720603,2.9920000000856817,4.456000000005588,4.457000000169501,4.457000000169501,4.975000000093132,5.509000000078231,6.305000000167638,6.775000000139698,7.38800000003539,8.072000000160187,8.609000000171363,9.208000000100583,9.779000000096858,10.346000000135973,11.033000000054017,11.495000000111759]",space,4.272,0.0,29.0,29.0,32.0,1.0,,,
,,,,,,,,,,,block_2/medium_t_105_3.wav,timbre,t,medium,105.0,1.319167427,12.09599282,,,Yes,It is a in-ear headphones,0,no,m,43,R,yes,1,2020-09-16_10h16.41.575,kura-A2,2020.1.2,Win32,60,,,,,,,,,,,,,,"[""space"",""space"",""space"",""space"",""space"",""space"",""space"",""space"",""space"",""space"",""space"",""space"",""space"",""space"",""space"",""space"",""space"",""space"",""space"",""space"",""space""]","[0.9490000000223517,1.4729999999981374,1.8630000001285225,2.68100000009872,3.0130000000353903,3.6100000001024455,4.152999999932945,4.922999999951571,5.483000000007451,6.09499999997206,6.843000000109896,7.063000000081956,7.277000000001863,7.900000000139698,8.983999999938533,8.998000000137836,9.512000000104308,10.093000000109896,10.58199999993667,11.114000000059605,11.735000000102445]",space,5.465,0.0,30.0,30.0,16.0,1.0,,,
,,,,,,,,,,,block_2/medium_t_92_3.wav,timbre,t,medium,92.0,1.388240232,13.37372776,,,Yes,It is a in-ear headphones,0,no,m,43,R,yes,1,2020-09-16_10h16.41.575,kura-A2,2020.1.2,Win32,60,,,,,,,,,,,,,,"[""space"",""space"",""space"",""space"",""space"",""space"",""space"",""space"",""space"",""space"",""space"",""space"",""space"",""space"",""space"",""space"",""space"",""space"",""space"",""space""]","[1.0979999999981374,1.6140000000596046,2.0630000000819564,2.6840000001247972,3.1820000000298023,3.808000000193715,4.385000000009313,4.966000000014901,5.5750000001862645,6.177000000141561,6.832000000169501,7.562000000150874,8.047000000020489,8.631999999983236,9.23300000000745,9.971000000135973,10.533999999985099,11.18100000009872,11.726000000024214,12.315000000176951]",space,1.109,0.0,31.0,31.0,35.0,1.0,,,
,,,,,,,,,,,block_2/medium_t_105_4.wav,timbre,t,medium,105.0,1.80685877,13.54300389,,,Yes,It is a in-ear headphones,0,no,m,43,R,yes,1,2020-09-16_10h16.41.575,kura-A2,2020.1.2,Win32,60,,,,,,,,,,,,,,"[""space"",""space"",""space"",""space"",""space"",""space"",""space"",""space"",""space"",""space"",""space"",""space"",""space"",""space"",""space"",""space"",""space"",""space"",""space""]","[0.8810000000521541,1.6990000000223517,2.1470000001136214,2.8559999999124557,3.43100000009872,3.9720000000670552,4.590000000083819,5.165000000037253,5.88800000003539,6.539000000106171,7.239000000059605,7.820000000065193,8.533000000054017,9.250999999931082,9.71999999997206,10.408000000054017,10.880000000121072,11.56899999990128,12.125]",space,0.971,0.0,32.0,32.0,23.0,1.0,,,
,,,,,,,,,,,block_2/none_t_119_4.wav,timbre,t,none,119.0,2.16972576,11.23222009,,,Yes,It is a in-ear headphones,0,no,m,43,R,yes,1,2020-09-16_10h16.41.575,kura-A2,2020.1.2,Win32,60,,,,,,,,,,,,,,"[""space"",""space"",""space"",""space"",""space"",""space"",""space"",""space"",""space"",""space"",""space"",""space""]","[0.9389999997802079,1.5469999997876585,2.272999999811873,2.875999999931082,3.4020000000018626,4.0149999998975545,4.63799999980256,5.332999999867752,6.640999999828637,7.597999999998137,9.255999999819323,10.578999999910593]",space,0.78,0.0,33.0,33.0,27.0,1.0,,,
,,,,,,,,,,,block_2/weak_t_72_3.wav,timbre,t,weak,72.0,1.543417886,17.01208002,,,Yes,It is a in-ear headphones,0,no,m,43,R,yes,1,2020-09-16_10h16.41.575,kura-A2,2020.1.2,Win32,60,,,,,,,,,,,,,,"[""space"",""space"",""space"",""space"",""space"",""space"",""space"",""space"",""space"",""space"",""space"",""space"",""space"",""space"",""space"",""space"",""space"",""space"",""space"",""space"",""space""]","[0.8989999999757856,1.4250000000465661,1.9520000000484288,2.5559999998658895,3.3610000000335276,4.108000000007451,4.878000000026077,5.59499999997206,6.291999999899417,7.1429999999236315,7.986000000033528,8.800999999977648,9.658999999985099,10.442000000039116,11.244999999878928,12.195999999996275,12.807000000029802,13.672999999951571,14.611000000033528,15.433999999891967,15.984999999869615]",space,1.097,0.0,34.0,34.0,26.0,1.0,,,
,,,,,,,,,,,block_2/strong_t_92_4.wav,timbre,t,strong,92.0,1.817525361,14.05856845,,,Yes,It is a in-ear headphones,0,no,m,43,R,yes,1,2020-09-16_10h16.41.575,kura-A2,2020.1.2,Win32,60,,,,,,,,,,,,,,"[""space"",""space"",""space"",""space"",""space"",""space"",""space"",""space"",""space"",""space"",""space"",""space"",""space"",""space"",""space"",""space"",""space"",""space"",""space""]","[1.2749999999068677,1.6520000000018626,2.3940000000875443,3.2209999999031425,3.618000000016764,4.1920000000391155,4.763999999966472,5.476000000024214,6.144000000087544,6.692999999970198,7.725000000093132,8.030999999959022,8.740999999921769,9.234999999869615,10.074000000022352,10.56000000005588,11.088999999919906,11.851000000024214,12.619999999878928]",space,0.911,0.0,35.0,35.0,9.0,1.0,,,
,,,,,,,,,,,block_2/weak_t_105_4.wav,timbre,t,weak,105.0,1.205192231,12.73516956,,,Yes,It is a in-ear headphones,0,no,m,43,R,yes,1,2020-09-16_10h16.41.575,kura-A2,2020.1.2,Win32,60,,,,,,,,,,,,,,"[""space"",""space"",""space"",""space"",""space"",""space"",""space"",""space"",""space"",""space"",""space"",""space"",""space"",""space"",""space"",""space"",""space"",""space"",""space"",""space""]","[1.1319999999832362,1.4349999998230487,2.147999999811873,2.7999999998137355,3.3019999999087304,3.90099999983795,4.505999999819323,4.962999999988824,5.415999999968335,6.221999999834225,6.665999999968335,7.217999999877065,7.649999999906868,8.311999999918044,9.250999999931082,9.471999999834225,10.138999999966472,10.632999999914318,11.25399999995716,11.811999999918044]",space,6.968,0.0,36.0,36.0,7.0,1.0,,,
,,,,,,,,,,,block_2/medium_t_119_4.wav,timbre,t,medium,119.0,2.1713947,11.99221103,,,Yes,It is a in-ear headphones,0,no,m,43,R,yes,1,2020-09-16_10h16.41.575,kura-A2,2020.1.2,Win32,60,,,,,,,,,,,,,,"[""space"",""space"",""space"",""space"",""space"",""space"",""space"",""space"",""space"",""space"",""space"",""space"",""space"",""space"",""space"",""space"",""space"",""space""]","[0.9020000000018626,1.551000000210479,2.2690000000875443,2.6500000001396984,3.540000000037253,3.9630000002216548,4.452000000048429,5.049000000115484,5.597999999998137,6.245000000111759,6.673000000184402,7.214000000152737,7.494000000180677,8.011000000173226,8.583000000100583,9.221000000135973,9.637000000104308,10.468000000109896]",space,0.928,0.0,37.0,37.0,30.0,1.0,,,
,,,,,,,,,,,block_2/medium_t_72_4.wav,timbre,t,medium,72.0,1.912133969,19.94959429,,,Yes,It is a in-ear headphones,0,no,m,43,R,yes,1,2020-09-16_10h16.41.575,kura-A2,2020.1.2,Win32,60,,,,,,,,,,,,,,"[""space"",""space"",""space"",""space"",""space"",""space"",""space"",""space"",""space"",""space"",""space"",""space"",""space"",""space"",""space"",""space"",""space"",""space"",""space"",""space"",""space""]","[1.0679999999701977,1.6500000001396984,2.415999999968335,3.5270000000018626,4.136000000173226,5.103000000119209,5.736000000033528,6.701000000117347,7.592000000178814,8.3660000001546,9.175999999977648,10.34499999997206,11.018000000156462,12.252000000094995,13.07300000009127,14.18100000009872,14.863000000128523,15.898999999975786,16.727000000188127,17.81500000017695,18.851000000024214]",space,1.066,0.0,38.0,38.0,36.0,1.0,,,
,,,,,,,,,,,block_2/strong_t_81_4.wav,timbre,t,strong,81.0,1.059530738,15.41717246,,,Yes,It is a in-ear headphones,0,no,m,43,R,yes,1,2020-09-16_10h16.41.575,kura-A2,2020.1.2,Win32,60,,,,,,,,,,,,,,"[""space"",""space"",""space"",""space"",""space"",""space"",""space"",""space"",""space"",""space"",""space"",""space"",""space"",""space"",""space"",""space"",""space"",""space"",""space"",""space""]","[1.502000000094995,1.9089999999850988,2.509000000078231,3.2169999999459833,3.9839999999385327,4.725000000093132,5.4470000001601875,6.141000000061467,6.792000000132248,7.499000000068918,8.245000000111759,9.028000000165775,9.721000000135973,10.456000000005588,11.124000000068918,12.032000000122935,12.685999999986961,13.614000000059605,14.16400000010617,14.929000000003725]",space,0.128,0.0,39.0,39.0,34.0,1.0,,,
,,,,,,,,,,,,,,,,,,,,Yes,It is a in-ear headphones,0,no,m,43,R,yes,1,2020-09-16_10h16.41.575,kura-A2,2020.1.2,Win32,60,,,,,,,,,,,,,,,,,,,,,,,space,23.016,
