key_resp.keys,key_resp.rt,practice_taps.keys,practice_taps.rt,keyresp.keys,keyresp.rt,practice_stims_loop.thisRepN,practice_stims_loop.thisTrialN,practice_stims_loop.thisN,practice_stims_loop.thisIndex,practice_stims_loop.ran,sndfile,type,tempo,cond,version,delay,dur,Participant Initials,"If you are a MTurk worker, what is your MTurk worker ID?","If you are not an MTurk worker, please provide your email address",Are you wearing headphones?,What are the headphone make and model?,"How many years of musical training, if any, do you have?",Do you have any hearing problems? Please describe,What is your sex (f/m/decline)?,What is your age?,What is your handedness (R/L/ambi)?,Are you currently in a secure and quiet room without a possible interruption?,session,date,expName,psychopyVersion,OS,frameRate,instructions_prompt.keys,instructions_prompt.rt,block1_taps.keys,block1_taps.rt,key_resp_2.keys,key_resp_2.rt,trials.thisRepN,trials.thisTrialN,trials.thisN,trials.thisIndex,trials.ran,key_resp2.keys,key_resp2.rt,block2_taps.keys,block2_taps.rt,key_resp_3.keys,key_resp_3.rt,trials_2.thisRepN,trials_2.thisTrialN,trials_2.thisN,trials_2.thisIndex,trials_2.ran,key_resp_4.keys,key_resp_4.rt
space,12.68568,"[""space"",""space"",""space"",""space"",""space"",""space"",""space"",""space"",""space"",""space"",""space"",""space"",""space"",""space"",""space"",""space"",""space"",""space"",""space"",""space"",""space"",""space"",""space"",""space"",""space"",""space"",""space"",""space"",""space"",""space"",""space"",""space""]","[1.484505000000354,2.1081500000000233,2.755829999994603,3.4279199999946286,4.067719999999099,4.691784999995434,5.347829999998794,6.003485000001092,6.50782999999501,7.115724999996019,7.702180000000226,8.369174999999814,9.059889999996813,9.548324999996112,10.148040000000037,10.747664999995322,11.45360499999515,12.070364999999583,12.699524999996356,13.371829999996407,14.03778500000044,14.700169999996433,15.411854999998468,15.82178500000009,16.422164999996312,16.84394500000053,17.49184499999683,17.88383999999496,18.492054999995162,19.08378499999526,19.675920000001497,20.19016499999998]",space,1.734105,0.0,0.0,0.0,3.0,1.0,block_2/weak_n_72_2.wav,no,n,weak,72.0,1.63372301,21.59472074,,,,Yes,AKG M220 ,8,No,m,24,R,yes,1,2020-09-18_23h19.34.883,kura-B1,2020.1.2,Win32,60,,,,,,,,,,,,,,,,,,,,,,,,
,,"[""space"",""space"",""space"",""space"",""space"",""space"",""space"",""space"",""space"",""space"",""space"",""space"",""space"",""space"",""space"",""space"",""space"",""space"",""space"",""space""]","[0.38330999999743653,1.1906349999990198,1.8955799999966985,2.670749999997497,3.5105249999978696,4.285049999998591,5.046434999996563,5.758640000000014,6.4066749999983585,7.090644999996584,7.686914999998407,8.338289999999688,9.020174999997835,9.674599999998463,10.387404999994033,11.020824999999604,11.634610000000976,12.204890000000887,12.858809999997902,13.538674999996147]",space,1.02157,0.0,1.0,1.0,0.0,1.0,block_1/medium_t_92_2.wav,timbre,t,medium,92.0,1.17246814,14.21682188,,,,Yes,AKG M220 ,8,No,m,24,R,yes,1,2020-09-18_23h19.34.883,kura-B1,2020.1.2,Win32,60,,,,,,,,,,,,,,,,,,,,,,,,
,,"[""space"",""space"",""space"",""space"",""space"",""space"",""space"",""space"",""space"",""space"",""space"",""space"",""space"",""space"",""space"",""space"",""space"",""space"",""space"",""space"",""space""]","[1.352934999995341,1.9285099999979138,2.736394999999902,3.456384999997681,4.208520000000135,4.952479999999923,5.704324999998789,6.432475000001432,7.186450000001059,7.928294999997888,8.704769999996643,9.480360000001383,10.220854999999574,10.968345000001136,11.70034499999747,12.432300000000396,13.176544999994803,13.94465499999933,14.70594500000152,15.479984999998123,16.36011999999755]",space,1.150015,0.0,2.0,2.0,1.0,1.0,block_2/strong_n_81_1.wav,no,n,strong,81.0,1.854905178,16.81653783,,,,Yes,AKG M220 ,8,No,m,24,R,yes,1,2020-09-18_23h19.34.883,kura-B1,2020.1.2,Win32,60,,,,,,,,,,,,,,,,,,,,,,,,
,,"[""space"",""space"",""space"",""space"",""space"",""space"",""space"",""space"",""space"",""space"",""space"",""space"",""space"",""space"",""space"",""space"",""space"",""space"",""space"",""space""]","[0.5418200000058278,1.469199999999546,2.125465000004624,3.0774100000053295,4.028975000001083,4.773225000004459,5.437130000005709,6.037430000003951,6.629515000000538,7.2699050000010175,7.88670500000444,8.53683500000625,9.221414999999979,9.837545000002137,10.501655000000028,11.141780000005383,11.797300000005635,12.47736000000441,13.125105000006442,13.81369000000268]",space,1.07981,0.0,3.0,3.0,2.0,1.0,block_1/weak_t_92_1.wav,timbre,t,weak,92.0,2.207238706,15.60342918,,,,Yes,AKG M220 ,8,No,m,24,R,yes,1,2020-09-18_23h19.34.883,kura-B1,2020.1.2,Win32,60,,,,,,,,,,,,,,,,,,,,,,,,
,,,,,,,,,,,block_1/strong_t_105_2.wav,timbre,t,strong,105.0,1.268100708,12.09472202,,,,Yes,AKG M220 ,8,No,m,24,R,yes,1,2020-09-18_23h19.34.883,kura-B1,2020.1.2,Win32,60,space,7.291925,"[""space"",""space"",""space"",""space"",""space"",""space"",""space"",""space"",""space"",""space"",""space"",""space"",""space"",""space"",""space"",""space"",""space"",""space"",""space"",""space"",""space"",""space""]","[0.412400000001071,0.8922699999966426,1.3084000000017113,1.8508549999969546,2.404324999995879,2.9347950000010314,3.4847850000005565,4.020039999995788,4.580269999998563,5.132400000002235,5.676279999999679,6.212294999997539,6.748760000002221,7.324260000001232,7.876044999997248,8.436869999997725,9.03716500000155,9.588255000002391,10.1403599999976,10.659905000000435,11.221180000000459,11.821514999995998]",space,0.899805,0.0,0.0,0.0,22.0,1.0,,,,,,,,,,,,,
,,,,,,,,,,,block_1/strong_t_81_1.wav,timbre,t,strong,81.0,1.303718429,15.55909258,,,,Yes,AKG M220 ,8,No,m,24,R,yes,1,2020-09-18_23h19.34.883,kura-B1,2020.1.2,Win32,60,,,"[""space"",""space"",""space"",""space"",""space"",""space"",""space"",""space"",""space"",""space"",""space"",""space"",""space"",""space"",""space"",""space"",""space"",""space"",""space"",""space""]","[1.0106200000009267,1.900885000002745,2.634619999997085,3.298660000000382,4.058819999998377,4.795070000000123,5.482875000001513,6.252800000002026,6.8591749999977765,7.594859999997425,8.306669999998121,9.037145000002056,9.76260000000184,10.504424999999173,11.204434999999648,11.898589999997057,12.626680000001215,13.36649000000034,14.066834999997809,14.7948699999979]",space,0.8679,0.0,1.0,1.0,30.0,1.0,,,,,,,,,,,,,
,,,,,,,,,,,block_1/none_t_105_1.wav,timbre,t,none,105.0,1.828771861,15.95090338,,,,Yes,AKG M220 ,8,No,m,24,R,yes,1,2020-09-18_23h19.34.883,kura-B1,2020.1.2,Win32,60,,,"[""space"",""space"",""space"",""space"",""space"",""space"",""space"",""space"",""space"",""space"",""space"",""space"",""space"",""space"",""space"",""space"",""space"",""space"",""space""]","[0.37342500000522705,1.0457099999985076,1.6455900000000838,2.3093950000038603,2.9736049999992247,3.6935500000035972,4.38160500000231,5.109370000005583,5.805240000001504,6.525370000003022,7.237639999999374,7.941435000000638,8.70342000000528,9.5972299999994,10.445340000005672,11.277914999998757,12.454689999998664,13.597610000004352,14.349450000001525]",space,0.809515,0.0,2.0,2.0,17.0,1.0,,,,,,,,,,,,,
,,,,,,,,,,,block_1/medium_t_72_2.wav,timbre,t,medium,72.0,1.374562099,18.5083943,,,,Yes,AKG M220 ,8,No,m,24,R,yes,1,2020-09-18_23h19.34.883,kura-B1,2020.1.2,Win32,60,,,"[""space"",""space"",""space"",""space"",""space"",""space"",""space"",""space"",""space"",""space"",""space"",""space"",""space"",""space"",""space"",""space"",""space"",""space"",""space"",""space""]","[0.40935000000172295,0.9253899999966961,1.6773150000008172,2.6090100000001257,3.512990000002901,4.385069999996631,5.281020000002172,6.152925000002142,7.096984999996494,8.005089999998745,8.845289999997476,9.733130000000529,10.588960000000952,11.437400000002526,12.34885999999824,13.20513999999821,14.072299999999814,14.972874999999476,15.933349999999336,16.781009999998787]",space,0.95249,0.0,3.0,3.0,28.0,1.0,,,,,,,,,,,,,
,,,,,,,,,,,block_1/strong_t_119_2.wav,timbre,t,strong,119.0,2.38266194,11.99749187,,,,Yes,AKG M220 ,8,No,m,24,R,yes,1,2020-09-18_23h19.34.883,kura-B1,2020.1.2,Win32,60,,,"[""space"",""space"",""space"",""space"",""space"",""space"",""space"",""space"",""space"",""space"",""space"",""space"",""space"",""space"",""space"",""space"",""space"",""space"",""space"",""space"",""space""]","[0.9802950000012061,1.2921900000001187,1.717450000003737,2.2195100000026287,2.723805000001448,3.1796249999970314,3.6684749999985797,4.147640000002866,4.635699999998906,5.14770000000135,5.643669999997655,6.16905499999848,6.619939999996859,7.0862100000013015,7.587765000003856,8.04377999999997,8.553274999998393,9.037320000003092,9.523589999997057,10.003960000001825,10.555704999998852]",space,1.01119,0.0,4.0,4.0,31.0,1.0,,,,,,,,,,,,,
,,,,,,,,,,,block_1/none_t_119_2.wav,timbre,t,none,119.0,1.154672461,11.7267813,,,,Yes,AKG M220 ,8,No,m,24,R,yes,1,2020-09-18_23h19.34.883,kura-B1,2020.1.2,Win32,60,,,"[""space"",""space"",""space"",""space"",""space"",""space"",""space"",""space"",""space"",""space"",""space"",""space""]","[1.0441350000037346,1.9512050000048475,2.884825000001001,3.8357600000017555,4.7397150000033434,5.65257500000007,6.536510000005364,7.499784999999974,8.411814999999478,9.254005000002508,10.115835000004154,10.899884999998903]",space,0.691,0.0,5.0,5.0,35.0,1.0,,,,,,,,,,,,,
,,,,,,,,,,,block_1/medium_t_92_1.wav,timbre,t,medium,92.0,2.038979261,15.74360511,,,,Yes,AKG M220 ,8,No,m,24,R,yes,1,2020-09-18_23h19.34.883,kura-B1,2020.1.2,Win32,60,,,"[""space"",""space"",""space"",""space"",""space"",""space"",""space"",""space"",""space"",""space"",""space"",""space"",""space"",""space"",""space"",""space"",""space"",""space"",""space""]","[0.412384999995993,1.5642949999964912,2.276059999996505,2.9179999999978463,3.6361400000023423,4.301774999999907,5.085610000001907,5.740395000000717,6.460274999997637,7.124299999995856,7.844395000000077,8.56405999999697,9.270339999995485,9.956160000001546,10.660244999999122,11.332130000002508,12.028245000001334,12.739929999996093,13.452124999996158]",space,0.86972,0.0,6.0,6.0,36.0,1.0,,,,,,,,,,,,,
,,,,,,,,,,,block_1/weak_t_92_1.wav,timbre,t,weak,92.0,1.851617747,15.24780822,,,,Yes,AKG M220 ,8,No,m,24,R,yes,1,2020-09-18_23h19.34.883,kura-B1,2020.1.2,Win32,60,,,"[""space"",""space"",""space"",""space"",""space"",""space"",""space"",""space"",""space"",""space"",""space"",""space"",""space"",""space"",""space"",""space"",""space"",""space"",""space""]","[1.4331699999966077,2.325635000001057,3.183890000000247,4.181449999996403,4.821704999994836,5.422129999999015,6.021569999997155,6.621749999998428,7.237539999994624,7.9523950000002515,8.630164999995031,9.349754999995639,9.91979999999603,10.589664999999513,11.229834999998275,11.925694999998086,12.638090000000375,13.293584999999439,14.005769999996119]",space,0.89598,0.0,7.0,7.0,33.0,1.0,,,,,,,,,,,,,
,,,,,,,,,,,block_1/none_t_81_1.wav,timbre,t,none,81.0,1.412848736,15.74926597,,,,Yes,AKG M220 ,8,No,m,24,R,yes,1,2020-09-18_23h19.34.883,kura-B1,2020.1.2,Win32,60,,,"[""space"",""space"",""space"",""space"",""space"",""space"",""space"",""space"",""space"",""space"",""space"",""space"",""space"",""space"",""space"",""space"",""space"",""space"",""space"",""space""]","[0.9544299999979557,1.734244999999646,2.362665000000561,2.9864200000010896,3.651559999998426,4.307215000000724,4.990350000000035,5.65849999999773,6.322729999999865,7.014130000003206,7.822630000002391,8.59436000000278,9.25054000000091,10.02236499999708,10.726645000002463,11.358684999999241,12.030870000002324,12.726580000002286,13.46313999999984,14.12655999999697]",space,0.89033,0.0,8.0,8.0,11.0,1.0,,,,,,,,,,,,,
,,,,,,,,,,,block_1/strong_t_92_2.wav,timbre,t,strong,92.0,1.228007131,14.47607969,,,,Yes,AKG M220 ,8,No,m,24,R,yes,1,2020-09-18_23h19.34.883,kura-B1,2020.1.2,Win32,60,,,"[""space"",""space"",""space"",""space"",""space"",""space"",""space"",""space"",""space"",""space"",""space"",""space"",""space"",""space"",""space"",""space"",""space"",""space"",""space"",""space"",""space""]","[0.8769499999980326,1.500690000000759,2.1888049999979557,2.908835000002,3.573084999996354,4.253039999995963,4.941014999996696,5.604919999997946,6.245015000000421,6.924959999996645,7.581149999998161,8.269975000002887,8.933140000001004,9.612950000002456,10.301030000002356,10.98975999999675,11.684999999997672,12.35702499999752,13.045350000000326,13.70103999999992,14.429394999999204]",space,1.53223,0.0,9.0,9.0,3.0,1.0,,,,,,,,,,,,,
,,,,,,,,,,,block_1/strong_t_119_1.wav,timbre,t,strong,119.0,2.009888221,11.97709911,,,,Yes,AKG M220 ,8,No,m,24,R,yes,1,2020-09-18_23h19.34.883,kura-B1,2020.1.2,Win32,60,,,"[""space"",""space"",""space"",""space"",""space"",""space"",""space"",""space"",""space"",""space"",""space"",""space"",""space"",""space"",""space"",""space"",""space"",""space"",""space"",""space"",""space"",""space"",""space""]","[0.5442600000023958,1.000209999998333,1.4164349999991828,1.8332399999999325,2.324059999999008,2.8639800000019022,3.312000000005355,3.823994999998831,4.319860000003246,4.8234750000046915,5.327969999998459,5.82387000000017,6.311910000003991,6.808295000002545,7.328034999998636,7.807935000004363,8.303885000001173,8.799920000004931,9.287905000004685,9.775885000002745,10.30351000000519,10.903610000001208,11.50377500000468]",space,1.124855,0.0,10.0,10.0,27.0,1.0,,,,,,,,,,,,,
,,,,,,,,,,,block_1/medium_t_119_2.wav,timbre,t,medium,119.0,1.102065643,12.01802936,,,,Yes,AKG M220 ,8,No,m,24,R,yes,1,2020-09-18_23h19.34.883,kura-B1,2020.1.2,Win32,60,,,"[""space"",""space"",""space"",""space"",""space"",""space"",""space"",""space"",""space"",""space"",""space"",""space"",""space"",""space"",""space"",""space"",""space"",""space"",""space"",""space"",""space"",""space"",""space"",""space"",""space"",""space"",""space"",""space"",""space"",""space"",""space"",""space"",""space"",""space"",""space"",""space"",""space"",""space"",""space"",""space"",""space"",""space"",""space"",""space"",""space"",""space"",""space"",""space"",""space"",""space"",""space"",""space"",""space"",""space"",""space"",""space"",""space"",""space""]","[0.7379199999995762,1.3507299999982934,1.9622050000034506,2.251125000002503,2.701375000004191,2.8686149999994086,3.068055000003369,3.2183700000023236,3.3777400000035414,3.5378899999996065,3.698004999998375,3.857960000001185,4.026154999999562,4.186200000003737,4.354149999999208,4.537864999998419,4.705665000001318,4.874179999998887,5.042460000004212,5.209930000004533,5.385784999998577,5.562174999999115,5.729995000001509,5.897835000003397,6.066240000000107,6.252695000002859,6.435980000002019,6.578075000004901,6.746210000004794,6.910745000001043,7.082560000002559,7.241760000004433,7.419775000002119,7.570149999999558,7.753199999999197,7.898215000001073,8.070035000004282,8.220665000000736,8.393940000001749,8.561955000004673,8.721910000000207,8.897994999999355,9.088085000003048,9.25405000000319,9.409975000002305,9.570769999998447,9.658035000000382,9.850435000000289,10.054085000003397,10.225845000000845,10.394150000000081,10.578095000004396,10.890090000000782,10.978025000003981,11.16219500000443,11.361960000002,11.450450000003912,11.5381600000037]",space,1.013655,0.0,11.0,11.0,38.0,1.0,,,,,,,,,,,,,
,,,,,,,,,,,block_1/none_t_119_1.wav,timbre,t,none,119.0,1.970403652,15.3319456,,,,Yes,AKG M220 ,8,No,m,24,R,yes,1,2020-09-18_23h19.34.883,kura-B1,2020.1.2,Win32,60,,,"[""space"",""space"",""space"",""space"",""space"",""space"",""space"",""space"",""space"",""space"",""space"",""space"",""space"",""space"",""space"",""space""]","[0.9498149999999441,1.6038750000006985,2.3874500000019907,4.111400000001595,5.15138499999739,6.0022400000016205,6.8154149999973015,7.615559999998368,8.376219999998284,9.191265000001295,10.019970000001194,10.783994999997958,11.599459999997634,12.404904999995779,13.183709999997518,14.047794999998587]",space,1.021525,0.0,12.0,12.0,39.0,1.0,,,,,,,,,,,,,
,,,,,,,,,,,block_1/none_t_92_1.wav,timbre,t,none,92.0,2.134114385,14.96545225,,,,Yes,AKG M220 ,8,No,m,24,R,yes,1,2020-09-18_23h19.34.883,kura-B1,2020.1.2,Win32,60,,,"[""space"",""space"",""space"",""space"",""space"",""space"",""space"",""space"",""space"",""space"",""space"",""space"",""space"",""space"",""space"",""space"",""space"",""space"",""space"",""space""]","[1.0609200000035344,1.9086450000031618,2.51851500000339,3.1806950000027427,3.7565099999992526,4.39661000000342,4.9964749999999185,5.444739999999001,6.03662500000064,6.612760000003618,7.292634999997972,7.964675000002899,8.620685000001686,9.292670000002545,9.904054999999062,10.571199999998498,11.173520000003919,11.812599999997474,12.408940000001166,13.040665000000445]",space,0.95086,0.0,13.0,13.0,15.0,1.0,,,,,,,,,,,,,
,,,,,,,,,,,block_1/weak_t_81_1.wav,timbre,t,weak,81.0,1.734429931,16.79973605,,,,Yes,AKG M220 ,8,No,m,24,R,yes,1,2020-09-18_23h19.34.883,kura-B1,2020.1.2,Win32,60,,,"[""space"",""space"",""space"",""space"",""space"",""space"",""space"",""space"",""space"",""space"",""space"",""space"",""space"",""space"",""space"",""space"",""space"",""space""]","[1.9849150000009104,2.6014649999997346,3.1931150000018533,3.8814350000029663,4.602095000002009,5.297005000000354,6.105630000005476,7.003175000005285,7.803220000001602,8.570310000002792,9.345075000004726,10.105335000000196,10.85726500000601,11.625599999999395,12.417090000002645,13.21707000000606,14.04962499999965,14.849314999999478]",space,1.466435,0.0,14.0,14.0,8.0,1.0,,,,,,,,,,,,,
,,,,,,,,,,,block_1/strong_t_72_1.wav,timbre,t,strong,72.0,2.410899129,18.9853209,,,,Yes,AKG M220 ,8,No,m,24,R,yes,1,2020-09-18_23h19.34.883,kura-B1,2020.1.2,Win32,60,,,"[""space"",""space"",""space"",""space"",""space"",""space"",""space"",""space"",""space"",""space"",""space"",""space"",""space"",""space"",""space"",""space"",""space"",""space"",""space"",""space""]","[1.4328850000019884,2.2496549999996205,3.0971300000019255,3.9836599999980535,4.8009949999977835,5.617805000001681,6.456969999999274,7.251604999997653,8.009729999997944,8.83570999999938,9.689015000003565,10.513220000000729,11.345110000002023,12.217064999997092,13.041239999998652,13.889165000000503,14.689554999997199,15.538359999998647,16.305515000000014,17.09730500000296]",space,1.84364,0.0,15.0,15.0,9.0,1.0,,,,,,,,,,,,,
,,,,,,,,,,,block_1/none_t_92_2.wav,timbre,t,none,92.0,1.89077586,18.43372371,,,,Yes,AKG M220 ,8,No,m,24,R,yes,1,2020-09-18_23h19.34.883,kura-B1,2020.1.2,Win32,60,,,"[""space"",""space"",""space"",""space"",""space"",""space"",""space"",""space"",""space"",""space"",""space"",""space"",""space"",""space"",""space"",""space"",""space"",""space"",""space""]","[1.7621700000017881,2.5161149999985355,3.4032100000040373,4.250149999999849,5.034305000001041,5.922375000001921,6.806750000003376,7.658435000004829,8.502335000004678,9.298719999998866,10.152164999999513,10.942445000000589,11.806244999999763,12.566765000003215,13.503389999998035,14.358379999997851,15.142375000003085,16.062120000002324,16.92639500000223]",space,0.936555,0.0,16.0,16.0,18.0,1.0,,,,,,,,,,,,,
,,,,,,,,,,,block_1/none_t_72_2.wav,timbre,t,none,72.0,1.436515358,19.69406638,,,,Yes,AKG M220 ,8,No,m,24,R,yes,1,2020-09-18_23h19.34.883,kura-B1,2020.1.2,Win32,60,,,"[""space"",""space"",""space"",""space"",""space"",""space"",""space"",""space"",""space"",""space"",""space"",""space"",""space"",""space"",""space"",""space"",""space"",""space"",""space"",""space"",""space""]","[1.6399250000031316,2.3283299999966403,3.103739999998652,3.8637049999961164,4.687615000002552,5.447890000003099,6.207875000000058,6.986125000003085,7.791834999996354,8.608415000002424,9.40022499999759,10.255769999996119,10.991885000003094,11.779829999999492,12.568254999998317,13.384420000002137,14.372409999996307,15.108070000002044,16.03198500000144,16.990624999998545,17.915925000001153]",space,1.65768,0.0,17.0,17.0,21.0,1.0,,,,,,,,,,,,,
,,,,,,,,,,,block_1/weak_t_119_2.wav,timbre,t,weak,119.0,1.131621257,11.40046479,,,,Yes,AKG M220 ,8,No,m,24,R,yes,1,2020-09-18_23h19.34.883,kura-B1,2020.1.2,Win32,60,,,"[""space"",""space"",""space"",""space"",""space"",""space"",""space"",""space"",""space"",""space"",""space"",""space"",""space"",""space"",""space"",""space"",""space"",""space"",""space""]","[1.801209999997809,2.3204049999985727,2.7766049999991083,3.256614999998419,3.7211049999968964,4.2646699999968405,4.712829999996757,5.168745000002673,5.585865000000922,6.064635000002454,6.576820000002044,7.040679999998247,7.5534199999965494,8.06463999999687,8.560395000000426,9.08056999999826,9.537405000002764,10.056380000001809,10.554949999997916]",space,32.24044,0.0,18.0,18.0,13.0,1.0,,,,,,,,,,,,,
,,,,,,,,,,,block_1/medium_t_105_2.wav,timbre,t,medium,105.0,2.138064486,12.91584226,,,,Yes,AKG M220 ,8,No,m,24,R,yes,1,2020-09-18_23h19.34.883,kura-B1,2020.1.2,Win32,60,,,"[""space"",""space"",""space"",""space"",""space"",""space"",""space"",""space"",""space"",""space"",""space"",""space"",""space"",""space"",""space"",""space"",""space"",""space"",""space""]","[1.1635099999982685,1.717315000001463,2.251640000002226,2.8275799999971696,3.3557099999960656,3.9017999999995254,4.475545000001034,5.035514999995939,5.652240000002962,6.195729999999344,6.731679999997141,7.275504999997793,7.843345000001136,8.387909999997532,8.931855000002543,9.539590000000317,10.10742999999627,10.691279999999097,11.275450000000774]",space,3.86249,0.0,19.0,19.0,19.0,1.0,,,,,,,,,,,,,
,,,,,,,,,,,block_1/weak_t_72_2.wav,timbre,t,weak,72.0,1.186310873,16.45742198,,,,Yes,AKG M220 ,8,No,m,24,R,yes,1,2020-09-18_23h19.34.883,kura-B1,2020.1.2,Win32,60,,,"[""space"",""space"",""space"",""space"",""space"",""space"",""space"",""space"",""space"",""space"",""space"",""space"",""space"",""space"",""space"",""space"",""space"",""space"",""space""]","[1.3854599999978063,2.1167999999962603,3.057430000000977,3.961179999998649,4.729289999995785,5.4972350000027745,6.329035000002477,7.065450000001988,7.9522799999977,8.729129999999827,9.473494999998593,10.297290000002477,11.049500000001103,11.80378999999823,12.571190000002616,13.33806999999797,14.10525999999686,14.929409999997233,15.68124499999999]",space,4.30718,0.0,20.0,20.0,25.0,1.0,,,,,,,,,,,,,
,,,,,,,,,,,block_1/weak_t_81_2.wav,timbre,t,weak,81.0,1.961200407,15.36428431,,,,Yes,AKG M220 ,8,No,m,24,R,yes,1,2020-09-18_23h19.34.883,kura-B1,2020.1.2,Win32,60,,,"[""space"",""space"",""space"",""space"",""space"",""space"",""space"",""space"",""space"",""space"",""space"",""space"",""space"",""space"",""space"",""space"",""space"",""space"",""space"",""space"",""space"",""space"",""space"",""space"",""space"",""space"",""space"",""space""]","[3.3774499999999534,4.076719999997522,4.7608099999998785,5.46487499999796,6.096869999994169,6.440810000000056,6.793464999995194,7.177029999999036,7.504764999997974,7.833149999998682,8.176749999998947,8.528800000000047,8.872859999995967,9.200984999995967,9.55402499999775,9.87303499999689,10.240929999999935,10.545039999997243,10.896989999994048,11.225214999998798,11.588059999994812,11.880959999995184,12.232624999997029,12.584960000000251,12.93930499999999,13.288784999997233,13.593209999999203,13.929055000000744]",space,21.508485,0.0,21.0,21.0,5.0,1.0,,,,,,,,,,,,,
,,,,,,,,,,,block_1/strong_t_81_2.wav,timbre,t,strong,81.0,1.680376519,15.8366577,,,,Yes,AKG M220 ,8,No,m,24,R,yes,1,2020-09-18_23h19.34.883,kura-B1,2020.1.2,Win32,60,,,"[""space"",""space"",""space"",""space"",""space"",""space"",""space"",""space"",""space"",""space"",""space"",""space"",""space"",""space"",""space"",""space"",""space"",""space"",""space"",""space""]","[0.9391400000022259,1.659644999999614,2.387314999999944,3.0913350000046194,3.8273050000060493,4.563330000004498,5.268350000005853,5.955350000003818,6.668805000001271,7.387200000004782,8.131395000003977,8.803410000000554,9.53927000000101,10.237025000002063,10.995290000006207,11.715340000002584,12.45126000000164,13.131245000004242,13.883144999999786,14.611310000000117]",space,3.72664,0.0,22.0,22.0,26.0,1.0,,,,,,,,,,,,,
,,,,,,,,,,,block_1/medium_t_72_1.wav,timbre,t,medium,72.0,1.564818535,18.8498072,,,,Yes,AKG M220 ,8,No,m,24,R,yes,1,2020-09-18_23h19.34.883,kura-B1,2020.1.2,Win32,60,,,"[""space"",""space"",""space"",""space"",""space"",""space"",""space"",""space"",""space"",""space"",""space"",""space"",""space"",""space"",""space"",""space"",""space"",""space"",""space"",""space""]","[0.8311050000047544,2.0177050000056624,2.831210000003921,3.701570000004722,4.587140000003274,5.435779999999795,6.30770499999926,7.227305000000456,8.16329000000394,9.053735000001211,9.907270000003223,10.771090000001891,11.62701000000368,12.547440000001984,13.451245000003837,14.347164999999222,15.227250000003437,16.091330000002813,17.003560000004768,17.883260000002338]",space,13.77911,0.0,23.0,23.0,24.0,1.0,,,,,,,,,,,,,
,,,,,,,,,,,block_1/weak_t_92_2.wav,timbre,t,weak,92.0,1.028761509,16.1946572,,,,Yes,AKG M220 ,8,No,m,24,R,yes,1,2020-09-18_23h19.34.883,kura-B1,2020.1.2,Win32,60,,,"[""space"",""space"",""space"",""space"",""space"",""space"",""space"",""space"",""space"",""space"",""space"",""space"",""space"",""space"",""space"",""space"",""space"",""space"",""space"",""space""]","[1.0505600000033155,1.5843800000000101,2.5206300000062356,3.192295000000513,3.9445100000011735,4.688815000001341,5.4725850000030505,6.22034500000143,7.072505000003503,7.8405350000028875,8.608485000004293,9.38728500000434,10.154195000002687,10.904529999999795,11.680335000004447,12.480600000002482,13.264695000005077,14.080500000003553,14.897125000002916,15.673255000001518]",space,13.11101,0.0,24.0,24.0,37.0,1.0,,,,,,,,,,,,,
,,,,,,,,,,,block_1/none_t_105_2.wav,timbre,t,none,105.0,1.938353853,15.01835385,,,,Yes,AKG M220 ,8,No,m,24,R,yes,1,2020-09-18_23h19.34.883,kura-B1,2020.1.2,Win32,60,,,"[""space"",""space"",""space"",""space"",""space"",""space"",""space"",""space"",""space"",""space"",""space"",""space"",""space"",""space"",""space"",""space"",""space"",""space"",""space"",""space"",""space"",""space"",""space"",""space"",""space"",""space"",""space"",""space"",""space"",""space""]","[1.0586049999983516,1.6841700000003357,2.4906649999974206,2.9866349999938393,3.4426199999942355,3.8516899999958696,4.26896499999566,4.662474999997244,5.090744999994058,5.482629999998608,5.9065099999935455,6.314469999997527,6.730854999994449,7.1364799999936395,7.5306799999962095,7.922544999993988,8.338909999998464,8.738644999997746,9.13852499999473,9.530585000000428,9.91452500000014,10.298259999995935,10.687609999993583,11.078579999994076,11.48240999999689,11.918459999993388,12.45512999999471,12.830324999995241,13.278549999995334,13.66259499999444]",space,5.24081,0.0,25.0,25.0,14.0,1.0,,,,,,,,,,,,,
,,,,,,,,,,,block_1/strong_t_92_1.wav,timbre,t,strong,92.0,1.394968876,12.52589858,,,,Yes,AKG M220 ,8,No,m,24,R,yes,1,2020-09-18_23h19.34.883,kura-B1,2020.1.2,Win32,60,,,"[""space"",""space"",""space"",""space"",""space"",""space"",""space"",""space"",""space"",""space"",""space"",""space"",""space"",""space"",""space"",""space"",""space"",""space"",""space"",""space""]","[1.3562849999945001,1.7482349999992266,2.284455000001117,2.8762599999973872,3.436344999994617,4.028289999994854,4.628375000000233,5.1961049999956685,5.772064999997383,6.364139999997974,6.932154999995078,7.523824999996805,8.12432999999885,8.687579999997979,9.244364999998766,9.828134999996223,10.380119999994463,10.907779999994318,11.51627000000019,12.084019999995007]",space,3.41072,0.0,26.0,26.0,1.0,1.0,,,,,,,,,,,,,
,,,,,,,,,,,block_1/none_t_81_2.wav,timbre,t,none,81.0,1.650015351,20.40348474,,,,Yes,AKG M220 ,8,No,m,24,R,yes,1,2020-09-18_23h19.34.883,kura-B1,2020.1.2,Win32,60,,,"[""space"",""space"",""space"",""space"",""space"",""space"",""space"",""space"",""space"",""space"",""space"",""space"",""space"",""space"",""space"",""space"",""space"",""space"",""space"",""space"",""space"",""space"",""space""]","[1.4675400000049876,2.3345000000043683,3.137565000004429,3.969394999999963,4.836105000002021,5.69764500000008,6.481440000003204,7.265475000000038,8.03351500000258,8.80976999999973,9.545530000003055,10.305980000004638,11.07369000000449,11.874185000000466,12.641634999999837,13.40969000000041,14.201639999999088,14.98552000000177,15.757230000002664,16.5537600000024,17.35401500000421,18.173965000001658,18.969745000002035]",space,2.72267,0.0,27.0,27.0,10.0,1.0,,,,,,,,,,,,,
,,,,,,,,,,,block_1/strong_t_105_1.wav,timbre,t,strong,105.0,1.984276879,14.42695262,,,,Yes,AKG M220 ,8,No,m,24,R,yes,1,2020-09-18_23h19.34.883,kura-B1,2020.1.2,Win32,60,,,"[""space"",""space"",""space"",""space"",""space"",""space"",""space"",""space"",""space"",""space"",""space"",""space"",""space"",""space"",""space"",""space"",""space"",""space"",""space""]","[1.386964999997872,1.8869350000022678,2.559124999999767,3.198710000004098,3.830979999998817,4.4911750000028405,5.119095000001835,5.775190000000293,6.398829999998156,7.055175000001327,7.7031700000005685,8.383209999999963,8.991330000004382,9.511185000003138,10.215244999999413,10.959090000003926,11.614900000000489,12.239139999997747,12.888455000000363]",space,7.84247,0.0,28.0,28.0,20.0,1.0,,,,,,,,,,,,,
,,,,,,,,,,,block_1/medium_t_119_1.wav,timbre,t,medium,119.0,1.91338692,12.93819418,,,,Yes,AKG M220 ,8,No,m,24,R,yes,1,2020-09-18_23h19.34.883,kura-B1,2020.1.2,Win32,60,,,"[""space"",""space"",""space"",""space"",""space"",""space"",""space"",""space"",""space"",""space"",""space"",""space"",""space"",""space"",""space"",""space"",""space"",""space"",""space""]","[1.159149999999613,1.8791550000023562,2.887150000002407,3.431260000004727,3.959475000003181,4.495354999999222,5.023124999999595,5.585590000002412,6.09119500000088,6.647000000004596,7.199169999999754,7.719725000002654,8.247755000003963,8.770165000001839,9.320410000000265,9.854879999998957,10.351195000003031,10.879055000004996,11.40717500000028]",space,8.424805,0.0,29.0,29.0,34.0,1.0,,,,,,,,,,,,,
,,,,,,,,,,,block_1/weak_t_105_1.wav,timbre,t,weak,105.0,1.816913882,14.30793429,,,,Yes,AKG M220 ,8,No,m,24,R,yes,1,2020-09-18_23h19.34.883,kura-B1,2020.1.2,Win32,60,,,"[""space"",""space"",""space"",""space"",""space"",""space"",""space"",""space"",""space"",""space"",""space"",""space"",""space"",""space"",""space"",""space"",""space"",""space"",""space"",""space"",""space""]","[0.9843249999976251,1.5674349999973174,2.2061949999989565,2.854395000002114,3.454375000001164,4.042405000000372,4.670429999998305,5.310274999996182,5.990399999995361,6.638679999996498,7.336429999995744,7.950544999999693,8.566800000000512,9.190510000000586,9.814754999999423,10.4581299999993,11.06244000000163,11.721630000000232,12.371784999995725,12.978524999998854,13.61033499999769]",space,4.46873,0.0,30.0,30.0,0.0,1.0,,,,,,,,,,,,,
,,,,,,,,,,,block_1/weak_t_105_2.wav,timbre,t,weak,105.0,2.298632362,16.24153486,,,,Yes,AKG M220 ,8,No,m,24,R,yes,1,2020-09-18_23h19.34.883,kura-B1,2020.1.2,Win32,60,,,"[""space"",""space"",""space"",""space"",""space"",""space"",""space"",""space"",""space"",""space"",""space"",""space"",""space"",""space"",""space"",""space"",""space"",""space"",""space""]","[1.0394900000029565,1.8556200000023182,2.818220000001247,3.543735000006677,4.215355000000386,4.8397750000003725,5.4955700000065235,6.2315950000049725,7.072115000002896,7.912245000006919,8.591770000006477,9.215840000004619,9.920730000005392,10.599845000004507,11.34357500000624,12.239710000001764,12.73563000000297,13.522315000002095,14.207300000001965]",space,12.928205,0.0,31.0,31.0,2.0,1.0,,,,,,,,,,,,,
,,,,,,,,,,,block_1/medium_t_92_2.wav,timbre,t,medium,92.0,2.140863801,15.18521754,,,,Yes,AKG M220 ,8,No,m,24,R,yes,1,2020-09-18_23h19.34.883,kura-B1,2020.1.2,Win32,60,,,"[""space"",""space"",""space"",""space"",""space"",""space"",""space"",""space"",""space"",""space"",""space"",""space"",""space"",""space"",""space"",""space"",""space"",""space"",""space"",""space""]","[1.0714300000037156,1.6629350000002887,2.319270000000074,2.9749450000016395,3.6468500000046333,4.278830000002813,4.990499999999884,5.670850000002133,6.319150000002878,7.102885000000242,7.736225000000559,8.336660000000848,8.974910000004456,9.653630000000703,10.3107700000038,10.982775000004153,11.654289999998696,12.126935000000344,13.088555000001975,13.526734999999348]",space,1.714635,0.0,32.0,32.0,32.0,1.0,,,,,,,,,,,,,
,,,,,,,,,,,block_1/medium_t_105_1.wav,timbre,t,medium,105.0,2.180706288,14.37050221,,,,Yes,AKG M220 ,8,No,m,24,R,yes,1,2020-09-18_23h19.34.883,kura-B1,2020.1.2,Win32,60,,,"[""space"",""space"",""space"",""space"",""space"",""space"",""space"",""space"",""space"",""space"",""space"",""space"",""space"",""space"",""space"",""space"",""space"",""space"",""space"",""space""]","[1.133490000000279,1.7009050000051502,2.1943150000006426,2.6685550000039484,3.2125000000013415,3.7843900000007125,4.312695000000531,4.901585000007003,5.512545000005048,6.080795000001672,6.702245000000289,7.396150000000489,7.988645000004908,8.620840000003227,9.29628500000399,9.94052999999974,10.620425000000978,11.197225000003641,11.824180000003139,12.472655000005034]",space,2.952455,0.0,33.0,33.0,16.0,1.0,,,,,,,,,,,,,
,,,,,,,,,,,block_1/weak_t_72_1.wav,timbre,t,weak,72.0,1.20875322,18.28390061,,,,Yes,AKG M220 ,8,No,m,24,R,yes,1,2020-09-18_23h19.34.883,kura-B1,2020.1.2,Win32,60,,,"[""space"",""space"",""space"",""space"",""space"",""space"",""space"",""space"",""space"",""space"",""space"",""space"",""space"",""space"",""space"",""space"",""space"",""space"",""space"",""space""]","[1.3963250000016387,2.1886349999986123,2.980960000001005,3.956620000004591,4.901884999999311,5.804544999999166,6.660345000003986,7.348400000002812,8.164575000002515,8.996380000004251,9.75620499999809,10.644594999998048,11.476695000005066,12.600595000003636,13.438555000000633,14.156775000003222,14.916629999999827,15.652580000001876,16.506910000003813,17.42045499999972]",space,4.31149,0.0,34.0,34.0,29.0,1.0,,,,,,,,,,,,,
,,,,,,,,,,,block_1/none_t_72_1.wav,timbre,t,none,72.0,2.370838854,21.3551926,,,,Yes,AKG M220 ,8,No,m,24,R,yes,1,2020-09-18_23h19.34.883,kura-B1,2020.1.2,Win32,60,,,"[""space"",""space"",""space"",""space"",""space"",""space"",""space"",""space"",""space"",""space"",""space"",""space"",""space"",""space"",""space"",""space"",""space"",""space"",""space"",""space"",""space"",""space"",""space"",""space"",""space"",""space"",""space""]","[0.9369949999963865,2.417974999996545,3.1445849999944357,3.8724349999974947,4.53652000000136,5.235690000001341,5.904744999999707,6.592394999999442,7.272529999994617,7.992599999997765,8.640384999998673,9.337399999996592,10.064399999995544,10.792379999998957,11.513164999996434,12.200554999995688,12.922214999998687,13.544275000000084,14.208129999998846,14.880199999999377,15.472979999998529,16.176569999995763,16.80821999999887,17.473774999998454,18.13259000000096,18.828394999996704,19.47468999999535]",space,1.817825,0.0,35.0,35.0,23.0,1.0,,,,,,,,,,,,,
,,,,,,,,,,,block_1/medium_t_81_1.wav,timbre,t,medium,81.0,2.382699777,16.54165669,,,,Yes,AKG M220 ,8,No,m,24,R,yes,1,2020-09-18_23h19.34.883,kura-B1,2020.1.2,Win32,60,,,"[""space"",""space"",""space"",""space"",""space"",""space"",""space"",""space"",""space"",""space"",""space"",""space"",""space"",""space"",""space"",""space"",""space"",""space"",""space""]","[1.4358800000045449,2.1335500000060392,2.8680600000005825,3.563925000002314,4.267990000000395,5.043870000001448,5.811595000006491,6.555770000006305,7.291810000002556,8.044245000004707,8.788110000001438,9.516060000001858,10.275650000003338,11.037340000002473,11.748080000004848,12.459700000006706,13.22127000000171,13.995765000007054,14.707495000002268]",space,6.872505,0.0,36.0,36.0,4.0,1.0,,,,,,,,,,,,,
,,,,,,,,,,,block_1/weak_t_119_1.wav,timbre,t,weak,119.0,1.96015814,12.2695459,,,,Yes,AKG M220 ,8,No,m,24,R,yes,1,2020-09-18_23h19.34.883,kura-B1,2020.1.2,Win32,60,,,"[""space"",""space"",""space"",""space"",""space"",""space"",""space"",""space"",""space"",""space"",""space"",""space"",""space"",""space"",""space"",""space""]","[1.343735000002198,1.9556749999973135,2.60127500000101,3.2635749999973314,3.887320000001523,4.559554999999818,5.15219999999681,5.775654999997528,6.352650000000722,6.953014999999027,7.569900000002235,8.153314999995814,8.743719999998575,9.32816499999899,9.904150000002119,10.495844999997644]",space,0.800625,0.0,37.0,37.0,12.0,1.0,,,,,,,,,,,,,
,,,,,,,,,,,block_1/medium_t_81_2.wav,timbre,t,medium,81.0,1.849325936,17.01676358,,,,Yes,AKG M220 ,8,No,m,24,R,yes,1,2020-09-18_23h19.34.883,kura-B1,2020.1.2,Win32,60,,,"[""space"",""space"",""space"",""space"",""space"",""space"",""space"",""space"",""space"",""space"",""space"",""space"",""space"",""space"",""space"",""space"",""space"",""space"",""space""]","[0.9252350000024308,1.4529649999968797,2.23696500000392,3.0132949999972425,3.7975900000019465,4.613330000000246,5.4773500000010245,6.221384999997326,6.997105000002421,7.749674999999115,8.520875000002206,9.29319499999849,10.089195000000586,10.877289999996833,11.677049999998417,12.485090000001946,13.301110000000335,14.08569,14.853199999997969]",space,0.970015,0.0,38.0,38.0,7.0,1.0,,,,,,,,,,,,,
,,,,,,,,,,,block_1/strong_t_72_2.wav,timbre,t,strong,72.0,2.307367753,17.72600721,,,,Yes,AKG M220 ,8,No,m,24,R,yes,1,2020-09-18_23h19.34.883,kura-B1,2020.1.2,Win32,60,,,"[""space"",""space"",""space"",""space"",""space"",""space"",""space"",""space"",""space"",""space"",""space"",""space"",""space"",""space"",""space"",""space"",""space"",""space"",""space""]","[1.5511000000043396,2.381704999999897,3.221845000000144,4.00605500000529,4.8136100000048145,5.621214999999324,6.445565000001807,7.237685000000056,8.061775000002058,8.853740000006155,9.62976500000525,10.3732700000038,11.18941500000085,11.941750000005527,12.757570000001692,13.589485000004174,14.38997500000562,15.21365000000526,15.981630000002156]",space,7.43137,0.0,39.0,39.0,6.0,1.0,,,,,,,,,,,,,
,,,,,,,,,,,block_2/weak_n_92_2.wav,no,n,weak,92.0,1.908793764,14.14589127,,,,Yes,AKG M220 ,8,No,m,24,R,yes,1,2020-09-18_23h19.34.883,kura-B1,2020.1.2,Win32,60,,,,,,,,,,,,space,230.27433,"[""space"",""space"",""space"",""space"",""space"",""space"",""space"",""space"",""space"",""space"",""space"",""space"",""space"",""space"",""space"",""space"",""space"",""space"",""space"",""space""]","[1.1503000000011525,1.7340199999962351,2.3556649999957244,3.003854999995383,3.5957149999958347,4.211790000001201,4.755574999995588,5.437419999994745,5.995960000000196,6.611655000000383,7.186539999995148,7.779699999998911,8.396209999998973,8.995579999995243,9.619979999995849,10.179550000000745,10.827579999997624,11.443879999998899,12.054165000001376,12.691800000000512]",space,1.36042,0.0,0.0,0.0,6.0,1.0,,
,,,,,,,,,,,block_2/medium_n_119_2.wav,no,n,medium,119.0,2.453413839,11.51042064,,,,Yes,AKG M220 ,8,No,m,24,R,yes,1,2020-09-18_23h19.34.883,kura-B1,2020.1.2,Win32,60,,,,,,,,,,,,,,"[""space"",""space"",""space"",""space"",""space"",""space"",""space"",""space"",""space"",""space"",""space"",""space"",""space"",""space"",""space"",""space"",""space"",""space"",""space"",""space"",""space""]","[0.9184249999962049,1.2701449999949546,1.7302349999954458,2.1622449999995297,2.5682049999959418,2.994144999997161,3.4700850000006085,3.9862299999949755,4.498219999994035,5.042224999997416,5.535634999999957,6.052794999995967,6.5541149999992285,7.036475000000792,7.570234999999229,8.05811999999446,8.514264999998204,8.946104999995441,9.40383499999757,9.89820499999746,10.394249999997555]",space,1.050765,0.0,1.0,1.0,21.0,1.0,,
,,,,,,,,,,,block_2/weak_n_105_1.wav,no,n,weak,105.0,2.307975641,12.32461963,,,,Yes,AKG M220 ,8,No,m,24,R,yes,1,2020-09-18_23h19.34.883,kura-B1,2020.1.2,Win32,60,,,,,,,,,,,,,,"[""space"",""space"",""space"",""space"",""space"",""space"",""space"",""space"",""space"",""space"",""space"",""space"",""space"",""space"",""space"",""space"",""space"",""space"",""space"",""space"",""space"",""space""]","[0.8011899999983143,1.2506149999971967,1.634245000000874,2.0841250000014497,2.537124999995285,3.0731099999975413,3.537044999997306,4.051919999998063,4.521065000000817,4.952809999995452,5.4770599999974365,5.972549999998591,6.444929999997839,6.933079999995471,7.420659999996133,7.925465000000258,8.396945000000414,8.903480000000854,9.397044999998116,9.861134999999194,10.34905499999877,10.860979999997653]",space,1.24782,0.0,2.0,2.0,27.0,1.0,,
,,,,,,,,,,,block_2/none_n_92_1.wav,no,n,none,92.0,1.273053946,17.86126256,,,,Yes,AKG M220 ,8,No,m,24,R,yes,1,2020-09-18_23h19.34.883,kura-B1,2020.1.2,Win32,60,,,,,,,,,,,,,,"[""space"",""space"",""space"",""space"",""space"",""space"",""space"",""space"",""space"",""space"",""space"",""space"",""space"",""space"",""space"",""space"",""space"",""space"",""space"",""space"",""space"",""space"",""space"",""space"",""space"",""space"",""space"",""space""]","[1.834289999998873,2.3853900000028716,3.1380800000042655,3.697635000004084,4.273675000004005,4.801685000005591,5.329870000001392,5.835590000002412,6.361779999999499,6.897915000001603,7.486475000005385,8.102955000001884,8.636420000002545,9.13760000000184,9.657794999998941,10.249520000004622,10.777665000001434,11.305875000005472,11.858500000002095,12.41769000000204,12.988335000001825,13.530115000001388,14.121995000001334,14.772400000001653,15.33905500000401,15.865810000002966,16.433795000004466,16.96979500000475]",space,1.544805,0.0,3.0,3.0,20.0,1.0,,
,,,,,,,,,,,block_2/weak_n_81_1.wav,no,n,weak,81.0,2.025683857,14.86613737,,,,Yes,AKG M220 ,8,No,m,24,R,yes,1,2020-09-18_23h19.34.883,kura-B1,2020.1.2,Win32,60,,,,,,,,,,,,,,"[""space"",""space"",""space"",""space"",""space"",""space"",""space"",""space"",""space"",""space"",""space"",""space"",""space"",""space"",""space"",""space"",""space"",""space"",""space"",""space""]","[0.7933849999972153,1.284005000001116,1.8250399999960791,3.0977049999999053,3.7450499999977183,4.376884999997856,5.057345000001078,5.6891299999988405,6.288959999998042,6.929084999996121,7.6054000000003725,8.197329999995418,8.837424999997893,9.429324999997334,10.093215000000782,10.754674999996496,11.42130499999621,12.00479500000074,12.645165000001953,13.261460000001534]",space,24.912965,0.0,4.0,4.0,35.0,1.0,,
,,,,,,,,,,,block_2/strong_n_105_2.wav,no,n,strong,105.0,1.030135556,14.17553238,,,,Yes,AKG M220 ,8,No,m,24,R,yes,1,2020-09-18_23h19.34.883,kura-B1,2020.1.2,Win32,60,,,,,,,,,,,,,,"[""space"",""space"",""space"",""space"",""space"",""space"",""space"",""space"",""space"",""space"",""space"",""space"",""space"",""space"",""space"",""space"",""space"",""space"",""space"",""space""]","[1.0341300000000047,1.6691049999935785,2.334434999997029,3.020904999997583,3.692929999997432,4.349019999994198,5.0449399999997695,5.6449749999958385,6.302724999994098,6.94086999999854,7.622134999997797,8.260989999995218,8.89284499999485,9.573334999993676,10.221044999998412,10.8545199999935,11.516969999996945,12.204824999993434,12.838644999996177,13.492909999993344]",space,7.27352,0.0,5.0,5.0,9.0,1.0,,
,,,,,,,,,,,block_2/strong_n_92_2.wav,no,n,strong,92.0,1.994887374,15.49683749,,,,Yes,AKG M220 ,8,No,m,24,R,yes,1,2020-09-18_23h19.34.883,kura-B1,2020.1.2,Win32,60,,,,,,,,,,,,,,"[""space"",""space"",""space"",""space"",""space"",""space"",""space"",""space"",""space"",""space"",""space"",""space"",""space"",""space"",""space"",""space"",""space"",""space"",""space"",""space""]","[0.8260549999974955,1.3698399999993853,2.1512499999953434,2.834589999998798,3.514499999997497,4.185939999995753,4.8817849999977625,5.553860000000213,6.270029999999451,7.014049999997951,7.70564000000013,8.454314999995631,9.120349999997643,9.789980000001378,10.44597999999678,11.121514999998908,11.846059999995987,12.52603999999701,13.262324999996054,13.942034999999805]",space,1.60787,0.0,6.0,6.0,39.0,1.0,,
,,,,,,,,,,,block_2/strong_n_105_1.wav,no,n,strong,105.0,1.056930825,14.45525282,,,,Yes,AKG M220 ,8,No,m,24,R,yes,1,2020-09-18_23h19.34.883,kura-B1,2020.1.2,Win32,60,,,,,,,,,,,,,,"[""space"",""space"",""space"",""space"",""space"",""space"",""space"",""space"",""space"",""space"",""space"",""space"",""space"",""space"",""space"",""space"",""space"",""space"",""space"",""space""]","[1.060660000003054,1.7402300000032938,2.4441650000010213,3.0600600000036593,3.732020000003331,4.3959550000001855,5.003950000005943,5.748350000001892,6.395920000002889,7.108295000005683,7.796164999999974,8.43662000000063,9.100270000002865,9.796320000001515,10.492580000005773,11.156510000000708,11.821200000005774,12.499950000005128,13.180555000006507,13.844290000001138]",space,0.183485,0.0,7.0,7.0,13.0,1.0,,
,,,,,,,,,,,block_2/strong_n_92_1.wav,no,n,strong,92.0,2.132496366,14.62065963,,,,Yes,AKG M220 ,8,No,m,24,R,yes,1,2020-09-18_23h19.34.883,kura-B1,2020.1.2,Win32,60,,,,,,,,,,,,,,"[""space"",""space"",""space"",""space"",""space"",""space"",""space"",""space"",""space"",""space"",""space"",""space"",""space"",""space"",""space"",""space"",""space"",""space"",""space"",""space"",""space""]","[0.6951699999990524,1.2006699999983539,1.8010599999979604,2.443039999998291,3.027219999996305,3.6195199999929173,4.25197499999922,4.8687549999956445,5.53172999999515,6.074974999995902,6.699384999999893,7.307654999996885,7.947764999997162,8.555489999998827,9.17130499999621,9.771054999997432,10.379449999993085,10.987849999997934,11.571444999994128,12.221779999999853,12.855204999999842]",space,3.91874,0.0,8.0,8.0,37.0,1.0,,
,,,,,,,,,,,block_2/weak_n_119_2.wav,no,n,weak,119.0,1.359763169,11.32207609,,,,Yes,AKG M220 ,8,No,m,24,R,yes,1,2020-09-18_23h19.34.883,kura-B1,2020.1.2,Win32,60,,,,,,,,,,,,,,"[""space"",""space"",""space"",""space"",""space"",""space"",""space"",""space"",""space"",""space"",""space"",""space"",""space"",""space"",""space"",""space"",""space"",""space"",""space"",""space"",""space""]","[1.0302900000026511,1.390155000001414,1.8459949999962646,2.2859650000029887,2.7837999999976546,3.3258700000005774,3.813974999997299,4.278424999997242,4.7540599999995266,5.2302550000022165,5.7352400000020225,6.158259999996517,6.64199499999836,7.114439999997785,7.570305000001099,8.030294999997068,8.44614999999635,8.93624999999929,9.452919999996311,9.84195499999646,10.298295000000735]",space,9.070935,0.0,9.0,9.0,36.0,1.0,,
,,,,,,,,,,,block_2/none_n_119_2.wav,no,n,none,119.0,2.143940737,13.70121965,,,,Yes,AKG M220 ,8,No,m,24,R,yes,1,2020-09-18_23h19.34.883,kura-B1,2020.1.2,Win32,60,,,,,,,,,,,,,,"[""space"",""space"",""space"",""space"",""space"",""space"",""space"",""space"",""space"",""space"",""space"",""space"",""space"",""space"",""space"",""space"",""space"",""space"",""space"",""space"",""space"",""space"",""space"",""space"",""space"",""space"",""space""]","[1.209204999998974,1.534149999999272,1.8772200000018984,2.345499999995809,2.7371899999996003,3.1049249999994117,3.4971250000014606,3.8970649999969282,4.336889999998448,4.736824999999499,5.168884999998909,5.58890999999835,6.0130100000021685,6.421654999998054,6.793284999999514,7.257115000000113,7.644794999999704,8.086900000001833,8.508979999998473,8.949200000002293,9.40395500000136,9.887725000000273,10.340920000002143,10.804779999998345,11.244760000000952,11.629339999999274,12.029195000002574]",space,3.244635,0.0,10.0,10.0,25.0,1.0,,
,,,,,,,,,,,block_2/weak_n_81_2.wav,no,n,weak,81.0,1.213149696,13.09673246,,,,Yes,AKG M220 ,8,No,m,24,R,yes,1,2020-09-18_23h19.34.883,kura-B1,2020.1.2,Win32,60,,,,,,,,,,,,,,"[""space"",""space"",""space"",""space"",""space"",""space"",""space"",""space"",""space"",""space"",""space"",""space"",""space"",""space"",""space"",""space"",""space"",""space"",""space"",""space""]","[1.217255000003206,1.8079100000031758,2.39184500000556,2.9682150000007823,3.5915700000041397,4.118335000006482,4.728080000000773,5.3520650000066325,5.927975000005972,6.502635000004602,7.063815000001341,7.624015000001009,8.263665000005858,8.848200000000134,9.463675000006333,9.970645000001241,10.584235000002082,11.199725000005628,11.768309999999474,12.371450000006007]",space,1.079235,0.0,11.0,11.0,32.0,1.0,,
,,,,,,,,,,,block_2/weak_n_92_1.wav,no,n,weak,92.0,1.493156661,15.23787321,,,,Yes,AKG M220 ,8,No,m,24,R,yes,1,2020-09-18_23h19.34.883,kura-B1,2020.1.2,Win32,60,,,,,,,,,,,,,,"[""space"",""space"",""space"",""space"",""space"",""space"",""space"",""space"",""space"",""space"",""space"",""space"",""space"",""space"",""space"",""space"",""space"",""space"",""space"",""space"",""space""]","[1.770039999995788,2.3541149999946356,3.0020450000010896,3.59422999999515,4.202160000000504,4.906174999996665,5.586139999999432,6.2352350000001024,6.906369999996741,7.60276999999769,8.258289999997942,8.865819999999076,9.546204999998736,10.194264999998268,10.850265000001173,11.513874999996915,12.218199999995704,12.898300000000745,13.562245000000985,14.33841499999835,15.089065000000119]",space,0.58469,0.0,12.0,12.0,2.0,1.0,,
,,,,,,,,,,,block_2/none_n_72_1.wav,no,n,none,72.0,2.425336639,22.99082417,,,,Yes,AKG M220 ,8,No,m,24,R,yes,1,2020-09-18_23h19.34.883,kura-B1,2020.1.2,Win32,60,,,,,,,,,,,,,,"[""space"",""space"",""space"",""space"",""space"",""space"",""space"",""space"",""space"",""space"",""space"",""space"",""space"",""space"",""space"",""space"",""space"",""space"",""space"",""space"",""space"",""space"",""space"",""space"",""space"",""space"",""space"",""space"",""space"",""space"",""space"",""space"",""space""]","[1.213194999996631,1.6933349999962957,2.3173199999948793,3.0687749999997322,3.5513399999979356,3.972429999994347,4.420804999994061,4.836429999995744,5.30876499999431,5.805065000000468,6.31893499999569,6.860549999997602,7.686179999996966,8.412624999997206,8.87670000000071,9.412594999994099,9.980734999997367,10.612385000000359,11.237389999994775,11.85443999999552,12.438114999997197,13.089209999998047,13.757494999998016,14.455989999994927,15.039055000001099,15.644369999994524,16.268485000000283,16.948615000001155,17.660689999996976,18.53277999999409,19.316995000001043,20.07682499999646,20.824739999996382]",space,36.784415,0.0,13.0,13.0,18.0,1.0,,
,,,,,,,,,,,block_2/medium_n_105_1.wav,no,n,medium,105.0,1.976395362,15.17435455,,,,Yes,AKG M220 ,8,No,m,24,R,yes,1,2020-09-18_23h19.34.883,kura-B1,2020.1.2,Win32,60,,,,,,,,,,,,,,"[""space"",""space"",""space"",""space"",""space"",""space"",""space"",""space"",""space"",""space"",""space"",""space"",""space"",""space"",""space"",""space"",""space"",""space""]","[1.9244549999930314,2.6361499999984517,3.2282500000001164,3.8363899999967543,4.444394999998622,5.003864999998768,5.516289999999572,6.156680000000051,6.716339999999036,7.303119999996852,7.9563449999986915,8.708694999993895,9.400464999998803,10.116359999999986,10.895939999995107,11.544504999998026,12.196369999998069,12.968679999997903]",space,21.19531,0.0,14.0,14.0,7.0,1.0,,
,,,,,,,,,,,block_2/none_n_119_1.wav,no,n,none,119.0,1.472051285,13.63313972,,,,Yes,AKG M220 ,8,No,m,24,R,yes,1,2020-09-18_23h19.34.883,kura-B1,2020.1.2,Win32,60,,,,,,,,,,,,,,"[""space"",""space"",""space"",""space"",""space"",""space"",""space"",""space"",""space"",""space"",""space"",""space"",""space"",""space"",""space"",""space"",""space"",""space""]","[1.0365949999975328,1.5800650000021506,2.24458500000037,2.9181400000015856,3.6046100000021397,4.276505000001407,4.9207749999986845,5.6191949999993085,6.364544999996724,7.002999999996973,7.648285000002943,8.288345000000845,8.970840000001772,9.648844999996072,10.32084500000201,10.937734999999748,11.488675000000512,12.048600000001898]",space,18.64591,0.0,15.0,15.0,22.0,1.0,,
,,,,,,,,,,,block_2/strong_n_81_2.wav,no,n,strong,81.0,1.892264478,17.05494022,,,,Yes,AKG M220 ,8,No,m,24,R,yes,1,2020-09-18_23h19.34.883,kura-B1,2020.1.2,Win32,60,,,,,,,,,,,,,,"[""space"",""space"",""space"",""space"",""space"",""space"",""space"",""space"",""space"",""space"",""space"",""space"",""space"",""space"",""space"",""space"",""space"",""space"",""space"",""space"",""space""]","[0.7080799999966985,1.2040199999973993,1.9801349999981994,2.751259999997046,3.5244699999966542,4.2851549999975305,5.035685000002559,5.780025000000023,6.548154999996768,7.300414999997884,8.060115000000224,8.89245999999548,9.71587500000146,10.396229999998468,11.139815000002272,11.924124999997957,12.683629999999539,13.427685000002384,14.15574999999808,14.883994999996503,15.683799999998882]",space,1.164,0.0,16.0,16.0,8.0,1.0,,
,,,,,,,,,,,block_2/medium_n_72_2.wav,no,n,medium,72.0,2.017934227,19.05022448,,,,Yes,AKG M220 ,8,No,m,24,R,yes,1,2020-09-18_23h19.34.883,kura-B1,2020.1.2,Win32,60,,,,,,,,,,,,,,"[""space"",""space"",""space"",""space"",""space"",""space"",""space"",""space"",""space"",""space"",""space"",""space"",""space"",""space"",""space"",""space"",""space"",""space"",""space""]","[0.8578850000048988,1.6654699999999139,2.641459999998915,3.5135100000043167,4.433519999998907,5.369470000005094,6.169509999999718,7.057625000001281,7.9615100000007715,8.851500000004307,9.725575000004028,10.57754000000591,11.457770000000892,12.321490000002086,13.219895000001998,14.077475000005279,14.970600000000559,15.877260000001115,16.781530000000203]",space,1.21407,0.0,17.0,17.0,14.0,1.0,,
,,,,,,,,,,,block_2/weak_n_119_1.wav,no,n,weak,119.0,2.394125333,11.70850175,,,,Yes,AKG M220 ,8,No,m,24,R,yes,1,2020-09-18_23h19.34.883,kura-B1,2020.1.2,Win32,60,,,,,,,,,,,,,,"[""space"",""space"",""space"",""space"",""space"",""space"",""space"",""space"",""space"",""space"",""space"",""space"",""space"",""space"",""space"",""space"",""space""]","[1.533240000004298,2.035459999999148,2.500355000003765,3.219490000003134,3.995679999999993,4.484470000003057,4.907559999999648,5.3792800000010175,5.8918800000026295,6.331360000003542,6.859425000002375,7.339360000005627,7.827385000003915,8.243415000004461,8.731469999998808,9.115624999998772,9.675609999998642]",space,6.978445,0.0,18.0,18.0,38.0,1.0,,
,,,,,,,,,,,block_2/none_n_81_2.wav,no,n,none,81.0,1.688814472,20.84019769,,,,Yes,AKG M220 ,8,No,m,24,R,yes,1,2020-09-18_23h19.34.883,kura-B1,2020.1.2,Win32,60,,,,,,,,,,,,,,"[""space"",""space"",""space"",""space"",""space"",""space"",""space"",""space"",""space"",""space"",""space"",""space"",""space"",""space"",""space"",""space"",""space"",""space"",""space"",""space"",""space"",""space"",""space"",""space"",""space"",""space"",""space"",""space"",""space""]","[1.7301650000008522,2.4770349999964765,2.993450000001758,3.38517999999749,3.99316500000009,4.560884999998962,5.120920000001206,6.033199999998033,6.7694649999973535,7.32129000000009,7.912960000001476,8.457289999998693,9.057110000001785,9.804374999999709,10.417515000001004,11.01753499999927,11.617120000002615,12.256970000002184,12.921880000001693,13.472900000000891,14.017625000000407,14.55566500000009,15.297174999999697,15.968874999998434,16.523269999997865,17.393364999996265,18.049079999997048,18.809119999998302,19.409095000002708]",space,1.29642,0.0,19.0,19.0,28.0,1.0,,
,,,,,,,,,,,block_2/medium_n_72_1.wav,no,n,medium,72.0,2.306836655,18.27731285,,,,Yes,AKG M220 ,8,No,m,24,R,yes,1,2020-09-18_23h19.34.883,kura-B1,2020.1.2,Win32,60,,,,,,,,,,,,,,"[""space"",""space"",""space"",""space"",""space"",""space"",""space"",""space"",""space"",""space"",""space"",""space"",""space"",""space"",""space"",""space"",""space"",""space"",""space"",""space"",""space""]","[0.6179249999986496,1.1104449999984354,2.054454999997688,2.878290000000561,3.602424999997311,4.44318999999814,5.25207000000205,6.138429999999062,6.962404999998398,7.786585000001651,8.54638,9.278109999999515,10.071044999996957,10.942465000000084,11.710164999996778,12.406235000002198,13.198374999999942,14.030520000000251,14.862419999997655,15.674294999997073,16.59042000000045]",space,0.35762,0.0,20.0,20.0,10.0,1.0,,
,,,,,,,,,,,block_2/medium_n_81_1.wav,no,n,medium,81.0,1.997436703,15.99943217,,,,Yes,AKG M220 ,8,No,m,24,R,yes,1,2020-09-18_23h19.34.883,kura-B1,2020.1.2,Win32,60,,,,,,,,,,,,,,"[""space"",""space"",""space"",""space"",""space"",""space"",""space"",""space"",""space"",""space"",""space"",""space"",""space"",""space"",""space"",""space"",""space"",""space"",""space"",""space"",""space""]","[0.8495499999992262,1.4330550000013318,2.0008100000050035,2.7207650000054855,3.3769350000002305,4.008925000001909,4.697339999998576,5.36879500000191,6.048955000005662,6.7291099999999915,7.457045000003063,8.152975000004517,8.912860000004002,9.640915000003588,10.369904999999562,11.05684000000474,11.75373999999988,12.408950000004552,12.976894999999786,13.697165000004816,14.471499999999878]",space,2.228645,0.0,21.0,21.0,31.0,1.0,,
,,,,,,,,,,,block_2/weak_n_72_1.wav,no,n,weak,72.0,2.399201816,17.30954195,,,,Yes,AKG M220 ,8,No,m,24,R,yes,1,2020-09-18_23h19.34.883,kura-B1,2020.1.2,Win32,60,,,,,,,,,,,,,,"[""space"",""space"",""space"",""space"",""space"",""space"",""space"",""space"",""space"",""space"",""space"",""space"",""space"",""space"",""space"",""space"",""space"",""space"",""space""]","[1.2510550000006333,2.051095000002533,2.8136650000014924,3.5453449999986333,4.273464999998623,5.018940000001976,5.765720000003057,6.573345000004565,7.313500000003842,8.053635000003851,8.788950000001932,9.637280000002647,10.349475000002712,11.173435000004247,11.893329999998969,12.645445000001928,13.317305000004126,14.061505000005127,14.780944999998383]",space,5.346245,0.0,22.0,22.0,15.0,1.0,,
,,,,,,,,,,,block_2/strong_n_72_1.wav,no,n,strong,72.0,1.979367889,17.70027492,,,,Yes,AKG M220 ,8,No,m,24,R,yes,1,2020-09-18_23h19.34.883,kura-B1,2020.1.2,Win32,60,,,,,,,,,,,,,,"[""space"",""space"",""space"",""space"",""space"",""space"",""space"",""space"",""space"",""space"",""space"",""space"",""space"",""space"",""space"",""space"",""space"",""space"",""space"",""space""]","[0.9217549999955281,1.6896949999936623,2.4899699999950826,3.321474999997008,4.1618299999972805,4.969999999993888,5.781709999995655,6.593839999994316,7.390424999998004,8.24189999999362,9.049879999998666,9.83374499999627,10.665949999995064,11.413924999993469,12.255014999995183,13.077869999993709,13.877904999993916,14.669659999999567,15.445734999993647,16.23991499999829]",space,43.003475,0.0,23.0,23.0,33.0,1.0,,
,,,,,,,,,,,block_2/none_n_81_1.wav,no,n,none,81.0,1.160099605,17.42268464,,,,Yes,AKG M220 ,8,No,m,24,R,yes,1,2020-09-18_23h19.34.883,kura-B1,2020.1.2,Win32,60,,,,,,,,,,,,,,"[""space"",""space"",""space"",""space"",""space"",""space"",""space"",""space"",""space"",""space"",""space"",""space"",""space"",""space"",""space"",""space"",""space"",""space"",""space"",""space"",""space""]","[1.484194999997726,2.1368000000004486,3.191695000001573,4.063600000001543,4.823584999998502,5.5754899999958525,6.336210000001529,6.975590000002057,7.687839999999142,8.415625000001683,9.170469999997522,10.023744999998826,10.737755000002153,11.738115000000334,12.495730000002595,13.2075499999994,13.98357499999861,14.567634999999655,15.151894999995648,15.807594999998628,16.54406999999651]",space,1.78524,0.0,24.0,24.0,29.0,1.0,,
,,,,,,,,,,,block_2/medium_n_105_2.wav,no,n,medium,105.0,1.832509907,11.95341694,,,,Yes,AKG M220 ,8,No,m,24,R,yes,1,2020-09-18_23h19.34.883,kura-B1,2020.1.2,Win32,60,,,,,,,,,,,,,,"[""space"",""space"",""space"",""space"",""space"",""space"",""space"",""space"",""space"",""space"",""space"",""space"",""space"",""space"",""space"",""space"",""space"",""space"",""space""]","[1.20601000000147,1.7900949999966542,2.3021850000004633,2.694629999998142,3.1686249999986558,3.606374999995751,4.206144999996468,4.718619999999646,5.213810000001104,5.752475000001141,6.261809999996331,6.790119999997614,7.294239999995398,7.813929999996617,8.362665000000334,8.836969999996654,9.530139999995527,10.042389999994839,10.57819500000187]",space,11.259465,0.0,25.0,25.0,3.0,1.0,,
,,,,,,,,,,,block_2/none_n_105_1.wav,no,n,none,105.0,1.731065446,15.85351443,,,,Yes,AKG M220 ,8,No,m,24,R,yes,1,2020-09-18_23h19.34.883,kura-B1,2020.1.2,Win32,60,,,,,,,,,,,,,,"[""space"",""space"",""space"",""space"",""space"",""space"",""space"",""space"",""space"",""space"",""space"",""space"",""space"",""space"",""space"",""space"",""space"",""space"",""space"",""space"",""space"",""space"",""space""]","[1.3463100000008126,2.155079999996815,3.170734999999695,4.106419999996433,5.370410000003176,6.242715000000317,6.73866000000271,7.242884999999887,7.707014999999956,8.13868999999977,8.571145000001707,9.01054000000272,9.427029999998922,9.826569999997446,10.238700000001472,10.654414999997243,11.104599999998754,11.490284999999858,12.058539999998175,12.630584999998973,13.289340000003222,13.846785000001546,14.43072499999812]",space,4.558545,0.0,26.0,26.0,0.0,1.0,,
,,,,,,,,,,,block_2/weak_n_72_2.wav,no,n,weak,72.0,1.8411197,21.80211743,,,,Yes,AKG M220 ,8,No,m,24,R,yes,1,2020-09-18_23h19.34.883,kura-B1,2020.1.2,Win32,60,,,,,,,,,,,,,,"[""space"",""space"",""space"",""space"",""space"",""space"",""space"",""space"",""space"",""space"",""space"",""space"",""space"",""space"",""space"",""space"",""space"",""space"",""space""]","[0.9227299999984098,2.131244999996852,3.1073899999973946,4.211179999998194,5.0911399999968125,6.285649999997986,7.075044999997772,8.01991000000271,9.22765000000095,10.33118000000104,11.387745000000223,12.323169999996026,13.343175000001565,14.355844999998453,15.483130000000529,16.55638999999769,17.55893500000093,18.503324999997858,19.42411999999581]",space,0.94355,0.0,27.0,27.0,11.0,1.0,,
,,,,,,,,,,,block_2/strong_n_72_2.wav,no,n,strong,72.0,2.258938628,19.59540121,,,,Yes,AKG M220 ,8,No,m,24,R,yes,1,2020-09-18_23h19.34.883,kura-B1,2020.1.2,Win32,60,,,,,,,,,,,,,,"[""space"",""space"",""space"",""space"",""space"",""space"",""space"",""space"",""space"",""space"",""space"",""space"",""space"",""space"",""space"",""space"",""space"",""space"",""space"",""space""]","[1.0457150000004276,1.7176399999952991,2.677869999999757,3.6057999999975436,4.486379999994824,5.469819999998435,6.365850000001956,7.229959999996936,8.133694999996806,8.981569999996282,9.829774999998335,10.733925000000454,11.589650000001711,12.56590999999753,13.461479999998119,14.318540000000212,15.198244999999588,16.086019999995187,16.990115000000515,17.925534999994852]",space,7.089725,0.0,28.0,28.0,30.0,1.0,,
,,,,,,,,,,,block_2/strong_n_81_1.wav,no,n,strong,81.0,1.085814619,16.04744727,,,,Yes,AKG M220 ,8,No,m,24,R,yes,1,2020-09-18_23h19.34.883,kura-B1,2020.1.2,Win32,60,,,,,,,,,,,,,,"[""space"",""space"",""space"",""space"",""space"",""space"",""space"",""space"",""space"",""space"",""space"",""space"",""space"",""space"",""space"",""space"",""space"",""space"",""space"",""space"",""space""]","[1.2954250000038883,1.9429349999991246,2.663285000002361,3.4313750000001164,4.159424999998237,4.911124999998719,5.185810000002448,5.6791099999973085,6.4360149999993155,7.207295000000158,7.969875000002503,8.67918500000087,9.431969999997818,10.15938499999902,10.90454000000318,11.672135000000708,12.479299999999057,13.26362499999982,14.007160000001022,14.743320000001404,15.456095000001369]",space,2.90378,0.0,29.0,29.0,12.0,1.0,,
,,,,,,,,,,,block_2/medium_n_92_1.wav,no,n,medium,92.0,1.88300721,17.00042218,,,,Yes,AKG M220 ,8,No,m,24,R,yes,1,2020-09-18_23h19.34.883,kura-B1,2020.1.2,Win32,60,,,,,,,,,,,,,,"[""space"",""space"",""space"",""space"",""space"",""space"",""space"",""space"",""space"",""space"",""space"",""space"",""space"",""space"",""space"",""space"",""space"",""space"",""space"",""space""]","[0.7674149999947986,1.4859049999940908,2.2178899999998976,2.9979249999962576,3.858104999999341,4.59003500000108,5.346189999996568,6.137949999996408,6.858249999997497,7.68182499999989,8.458384999997861,9.345685000000003,10.154219999996712,10.882314999995288,11.682609999996203,12.506079999999201,13.28199499999755,14.017925000000105,14.897890000000189,16.85791999999492]",space,0.939225,0.0,30.0,30.0,5.0,1.0,,
,,,,,,,,,,,block_2/strong_n_119_2.wav,no,n,strong,119.0,1.626584736,10.88871625,,,,Yes,AKG M220 ,8,No,m,24,R,yes,1,2020-09-18_23h19.34.883,kura-B1,2020.1.2,Win32,60,,,,,,,,,,,,,,"[""space"",""space"",""space"",""space"",""space"",""space"",""space"",""space"",""space"",""space"",""space"",""space"",""space"",""space"",""space"",""space"",""space"",""space"",""space""]","[1.187185000002728,1.659574999997858,2.1390949999986333,2.6110350000017206,3.0589249999975436,3.5477650000029826,4.01106499999878,4.507030000000668,4.9711349999997765,5.4356299999999464,5.9150900000022375,6.379150000000664,6.853620000001683,7.27498999999807,7.731184999996913,8.227109999999811,8.69961499999772,9.211109999996552,9.659970000000612]",space,2.42451,0.0,31.0,31.0,17.0,1.0,,
,,,,,,,,,,,block_2/strong_n_119_1.wav,no,n,strong,119.0,2.397746816,12.26713457,,,,Yes,AKG M220 ,8,No,m,24,R,yes,1,2020-09-18_23h19.34.883,kura-B1,2020.1.2,Win32,60,,,,,,,,,,,,,,"[""space"",""space"",""space"",""space"",""space"",""space"",""space"",""space"",""space"",""space"",""space"",""space"",""space"",""space"",""space"",""space"",""space"",""space"",""space""]","[1.0533649999997579,1.5410800000026939,2.03717499999766,2.5248549999960233,3.060944999997446,3.5572099999990314,4.069089999997232,4.613230000002659,5.1251199999969685,5.637130000002799,6.119270000002871,6.661209999998391,7.150040000000445,7.677589999999327,8.165515000000596,8.704209999996237,9.19696500000282,9.725149999998393,10.220784999997704]",space,0.75069,0.0,32.0,32.0,19.0,1.0,,
,,,,,,,,,,,block_2/weak_n_105_2.wav,no,n,weak,105.0,1.251032373,14.19257432,,,,Yes,AKG M220 ,8,No,m,24,R,yes,1,2020-09-18_23h19.34.883,kura-B1,2020.1.2,Win32,60,,,,,,,,,,,,,,"[""space"",""space"",""space"",""space"",""space"",""space"",""space"",""space"",""space"",""space"",""space"",""space"",""space"",""space"",""space"",""space"",""space"",""space"",""space""]","[1.3174199999994016,1.875225000003411,2.619344999999157,2.9715800000049057,3.485000000000582,4.339605000001029,4.907340000005206,5.485639999998966,6.252805000003718,6.936220000003232,7.732175000004645,8.43994499999826,9.075629999999364,9.737359999999171,10.220885000002454,10.763709999999264,11.451695000003383,12.138474999999744,12.783479999998235]",space,8.28767,0.0,33.0,33.0,26.0,1.0,,
,,,,,,,,,,,block_2/none_n_72_2.wav,no,n,none,72.0,1.244195676,23.89829998,,,,Yes,AKG M220 ,8,No,m,24,R,yes,1,2020-09-18_23h19.34.883,kura-B1,2020.1.2,Win32,60,,,,,,,,,,,,,,"[""space"",""space"",""space"",""space"",""space"",""space"",""space"",""space"",""space"",""space"",""space"",""space"",""space"",""space"",""space"",""space"",""space"",""space"",""space"",""space"",""space"",""space"",""space"",""space"",""space"",""space"",""space"",""space""]","[1.2771949999951175,2.3649199999999837,3.2610999999965316,4.125079999997979,4.949254999999539,5.693134999994072,6.502954999996291,7.244744999996328,8.005249999994703,8.90352499999426,10.037884999997914,10.845399999998335,11.716934999996738,12.516854999994393,13.277385000001232,14.085189999997965,14.90080499999749,15.589999999996508,16.21328499999754,16.877229999998235,17.661339999998745,18.32514000000083,19.765409999999974,20.50921499999822,21.204995000000054,21.885519999996177,22.60917999999947,23.175769999994372]",space,8.928195,0.0,34.0,34.0,16.0,1.0,,
,,,,,,,,,,,block_2/medium_n_119_1.wav,no,n,medium,119.0,1.010172499,10.57697522,,,,Yes,AKG M220 ,8,No,m,24,R,yes,1,2020-09-18_23h19.34.883,kura-B1,2020.1.2,Win32,60,,,,,,,,,,,,,,"[""space"",""space"",""space"",""space"",""space"",""space"",""space"",""space"",""space"",""space"",""space"",""space"",""space"",""space"",""space"",""space"",""space"",""space"",""space""]","[1.2298899999946116,1.7219199999958619,2.0506299999974544,2.484269999993103,2.9463599999940016,3.426069999993615,3.90994499999897,4.418374999993375,4.8939299999979085,5.435599999996612,5.913774999993166,6.413989999993191,6.9459749999946325,7.413759999995364,7.861964999995962,8.422224999994341,8.870129999994788,9.374589999998989,9.877834999998868]",space,5.7542,0.0,35.0,35.0,24.0,1.0,,
,,,,,,,,,,,block_2/none_n_105_2.wav,no,n,none,105.0,1.955418763,16.59637114,,,,Yes,AKG M220 ,8,No,m,24,R,yes,1,2020-09-18_23h19.34.883,kura-B1,2020.1.2,Win32,60,,,,,,,,,,,,,,"[""space"",""space"",""space"",""space"",""space"",""space"",""space"",""space"",""space"",""space"",""space"",""space"",""space"",""space"",""space"",""space"",""space"",""space"",""space"",""space""]","[1.3460700000000543,1.9697799999994459,2.5858450000014273,3.218560000001162,3.961880000002566,4.635410000002594,5.3054899999988265,5.985870000004525,6.665860000000976,7.419699999999011,8.18695999999909,8.897860000004584,9.681820000005246,10.370825000005425,11.121735000000626,11.762340000001132,12.473790000003646,13.177824999998847,13.955509999999776,14.739150000001246]",space,7.237105,0.0,36.0,36.0,4.0,1.0,,
,,,,,,,,,,,block_2/medium_n_81_2.wav,no,n,medium,81.0,1.533387433,15.23592712,,,,Yes,AKG M220 ,8,No,m,24,R,yes,1,2020-09-18_23h19.34.883,kura-B1,2020.1.2,Win32,60,,,,,,,,,,,,,,"[""space"",""space"",""space"",""space"",""space"",""space"",""space"",""space"",""space"",""space"",""space"",""space"",""space"",""space"",""space"",""space"",""space"",""space"",""space"",""space""]","[0.8709949999974924,1.623729999999341,2.3514799999975367,3.0161450000014156,3.687614999995276,4.416529999994964,5.150134999996226,5.851459999997587,6.563430000002427,7.223525000000791,7.901124999997137,8.611870000000636,9.2849950000018,9.963075000000117,10.699580000000424,11.419340000000375,12.131264999996802,12.82750500000111,13.515789999998105,14.155354999995325]",space,5.790905,0.0,37.0,37.0,34.0,1.0,,
,,,,,,,,,,,block_2/medium_n_92_2.wav,no,n,medium,92.0,1.042358962,12.57945647,,,,Yes,AKG M220 ,8,No,m,24,R,yes,1,2020-09-18_23h19.34.883,kura-B1,2020.1.2,Win32,60,,,,,,,,,,,,,,"[""space"",""space"",""space"",""space"",""space"",""space"",""space"",""space"",""space"",""space"",""space"",""space"",""space"",""space"",""space"",""space"",""space"",""space""]","[1.121675000002142,1.6897049999970477,2.3055850000018836,2.9136749999961467,3.5294750000030035,4.084994999997434,4.68954500000109,5.1697149999963585,5.625879999999597,6.402555000000575,7.019889999995939,7.6256349999966915,8.265719999995781,8.913625000001048,9.487054999997781,10.117494999998598,10.79374999999709,11.46167499999865]",space,9.63838,0.0,38.0,38.0,1.0,1.0,,
,,,,,,,,,,,block_2/none_n_92_2.wav,no,n,none,92.0,2.007703886,14.64294198,,,,Yes,AKG M220 ,8,No,m,24,R,yes,1,2020-09-18_23h19.34.883,kura-B1,2020.1.2,Win32,60,,,,,,,,,,,,,,"[""space"",""space"",""space"",""space"",""space"",""space"",""space"",""space"",""space"",""space"",""space"",""space"",""space"",""space"",""space"",""space"",""space"",""space"",""space""]","[1.0470849999978782,1.8677449999950113,2.5012849999980062,3.0513549999955103,3.547214999998232,4.087574999997287,4.635414999996556,5.1629749999988235,5.669244999997318,6.539854999994986,7.531089999996311,8.115254999996523,8.658799999996972,9.395054999993135,10.043019999996886,10.621249999996053,11.288039999999,11.988329999999678,12.44324999999617]",space,2.46818,0.0,39.0,39.0,23.0,1.0,,
,,,,,,,,,,,,,,,,,,,,,Yes,AKG M220 ,8,No,m,24,R,yes,1,2020-09-18_23h19.34.883,kura-B1,2020.1.2,Win32,60,,,,,,,,,,,,,,,,,,,,,,,space,76.5177
