key_resp.keys,key_resp.rt,practice_taps.keys,practice_taps.rt,keyresp.keys,keyresp.rt,practice_stims_loop.thisRepN,practice_stims_loop.thisTrialN,practice_stims_loop.thisN,practice_stims_loop.thisIndex,practice_stims_loop.ran,sndfile,type,tempo,cond,version,delay,dur,Participant Initials,"If you are a MTurk worker, what is your MTurk worker ID?","If you are not an MTurk worker, please provide your email address",Are you wearing headphones?,What are the headphone make and model?,"How many years of musical training, if any, do you have?",Do you have any hearing problems? Please describe,What is your sex (f/m/decline)?,What is your age?,What is your handedness (R/L/ambi)?,Are you currently in a secure and quiet room without a possible interruption?,session,date,expName,psychopyVersion,OS,frameRate,instructions_prompt.keys,instructions_prompt.rt,block1_taps.keys,block1_taps.rt,key_resp_2.keys,key_resp_2.rt,trials.thisRepN,trials.thisTrialN,trials.thisN,trials.thisIndex,trials.ran,key_resp2.keys,key_resp2.rt,block2_taps.keys,block2_taps.rt,key_resp_3.keys,key_resp_3.rt,trials_2.thisRepN,trials_2.thisTrialN,trials_2.thisN,trials_2.thisIndex,trials_2.ran,key_resp_4.keys,key_resp_4.rt
space,31.60132,"[""space"",""space"",""space"",""space""]","[2.872690000000091,7.165774999999428,10.643554999999594,13.765924999999697]",space,1.58854,0.0,0.0,0.0,0.0,1.0,block_1/medium_t_92_2.wav,timbre,t,medium,92.0,1.17246814,14.21682188,,,,yes,anker soundcore spirit,none,none,m,27,R,yes,1,2020-10-05_08h33.11.406,kura-B1,2020.1.2,Win32,60,,,,,,,,,,,,,,,,,,,,,,,,
,,"[""space"",""space"",""space""]","[2.900840000000244,6.107869999999821,13.984480000000133]",space,2.68719,0.0,1.0,1.0,2.0,1.0,block_1/weak_t_92_1.wav,timbre,t,weak,92.0,2.207238706,15.60342918,,,,yes,anker soundcore spirit,none,none,m,27,R,yes,1,2020-10-05_08h33.11.406,kura-B1,2020.1.2,Win32,60,,,,,,,,,,,,,,,,,,,,,,,,
,,"[""space"",""space"",""space"",""space"",""space""]","[2.3684650000004694,8.167465000000448,12.133875000000444,16.274830000000293,20.00990499999989]",space,4.320815,0.0,2.0,2.0,3.0,1.0,block_2/weak_n_72_2.wav,no,n,weak,72.0,1.63372301,21.59472074,,,,yes,anker soundcore spirit,none,none,m,27,R,yes,1,2020-10-05_08h33.11.406,kura-B1,2020.1.2,Win32,60,,,,,,,,,,,,,,,,,,,,,,,,
,,"[""space"",""space"",""space"",""space"",""space"",""space""]","[2.3678499999996347,4.369689999999537,6.923784999999953,10.439730000000054,12.655229999999392,15.798799999999574]",space,1.38558,0.0,3.0,3.0,1.0,1.0,block_2/strong_n_81_1.wav,no,n,strong,81.0,1.854905178,16.81653783,,,,yes,anker soundcore spirit,none,none,m,27,R,yes,1,2020-10-05_08h33.11.406,kura-B1,2020.1.2,Win32,60,,,,,,,,,,,,,,,,,,,,,,,,
,,,,,,,,,,,block_1/none_t_81_1.wav,timbre,t,none,81.0,1.412848736,15.74926597,,,,yes,anker soundcore spirit,none,none,m,27,R,yes,1,2020-10-05_08h33.11.406,kura-B1,2020.1.2,Win32,60,space,3.94511,"[""space"",""space"",""space"",""space"",""space""]","[2.631384999999682,5.134575000000041,7.04663999999957,10.169079999999667,14.0504949999995]",space,1.470105,0.0,0.0,0.0,11.0,1.0,,,,,,,,,,,,,
,,,,,,,,,,,block_1/weak_t_105_2.wav,timbre,t,weak,105.0,2.298632362,16.24153486,,,,yes,anker soundcore spirit,none,none,m,27,R,yes,1,2020-10-05_08h33.11.406,kura-B1,2020.1.2,Win32,60,,,"[""space"",""space"",""space"",""space""]","[2.88700499999959,4.887144999999748,8.317329999999856,11.378179999999702]",space,0.23758,0.0,1.0,1.0,2.0,1.0,,,,,,,,,,,,,
,,,,,,,,,,,block_1/none_t_105_1.wav,timbre,t,none,105.0,1.828771861,15.95090338,,,,yes,anker soundcore spirit,none,none,m,27,R,yes,1,2020-10-05_08h33.11.406,kura-B1,2020.1.2,Win32,60,,,"[""space"",""space"",""space"",""space""]","[4.003029999999853,7.450174999999945,11.303490000000238,14.467604999999821]",space,10.875965,0.0,2.0,2.0,17.0,1.0,,,,,,,,,,,,,
,,,,,,,,,,,block_1/none_t_92_2.wav,timbre,t,none,92.0,1.89077586,18.43372371,,,,yes,anker soundcore spirit,none,none,m,27,R,yes,1,2020-10-05_08h33.11.406,kura-B1,2020.1.2,Win32,60,,,"[""space"",""space"",""space"",""space"",""space""]","[3.015360000000328,7.3054500000007465,9.883145000000695,12.857410000000527,15.166380000000572]",space,18.881775,0.0,3.0,3.0,18.0,1.0,,,,,,,,,,,,,
,,,,,,,,,,,block_1/medium_t_105_2.wav,timbre,t,medium,105.0,2.138064486,12.91584226,,,,yes,anker soundcore spirit,none,none,m,27,R,yes,1,2020-10-05_08h33.11.406,kura-B1,2020.1.2,Win32,60,,,"[""space"",""space"",""space""]","[3.921440000000075,7.1733049999993455,9.904944999999316]",space,0.851805,0.0,4.0,4.0,19.0,1.0,,,,,,,,,,,,,
,,,,,,,,,,,block_1/weak_t_105_1.wav,timbre,t,weak,105.0,1.816913882,14.30793429,,,,yes,anker soundcore spirit,none,none,m,27,R,yes,1,2020-10-05_08h33.11.406,kura-B1,2020.1.2,Win32,60,,,"[""space"",""space"",""space"",""space""]","[3.8391050000000178,7.171905000000152,10.180890000000545,12.853055000000495]",space,9.84533,0.0,5.0,5.0,0.0,1.0,,,,,,,,,,,,,
,,,,,,,,,,,block_1/weak_t_119_1.wav,timbre,t,weak,119.0,1.96015814,12.2695459,,,,yes,anker soundcore spirit,none,none,m,27,R,yes,1,2020-10-05_08h33.11.406,kura-B1,2020.1.2,Win32,60,,,"[""space"",""space"",""space""]","[3.8931000000002314,7.496650000000045,9.862975000000006]",space,1.27268,0.0,6.0,6.0,12.0,1.0,,,,,,,,,,,,,
,,,,,,,,,,,block_1/weak_t_92_2.wav,timbre,t,weak,92.0,1.028761509,16.1946572,,,,yes,anker soundcore spirit,none,none,m,27,R,yes,1,2020-10-05_08h33.11.406,kura-B1,2020.1.2,Win32,60,,,"[""space"",""space"",""space"",""space""]","[6.533870000000206,9.472514999999476,11.711435000000165,14.66613999999936]",space,8.73879,0.0,7.0,7.0,37.0,1.0,,,,,,,,,,,,,
,,,,,,,,,,,block_1/medium_t_119_1.wav,timbre,t,medium,119.0,1.91338692,12.93819418,,,,yes,anker soundcore spirit,none,none,m,27,R,yes,1,2020-10-05_08h33.11.406,kura-B1,2020.1.2,Win32,60,,,"[""space"",""space"",""space""]","[3.485794999999598,8.188474999999926,11.250605000000178]",space,1.255655,0.0,8.0,8.0,34.0,1.0,,,,,,,,,,,,,
,,,,,,,,,,,block_1/medium_t_72_1.wav,timbre,t,medium,72.0,1.564818535,18.8498072,,,,yes,anker soundcore spirit,none,none,m,27,R,yes,1,2020-10-05_08h33.11.406,kura-B1,2020.1.2,Win32,60,,,"[""space"",""space"",""space"",""space"",""space"",""space"",""space""]","[4.622209999999541,6.140279999999734,7.853624999999738,8.903729999999996,11.06780499999968,13.104690000000005,15.017734999999448]",space,0.98561,0.0,9.0,9.0,24.0,1.0,,,,,,,,,,,,,
,,,,,,,,,,,block_1/strong_t_105_2.wav,timbre,t,strong,105.0,1.268100708,12.09472202,,,,yes,anker soundcore spirit,none,none,m,27,R,yes,1,2020-10-05_08h33.11.406,kura-B1,2020.1.2,Win32,60,,,"[""space"",""space"",""space"",""space"",""space"",""space""]","[1.4124200000005658,2.515215000000353,4.329510000000482,6.8891050000002,8.567525000000387,11.292645000000448]",space,0.920285,0.0,10.0,10.0,22.0,1.0,,,,,,,,,,,,,
,,,,,,,,,,,block_1/weak_t_119_2.wav,timbre,t,weak,119.0,1.131621257,11.40046479,,,,yes,anker soundcore spirit,none,none,m,27,R,yes,1,2020-10-05_08h33.11.406,kura-B1,2020.1.2,Win32,60,,,"[""space"",""space"",""space"",""space"",""space"",""space"",""space"",""space"",""space"",""space"",""space"",""space"",""space"",""space""]","[2.093934999999874,2.6907499999997526,3.086754999999357,4.032949999999801,4.813354999999319,5.585084999999708,6.102744999999231,7.446884999999384,7.922429999999622,8.46893,8.888364999999794,9.168709999999919,9.757235000000037,10.318429999999353]",space,1.07139,0.0,11.0,11.0,13.0,1.0,,,,,,,,,,,,,
,,,,,,,,,,,block_1/medium_t_72_2.wav,timbre,t,medium,72.0,1.374562099,18.5083943,,,,yes,anker soundcore spirit,none,none,m,27,R,yes,1,2020-10-05_08h33.11.406,kura-B1,2020.1.2,Win32,60,,,"[""space"",""space"",""space"",""space"",""space"",""space"",""space"",""space"",""space"",""space"",""space"",""space"",""space"",""space"",""space"",""space"",""space"",""space"",""space""]","[1.1339149999994333,1.6843549999994138,2.5214749999995547,3.3504549999997835,4.302039999999579,5.296999999999571,6.085524999999393,7.017769999999473,8.001649999999245,8.989974999999504,9.886514999999235,10.691659999999501,11.484474999999293,12.322414999999523,13.1139749999993,14.089639999999235,14.963919999999234,15.949589999999262,16.846349999999802]",space,0.58166,0.0,12.0,12.0,28.0,1.0,,,,,,,,,,,,,
,,,,,,,,,,,block_1/medium_t_92_2.wav,timbre,t,medium,92.0,2.140863801,15.18521754,,,,yes,anker soundcore spirit,none,none,m,27,R,yes,1,2020-10-05_08h33.11.406,kura-B1,2020.1.2,Win32,60,,,"[""space"",""space"",""space"",""space"",""space"",""space"",""space"",""space"",""space"",""space""]","[0.999880000000303,2.43487499999992,3.6343800000004194,5.082919999999831,6.285985000000437,7.632730000000265,9.151354999999967,10.402035000000069,12.152799999999843,13.651315000000068]",space,1.302665,0.0,13.0,13.0,32.0,1.0,,,,,,,,,,,,,
,,,,,,,,,,,block_1/strong_t_105_1.wav,timbre,t,strong,105.0,1.984276879,14.42695262,,,,yes,anker soundcore spirit,none,none,m,27,R,yes,1,2020-10-05_08h33.11.406,kura-B1,2020.1.2,Win32,60,,,"[""space"",""space"",""space"",""space"",""space"",""space"",""space"",""space"",""space"",""space"",""space"",""space"",""space"",""space"",""space"",""space""]","[1.4661899999991874,2.725764999999228,3.9987249999994674,4.760009999999966,5.667809999999918,6.285640000000058,6.958754999999655,7.58360999999968,8.26694999999927,8.85627999999997,9.564875000000029,10.174454999999398,10.849809999999707,11.467539999999644,12.107949999999619,12.7241099999992]",space,0.893585,0.0,14.0,14.0,20.0,1.0,,,,,,,,,,,,,
,,,,,,,,,,,block_1/strong_t_119_1.wav,timbre,t,strong,119.0,2.009888221,11.97709911,,,,yes,anker soundcore spirit,none,none,m,27,R,yes,1,2020-10-05_08h33.11.406,kura-B1,2020.1.2,Win32,60,,,"[""space"",""space"",""space"",""space"",""space"",""space"",""space"",""space"",""space"",""space"",""space"",""space"",""space"",""space"",""space"",""space"",""space"",""space"",""space"",""space"",""space""]","[0.4412899999997535,0.8968949999998586,1.2135599999992337,1.6531849999992119,2.0670299999992494,2.590454999999565,3.1001399999995556,3.5776099999993676,4.080484999999385,4.537444999999934,5.089434999999867,5.548774999999296,6.033654999999271,6.54016499999932,7.016139999999723,7.490689999999631,7.983214999999291,8.482684999999947,9.130444999999781,9.481869999999617,9.996764999999868]",space,0.8688,0.0,15.0,15.0,27.0,1.0,,,,,,,,,,,,,
,,,,,,,,,,,block_1/medium_t_119_2.wav,timbre,t,medium,119.0,1.102065643,12.01802936,,,,yes,anker soundcore spirit,none,none,m,27,R,yes,1,2020-10-05_08h33.11.406,kura-B1,2020.1.2,Win32,60,,,"[""space"",""space"",""space"",""space"",""space"",""space"",""space"",""space"",""space"",""space"",""space"",""space"",""space"",""space"",""space"",""space"",""space"",""space"",""space"",""space"",""space"",""space"",""space"",""space"",""space"",""space"",""space"",""space"",""space"",""space"",""space"",""space""]","[0.3364500000006956,0.7532750000000306,1.0019400000001042,1.205155000000559,1.3519050000004427,1.873250000000553,2.1364300000004732,2.3827000000001135,2.5857650000007197,3.1174650000002657,3.288669999999911,3.698844999999892,4.151735000000372,4.342204999999922,4.688810000000558,4.852685000000747,5.207285000000411,5.768904999999904,6.193000000000211,6.37728000000061,6.551795000000311,6.784705000000031,7.126275000000533,7.635705000000598,8.036215000000084,8.267480000000432,8.800975000000108,9.136739999999918,9.653150000000096,10.18667000000005,10.693770000000882,10.993865000000369]",space,1.690065,0.0,16.0,16.0,38.0,1.0,,,,,,,,,,,,,
,,,,,,,,,,,block_1/strong_t_119_2.wav,timbre,t,strong,119.0,2.38266194,11.99749187,,,,yes,anker soundcore spirit,none,none,m,27,R,yes,1,2020-10-05_08h33.11.406,kura-B1,2020.1.2,Win32,60,,,"[""space"",""space"",""space"",""space"",""space"",""space"",""space"",""space"",""space"",""space"",""space"",""space"",""space"",""space"",""space"",""space"",""space"",""space"",""space"",""space"",""space"",""space""]","[0.6825749999998152,1.0570099999995364,1.4555249999992839,1.9376649999994697,2.3639949999997043,2.81646499999988,3.2755200000001423,3.7843050000001313,4.1527500000001965,4.6033699999998134,4.9548649999997,5.4409200000000055,6.00046999999995,6.4507800000001225,6.901245000000017,7.3719649999993635,7.824884999999995,8.25711499999943,8.700369999999566,9.150525000000016,9.603269999999611,10.048890000000029]",space,0.74236,0.0,17.0,17.0,31.0,1.0,,,,,,,,,,,,,
,,,,,,,,,,,block_1/strong_t_72_2.wav,timbre,t,strong,72.0,2.307367753,17.72600721,,,,yes,anker soundcore spirit,none,none,m,27,R,yes,1,2020-10-05_08h33.11.406,kura-B1,2020.1.2,Win32,60,,,"[""space"",""space"",""space"",""space"",""space"",""space"",""space"",""space"",""space"",""space"",""space"",""space"",""space"",""space"",""space"",""space"",""space"",""space"",""space"",""space"",""space""]","[1.3090249999994512,1.6512549999997646,2.2853100000002087,3.0838149999999587,3.900854999999865,4.683689999999842,5.423060000000078,6.3034349999998085,7.027720000000045,8.066774999999325,8.600109999999404,9.534450000000106,10.09936000000016,10.585014999999657,11.077274999999645,11.786094999999477,12.624124999999367,13.574254999999539,14.159310000000005,14.787389999999505,15.751075000000128]",space,25.48984,0.0,18.0,18.0,6.0,1.0,,,,,,,,,,,,,
,,,,,,,,,,,block_1/none_t_72_2.wav,timbre,t,none,72.0,1.436515358,19.69406638,,,,yes,anker soundcore spirit,none,none,m,27,R,yes,1,2020-10-05_08h33.11.406,kura-B1,2020.1.2,Win32,60,,,"[""space"",""space"",""space"",""space"",""space"",""space"",""space"",""space"",""space"",""space"",""space"",""space"",""space"",""space"",""space"",""space"",""space"",""space"",""space"",""space"",""space"",""space"",""space"",""space"",""space"",""space"",""space"",""space"",""space"",""space"",""space"",""space"",""space"",""space"",""space"",""space"",""space"",""space"",""space"",""space"",""space"",""space"",""space"",""space"",""space"",""space"",""space"",""space"",""space"",""space"",""space"",""space"",""space""]","[1.6367900000004738,1.9889600000005885,2.1849099999999453,2.4089100000001054,3.1697650000005524,3.4887500000004366,3.9342350000006263,4.352684999999838,4.662720000000263,4.981310000000121,5.330380000000332,5.797674999999799,6.197769999999764,6.661369999999806,6.947900000000118,7.254899999999907,7.498580000000402,8.036990000000515,8.264275000000453,8.469000000000051,8.789005000000543,9.126035000000229,9.471459999999752,9.764350000000377,10.223915000000488,10.52390000000014,11.098934999999983,11.383010000000468,11.611060000000066,11.899734999999964,12.195410000000265,12.799745000000257,13.135105000000294,13.485000000000582,14.097800000000461,14.464490000000296,14.663314999999784,14.882314999999721,15.07549999999992,15.315029999999751,15.50356499999998,15.681169999999838,15.896225000000413,16.084074999999757,16.32018000000062,16.533720000000358,16.769414999999753,17.014140000000225,17.298475000000508,17.7153100000005,17.913845000000038,18.362050000000522,18.54823000000033]",space,0.4545,0.0,19.0,19.0,21.0,1.0,,,,,,,,,,,,,
,,,,,,,,,,,block_1/strong_t_81_2.wav,timbre,t,strong,81.0,1.680376519,15.8366577,,,,yes,anker soundcore spirit,none,none,m,27,R,yes,1,2020-10-05_08h33.11.406,kura-B1,2020.1.2,Win32,60,,,"[""space"",""space"",""space"",""space"",""space"",""space"",""space"",""space"",""space"",""space"",""space"",""space"",""space"",""space"",""space"",""space"",""space"",""space"",""space"",""space""]","[0.5323799999996481,1.3533950000000914,2.0923099999999977,2.793630000000121,3.574604999999792,4.253174999999828,4.95987999999943,5.663744999999835,6.407079999999951,7.173020000000179,7.918445000000247,8.698695000000043,9.383359999999811,10.140730000000076,10.816619999999602,11.574074999999539,12.281895000000077,12.976649999999609,13.636700000000019,14.375769999999648]",space,0.66858,0.0,20.0,20.0,26.0,1.0,,,,,,,,,,,,,
,,,,,,,,,,,block_1/strong_t_81_1.wav,timbre,t,strong,81.0,1.303718429,15.55909258,,,,yes,anker soundcore spirit,none,none,m,27,R,yes,1,2020-10-05_08h33.11.406,kura-B1,2020.1.2,Win32,60,,,"[""space"",""space"",""space"",""space"",""space"",""space"",""space"",""space"",""space"",""space"",""space"",""space"",""space"",""space"",""space"",""space"",""space"",""space"",""space"",""space""]","[1.0909200000005512,1.729910000000018,2.5035850000003848,3.2140250000002197,3.8612199999997756,4.569550000000163,5.333220000000438,6.079424999999901,6.7336999999997715,7.41850500000055,8.174065000000155,8.896005000000514,9.63380000000052,10.296049999999923,10.983304999999746,11.764635000000453,12.429630000000543,13.146775000000162,13.830885000000308,14.582629999999881]",space,0.717655,0.0,21.0,21.0,30.0,1.0,,,,,,,,,,,,,
,,,,,,,,,,,block_1/strong_t_92_1.wav,timbre,t,strong,92.0,1.394968876,12.52589858,,,,yes,anker soundcore spirit,none,none,m,27,R,yes,1,2020-10-05_08h33.11.406,kura-B1,2020.1.2,Win32,60,,,"[""space"",""space"",""space"",""space"",""space"",""space"",""space"",""space"",""space"",""space"",""space"",""space"",""space"",""space"",""space"",""space"",""space"",""space"",""space""]","[1.050069999999323,1.6169700000000375,2.1337049999992814,2.6675399999994625,3.2031999999999243,3.8175699999992503,4.417699999999968,4.967584999999417,5.5675099999998565,6.069590000000062,6.616594999999506,7.1828749999995125,7.7342949999992925,8.366140000000087,9.067879999999604,9.670114999999896,10.251569999999447,10.816774999999325,11.366814999999406]",space,0.636095,0.0,22.0,22.0,1.0,1.0,,,,,,,,,,,,,
,,,,,,,,,,,block_1/none_t_119_1.wav,timbre,t,none,119.0,1.970403652,15.3319456,,,,yes,anker soundcore spirit,none,none,m,27,R,yes,1,2020-10-05_08h33.11.406,kura-B1,2020.1.2,Win32,60,,,"[""space"",""space"",""space"",""space"",""space"",""space"",""space"",""space"",""space"",""space"",""space"",""space"",""space"",""space"",""space"",""space"",""space"",""space"",""space"",""space"",""space"",""space"",""space"",""space"",""space"",""space"",""space"",""space"",""space"",""space"",""space"",""space"",""space"",""space"",""space"",""space"",""space"",""space"",""space"",""space"",""space"",""space"",""space"",""space"",""space"",""space""]","[0.30327000000033877,0.619499999999789,0.8513149999998859,1.1025200000003679,1.368489999999838,1.6385250000002998,1.91953999999987,2.172440000000279,2.419275000000198,2.6526850000000195,2.91646000000037,3.516845000000103,3.7991799999999785,4.0721199999998134,4.467155000000275,4.65110999999979,4.867659999999887,5.282834999999977,5.557394999999815,5.800020000000586,6.0572700000001305,6.369209999999953,6.6993350000002465,6.8993650000001026,7.366235000000415,7.886395000000448,8.09083999999973,8.287000000000262,8.490235000000325,8.704660000000331,8.948664999999892,9.535840000000462,9.998615000000427,10.218179999999847,10.583950000000186,11.390769999999975,11.589515000000574,11.85667999999987,12.080265000000509,12.288010000000213,12.482915000000503,12.915375000000495,13.04216499999984,13.289795000000595,13.498669999999947,13.731385000000046]",space,2.78505,0.0,23.0,23.0,39.0,1.0,,,,,,,,,,,,,
,,,,,,,,,,,block_1/medium_t_81_2.wav,timbre,t,medium,81.0,1.849325936,17.01676358,,,,yes,anker soundcore spirit,none,none,m,27,R,yes,1,2020-10-05_08h33.11.406,kura-B1,2020.1.2,Win32,60,,,"[""space"",""space"",""space"",""space"",""space"",""space"",""space"",""space"",""space"",""space"",""space"",""space"",""space"",""space"",""space"",""space"",""space"",""space"",""space"",""space"",""space"",""space"",""space"",""space"",""space"",""space"",""space"",""space"",""space"",""space"",""space"",""space"",""space"",""space"",""space"",""space"",""space"",""space"",""space"",""space""]","[0.4910250000002634,0.8439550000002782,1.1352900000001682,1.3693950000006225,1.7748400000000402,2.3605500000003303,2.755329999999958,2.9655650000004243,3.747809999999845,4.121195000000625,4.354505000000245,4.565645000000586,4.953155000000152,5.257335000000239,5.602705000000242,5.876189999999951,6.103465000000142,6.566135000000031,6.812410000000455,7.377105000000483,7.604670000000624,8.087665000000015,8.351529999999912,9.07456499999978,9.339060000000245,9.777525000000423,10.017400000000634,10.531945000000633,10.78621000000021,11.3420100000003,11.601305000000139,12.087940000000344,12.33804500000042,12.845405000000028,13.167335000000094,13.668155000000297,14.001400000000103,14.48537000000033,14.75507000000016,15.218020000000251]",space,1.109005,0.0,24.0,24.0,7.0,1.0,,,,,,,,,,,,,
,,,,,,,,,,,block_1/none_t_105_2.wav,timbre,t,none,105.0,1.938353853,15.01835385,,,,yes,anker soundcore spirit,none,none,m,27,R,yes,1,2020-10-05_08h33.11.406,kura-B1,2020.1.2,Win32,60,,,"[""space"",""space"",""space"",""space"",""space"",""space"",""space"",""space"",""space"",""space"",""space"",""space"",""space"",""space"",""space"",""space"",""space"",""space"",""space"",""space"",""space"",""space"",""space"",""space"",""space"",""space"",""space"",""space"",""space"",""space"",""space""]","[0.7032900000003792,0.9753099999998085,1.4028250000001208,1.8385499999994863,2.266244999999799,2.668569999999818,3.0501549999999042,3.4869049999997515,3.9163250000001426,4.54233000000022,4.899800000000141,5.250804999999673,5.7181000000000495,6.11142000000018,6.552085000000261,7.182759999999689,7.523105000000214,8.083924999999908,8.460439999999835,8.84344499999952,9.268605000000207,9.631709999999657,9.988769999999931,10.357989999999518,10.683364999999867,11.268004999999789,11.483535000000302,11.764259999999922,12.360160000000178,12.808044999999765,13.184314999999515]",space,1.382895,0.0,25.0,25.0,14.0,1.0,,,,,,,,,,,,,
,,,,,,,,,,,block_1/medium_t_105_1.wav,timbre,t,medium,105.0,2.180706288,14.37050221,,,,yes,anker soundcore spirit,none,none,m,27,R,yes,1,2020-10-05_08h33.11.406,kura-B1,2020.1.2,Win32,60,,,"[""space"",""space"",""space"",""space"",""space"",""space"",""space"",""space"",""space"",""space"",""space"",""space"",""space"",""space"",""space"",""space"",""space"",""space""]","[0.1359199999997145,0.6559149999994816,1.2830749999993714,3.700369999999566,4.237774999999601,5.132084999999279,6.018389999999272,6.506499999999505,7.267439999999624,7.780819999999949,8.452389999999468,9.118884999999864,9.865944999999556,10.516984999999295,11.050169999999525,11.651044999999613,12.174619999999777,12.450089999999363]",space,3.30027,0.0,26.0,26.0,16.0,1.0,,,,,,,,,,,,,
,,,,,,,,,,,block_1/none_t_119_2.wav,timbre,t,none,119.0,1.154672461,11.7267813,,,,yes,anker soundcore spirit,none,none,m,27,R,yes,1,2020-10-05_08h33.11.406,kura-B1,2020.1.2,Win32,60,,,"[""space"",""space"",""space"",""space"",""space"",""space"",""space"",""space"",""space"",""space"",""space"",""space"",""space"",""space"",""space"",""space"",""space"",""space"",""space"",""space""]","[0.9669700000004013,1.231275000000096,1.5813550000002579,1.9810299999999188,2.518224999999802,2.9843849999997474,3.715454999999565,4.270239999999831,4.945880000000216,5.703534999999647,5.996420000000398,6.24574500000017,6.656689999999799,7.083599999999933,7.4053350000003775,9.072124999999687,9.478124999999636,9.87191999999959,10.255135000000337,10.680720000000292]",space,0.17549,0.0,27.0,27.0,35.0,1.0,,,,,,,,,,,,,
,,,,,,,,,,,block_1/weak_t_72_1.wav,timbre,t,weak,72.0,1.20875322,18.28390061,,,,yes,anker soundcore spirit,none,none,m,27,R,yes,1,2020-10-05_08h33.11.406,kura-B1,2020.1.2,Win32,60,,,"[""space"",""space"",""space"",""space"",""space"",""space"",""space"",""space"",""space"",""space"",""space"",""space"",""space"",""space"",""space"",""space"",""space"",""space"",""space"",""space"",""space"",""space"",""space"",""space"",""space"",""space"",""space"",""space"",""space"",""space"",""space"",""space"",""space"",""space"",""space"",""space"",""space""]","[0.81804000000011,1.0502800000003845,1.169065000000046,1.4453400000002148,1.7067750000005617,2.0147900000001755,2.2189250000001266,2.7081450000005134,2.924365000000762,4.250050000000556,4.7331550000008065,5.414535000000797,5.797845000000052,6.600925000000643,6.854890000000523,7.4389450000007855,8.33310000000074,8.76731000000018,9.08507499999996,9.617095000000518,10.037740000000667,10.491595000000416,10.735280000000785,11.32149500000014,11.616485000000466,12.295345000000452,12.686825000000681,13.120550000000549,13.926010000000133,14.32520999999997,14.690660000000207,15.37645000000066,15.592400000000453,16.25820500000009,16.574260000000322,17.210105000000112,17.38765500000045]",space,0.99325,0.0,28.0,28.0,29.0,1.0,,,,,,,,,,,,,
,,,,,,,,,,,block_1/medium_t_81_1.wav,timbre,t,medium,81.0,2.382699777,16.54165669,,,,yes,anker soundcore spirit,none,none,m,27,R,yes,1,2020-10-05_08h33.11.406,kura-B1,2020.1.2,Win32,60,,,"[""space"",""space"",""space"",""space"",""space"",""space"",""space"",""space"",""space"",""space"",""space"",""space"",""space"",""space"",""space"",""space"",""space"",""space"",""space"",""space"",""space"",""space"",""space"",""space"",""space"",""space""]","[0.514194999999745,2.4401799999996,2.820520000000215,3.30399000000034,3.582900000000336,4.071759999999813,4.556075000000419,5.135075000000143,5.606689999999617,6.223934999999983,8.022224999999708,8.404665000000023,8.670414999999593,9.114669999999933,9.425224999999955,9.90409499999987,10.173935000000029,10.671564999999646,11.003060000000005,11.640435000000252,12.175215000000208,12.703545000000304,13.105419999999867,13.488115000000107,13.988664999999855,14.468085000000428]",space,2.924645,0.0,29.0,29.0,4.0,1.0,,,,,,,,,,,,,
,,,,,,,,,,,block_1/none_t_72_1.wav,timbre,t,none,72.0,2.370838854,21.3551926,,,,yes,anker soundcore spirit,none,none,m,27,R,yes,1,2020-10-05_08h33.11.406,kura-B1,2020.1.2,Win32,60,,,"[""space"",""space"",""space"",""space"",""space"",""space"",""space"",""space"",""space"",""space"",""space"",""space"",""space"",""space"",""space"",""space"",""space"",""space"",""space"",""space"",""space"",""space"",""space"",""space"",""space"",""space"",""space"",""space"",""space"",""space"",""space"",""space"",""space"",""space"",""space"",""space""]","[0.43998499999997875,0.8471200000003591,1.2729749999998603,1.7557200000001103,2.2237400000003618,2.738745000000563,3.5875000000005457,3.926234999999906,4.289665000000241,4.760240000000522,5.257045000000289,5.822165000000496,6.387180000000626,6.970390000000407,7.733159999999771,8.286340000000564,8.861390000000029,9.411654999999882,9.925960000000487,10.45643999999993,11.223289999999906,11.68667000000005,12.215430000000197,13.00471000000016,13.486120000000483,13.952785000000404,14.363350000000537,14.806709999999839,15.712529999999788,16.153220000000147,16.939155000000028,17.454760000000533,17.990284999999858,18.52612500000032,18.917725000000246,19.48210999999992]",space,0.654395,0.0,30.0,30.0,23.0,1.0,,,,,,,,,,,,,
,,,,,,,,,,,block_1/none_t_81_2.wav,timbre,t,none,81.0,1.650015351,20.40348474,,,,yes,anker soundcore spirit,none,none,m,27,R,yes,1,2020-10-05_08h33.11.406,kura-B1,2020.1.2,Win32,60,,,"[""space"",""space"",""space"",""space"",""space"",""space"",""space"",""space"",""space"",""space"",""space"",""space"",""space"",""space"",""space"",""space"",""space"",""space"",""space"",""space"",""space"",""space"",""space"",""space"",""space"",""space"",""space"",""space"",""space"",""space"",""space"",""space"",""space"",""space"",""space"",""space"",""space"",""space"",""space"",""space"",""space"",""space"",""space"",""space"",""space"",""space"",""space"",""space"",""space"",""space"",""space"",""space"",""space"",""space"",""space"",""space"",""space"",""space"",""space"",""space"",""space"",""space"",""space"",""space""]","[0.3349000000007436,0.6667900000002192,1.0001650000003792,1.358900000000176,1.6666750000003958,2.014455000000453,2.309755000000223,2.7324450000005527,3.022990000000391,3.420955000000504,3.70441000000028,4.206945000000815,4.48682000000008,4.888410000000476,5.287250000000313,5.550445000000764,6.3557300000002215,6.56507000000056,6.7743600000003426,7.1167050000003655,7.366195000000516,7.684050000000752,7.893910000000687,8.274140000000443,8.586189999999988,8.935240000000704,9.434790000000248,9.63601000000017,9.899970000000394,10.289160000000265,10.484640000000581,10.892765000000509,11.083905000000641,11.4660700000004,11.653189999999995,12.05328500000087,12.263315000000148,12.642110000000685,12.82381500000065,13.134515000000647,13.333575000000565,13.665500000000065,14.035320000000866,14.334325000000717,14.574500000000626,14.95387500000038,15.167825000000448,15.324105000000827,15.5739250000006,15.724474999999984,16.002745000000687,16.17650500000036,16.368835000000217,16.834960000000137,17.015485000000808,17.222145000000864,17.513020000000324,17.739370000000235,17.96829499999967,18.121840000000475,18.33424500000092,18.604440000000068,18.800750000001244,19.00474000000122]",space,0.58504,0.0,31.0,31.0,10.0,1.0,,,,,,,,,,,,,
,,,,,,,,,,,block_1/none_t_92_1.wav,timbre,t,none,92.0,2.134114385,14.96545225,,,,yes,anker soundcore spirit,none,none,m,27,R,yes,1,2020-10-05_08h33.11.406,kura-B1,2020.1.2,Win32,60,,,"[""space"",""space"",""space"",""space"",""space"",""space"",""space"",""space"",""space"",""space"",""space"",""space"",""space"",""space"",""space"",""space"",""space"",""space"",""space"",""space"",""space"",""space"",""space"",""space"",""space"",""space"",""space"",""space"",""space"",""space"",""space"",""space"",""space"",""space"",""space"",""space"",""space"",""space"",""space""]","[0.48783999999977823,0.7136049999990064,1.0005399999990914,1.2795900000000984,1.6176500000001397,1.8159899999991467,2.0962600000002567,2.3654699999988225,2.6805249999997613,2.9516249999996944,3.2349649999996473,3.528599999999642,3.8059199999988778,4.140910000000076,4.422440000000279,4.732074999999895,5.106654999999591,5.338854999999967,5.730270000000019,5.8892849999992904,6.497939999999289,6.9024200000003475,7.121644999999262,7.529834999999366,7.753499999998894,8.230719999999565,8.463990000000194,9.181104999999889,9.34613999999965,9.548399999999674,10.013899999999921,10.23015999999916,10.567629999999554,10.878414999999222,11.66231499999958,11.843919999999343,12.396295000000464,12.60615499999949,12.93143500000042]",space,15.95641,0.0,32.0,32.0,15.0,1.0,,,,,,,,,,,,,
,,,,,,,,,,,block_1/strong_t_72_1.wav,timbre,t,strong,72.0,2.410899129,18.9853209,,,,yes,anker soundcore spirit,none,none,m,27,R,yes,1,2020-10-05_08h33.11.406,kura-B1,2020.1.2,Win32,60,,,"[""space"",""space"",""space"",""space"",""space"",""space"",""space"",""space"",""space"",""space"",""space"",""space"",""space"",""space"",""space"",""space"",""space"",""space"",""space"",""space""]","[0.8463300000003073,1.7290049999992334,2.5813099999995757,3.460364999999001,4.279305000000022,5.212139999999636,6.019865000000209,6.854980000000069,7.690284999998767,8.512744999999995,9.364559999999983,10.150594999999157,10.98718000000008,11.779875000000175,12.613869999999224,13.479465000000346,14.269664999999804,15.100155000000086,15.890159999999014,16.71740999999929]",space,6.524635,0.0,33.0,33.0,9.0,1.0,,,,,,,,,,,,,
,,,,,,,,,,,block_1/weak_t_92_1.wav,timbre,t,weak,92.0,1.851617747,15.24780822,,,,yes,anker soundcore spirit,none,none,m,27,R,yes,1,2020-10-05_08h33.11.406,kura-B1,2020.1.2,Win32,60,,,"[""space"",""space"",""space"",""space"",""space"",""space"",""space"",""space"",""space"",""space"",""space"",""space"",""space"",""space"",""space"",""space"",""space"",""space"",""space"",""space"",""space"",""space"",""space"",""space"",""space"",""space"",""space"",""space""]","[0.5660099999986414,1.1825749999989057,1.6115549999994982,1.972249999998894,2.3485249999994267,2.7314799999985553,3.101214999998774,3.4825199999995675,4.101274999999077,4.648804999999129,5.119714999998905,5.696959999999308,6.328279999999722,7.0132249999987835,7.74690499999997,8.332204999998794,8.980139999999665,9.686954999999216,10.296080000000075,10.639624999999796,10.890409999999974,11.346049999998286,11.7119699999987,12.1789749999989,12.58399499999905,13.000464999999167,13.348534999999174,14.698059999998804]",space,2.051385,0.0,34.0,34.0,33.0,1.0,,,,,,,,,,,,,
,,,,,,,,,,,block_1/weak_t_81_1.wav,timbre,t,weak,81.0,1.734429931,16.79973605,,,,yes,anker soundcore spirit,none,none,m,27,R,yes,1,2020-10-05_08h33.11.406,kura-B1,2020.1.2,Win32,60,,,"[""space"",""space"",""space"",""space"",""space"",""space"",""space"",""space"",""space"",""space"",""space"",""space"",""space"",""space"",""space"",""space"",""space"",""space"",""space"",""space"",""space"",""space"",""space"",""space"",""space""]","[0.49514499999895634,1.0173799999993207,1.6062199999996665,2.1616099999992002,2.6289299999989453,3.084194999999454,3.6946250000000873,4.320369999999457,5.227859999999055,5.852049999999508,6.478904999999941,6.947290000000066,7.494449999999915,8.255049999999756,8.879899999999907,9.572565000000395,10.178829999998925,11.149799999999232,11.527985000000626,12.233664999999746,13.11413999999968,13.905375000000276,14.680355000000418,15.128394999999728,15.444924999999785]",space,0.91876,0.0,35.0,35.0,8.0,1.0,,,,,,,,,,,,,
,,,,,,,,,,,block_1/weak_t_72_2.wav,timbre,t,weak,72.0,1.186310873,16.45742198,,,,yes,anker soundcore spirit,none,none,m,27,R,yes,1,2020-10-05_08h33.11.406,kura-B1,2020.1.2,Win32,60,,,"[""space"",""space"",""space"",""space"",""space"",""space"",""space"",""space"",""space"",""space"",""space"",""space"",""space"",""space"",""space"",""space"",""space"",""space"",""space"",""space"",""space""]","[0.6835799999992105,1.2832600000003822,1.931179999999813,3.0274199999985285,3.694089999999278,4.628549999999677,5.464079999999967,6.030549999999721,6.921075000000428,7.545414999998911,7.804309999999759,8.620694999999841,9.200900000000047,10.112900000000309,11.028875000000198,11.68028999999865,12.470819999998866,13.084884999998621,13.919124999998758,14.678594999999632,15.478975000000219]",space,0.817595,0.0,36.0,36.0,25.0,1.0,,,,,,,,,,,,,
,,,,,,,,,,,block_1/strong_t_92_2.wav,timbre,t,strong,92.0,1.228007131,14.47607969,,,,yes,anker soundcore spirit,none,none,m,27,R,yes,1,2020-10-05_08h33.11.406,kura-B1,2020.1.2,Win32,60,,,"[""space"",""space"",""space"",""space"",""space"",""space"",""space"",""space"",""space"",""space"",""space"",""space"",""space"",""space"",""space"",""space"",""space"",""space"",""space""]","[1.4686000000001513,2.071705000000293,2.7214299999998275,3.4351449999994657,4.082704999998896,4.723915000000488,5.335724999999002,5.970859999999448,6.7530050000002575,7.469879999998739,7.985805000000255,8.688650000000052,9.210949999998775,9.969395000000077,10.803425000000061,11.449220000000423,12.152234999999564,12.845444999999017,13.570644999999786]",space,1.301475,0.0,37.0,37.0,3.0,1.0,,,,,,,,,,,,,
,,,,,,,,,,,block_1/weak_t_81_2.wav,timbre,t,weak,81.0,1.961200407,15.36428431,,,,yes,anker soundcore spirit,none,none,m,27,R,yes,1,2020-10-05_08h33.11.406,kura-B1,2020.1.2,Win32,60,,,"[""space"",""space"",""space"",""space"",""space"",""space"",""space"",""space"",""space"",""space"",""space"",""space"",""space"",""space"",""space"",""space"",""space"",""space"",""space"",""space"",""space"",""space"",""space"",""space"",""space"",""space"",""space"",""space"",""space""]","[0.7495300000009593,1.1731300000010378,1.3668350000007194,1.827980000000025,2.3369800000000396,2.646695000001273,3.2741299999997864,3.896585000000414,4.464280000000372,4.732659999999669,5.380525000000262,5.866055000000415,6.348345000000336,6.981644999999844,7.505100000000311,8.14111000000048,8.727845000001025,8.911245000001145,9.513565000001108,9.695735000001378,10.282110000000102,10.76224000000002,11.161785000000236,11.58140000000094,12.096960000000763,12.281315000000177,12.812620000000607,13.140375000000859,13.797819999999774]",space,0.06902,0.0,38.0,38.0,5.0,1.0,,,,,,,,,,,,,
,,,,,,,,,,,block_1/medium_t_92_1.wav,timbre,t,medium,92.0,2.038979261,15.74360511,,,,yes,anker soundcore spirit,none,none,m,27,R,yes,1,2020-10-05_08h33.11.406,kura-B1,2020.1.2,Win32,60,,,"[""space"",""space"",""space"",""space"",""space"",""space"",""space"",""space"",""space"",""space"",""space"",""space"",""space"",""space"",""space"",""space"",""space"",""space"",""space"",""space"",""space"",""space"",""space"",""space"",""space"",""space"",""space"",""space"",""space"",""space"",""space"",""space"",""space"",""space"",""space"",""space""]","[0.5365750000000844,0.9533750000009604,1.370390000000043,1.8164450000003853,2.205654999999524,2.61958500000037,3.3566000000007534,4.130110000000286,4.487670000000435,4.708855000000767,4.926005000001169,5.290805000000546,5.474205000000438,5.885200000000623,6.109370000000126,6.470675000000483,6.785570000000007,7.076290000000881,7.457599999999729,7.697780000000421,8.135840000000826,8.363350000001219,8.917489999999816,9.141970000000583,9.543015000001105,9.819854999999734,10.312930000000051,10.722795000001497,11.120120000001407,11.339590000001408,11.686385000000882,12.440210000000661,12.740775000000212,13.108525000001464,13.484495000000607,13.803550000000541]",space,0.607045,0.0,39.0,39.0,36.0,1.0,,,,,,,,,,,,,
,,,,,,,,,,,block_2/medium_n_119_2.wav,no,n,medium,119.0,2.453413839,11.51042064,,,,yes,anker soundcore spirit,none,none,m,27,R,yes,1,2020-10-05_08h33.11.406,kura-B1,2020.1.2,Win32,60,,,,,,,,,,,,space,105.908465,"[""space"",""space"",""space"",""space"",""space"",""space"",""space"",""space"",""space"",""space"",""space"",""space"",""space"",""space"",""space"",""space"",""space"",""space"",""space""]","[1.8130199999995966,2.454669999999169,2.7323749999995925,2.9463400000004185,3.6133049999989453,3.837019999999029,5.0792249999994965,5.51882999999907,5.923774999999296,6.3807400000005146,6.67618500000026,6.9058399999994435,7.571120000000519,7.86904499999946,8.127604999999676,8.469769999999698,8.927749999998923,9.536119999998846,11.435830000000351]",space,4.084585,0.0,0.0,0.0,21.0,1.0,,
,,,,,,,,,,,block_2/weak_n_72_1.wav,no,n,weak,72.0,2.399201816,17.30954195,,,,yes,anker soundcore spirit,none,none,m,27,R,yes,1,2020-10-05_08h33.11.406,kura-B1,2020.1.2,Win32,60,,,,,,,,,,,,,,"[""space"",""space"",""space"",""space"",""space"",""space"",""space"",""space"",""space"",""space"",""space"",""space"",""space"",""space"",""space"",""space"",""space"",""space"",""space"",""space"",""space"",""space"",""space"",""space"",""space"",""space"",""space"",""space"",""space"",""space"",""space"",""space"",""space"",""space"",""space"",""space""]","[0.5366799999992509,0.952144999999291,1.0951700000005076,1.4684350000006816,1.744329999999536,1.9366300000001502,2.3180350000002363,2.6420949999992445,2.903404999999111,3.4218049999999494,3.7857850000000326,4.1394600000003265,4.305290000000241,4.687420000000429,4.867239999999583,5.585909999999785,6.0562300000001414,6.535499999999956,6.735404999999446,7.0381799999995565,7.2579349999994065,7.638245000000097,7.86823000000004,8.274294999999256,8.526270000000522,9.010309999999663,9.598079999999754,9.976239999999962,10.358169999999518,12.108125000000655,12.891895000000659,13.951849999999467,14.33563999999933,14.587030000000595,15.092059999999037,15.292690000000448]",space,1.8726,0.0,1.0,1.0,15.0,1.0,,
,,,,,,,,,,,block_2/strong_n_119_2.wav,no,n,strong,119.0,1.626584736,10.88871625,,,,yes,anker soundcore spirit,none,none,m,27,R,yes,1,2020-10-05_08h33.11.406,kura-B1,2020.1.2,Win32,60,,,,,,,,,,,,,,"[""space"",""space"",""space"",""space"",""space"",""space"",""space"",""space"",""space"",""space"",""space"",""space"",""space"",""space"",""space"",""space"",""space"",""space"",""space"",""space"",""space"",""space""]","[0.9242050000011659,1.1522050000003219,1.4067750000015167,1.8032800000000861,2.185395000000426,2.4573550000004616,2.9026649999996152,3.419804999999542,3.869910000001255,4.369510000000446,4.769089999999778,5.173780000000988,5.6050800000011805,6.035659999999552,6.432235000000219,6.792085000000952,7.226660000000265,7.702015000000756,8.16856000000007,8.611920000001192,9.065135000000737,9.519295000000056]",space,1.111905,0.0,2.0,2.0,17.0,1.0,,
,,,,,,,,,,,block_2/weak_n_119_2.wav,no,n,weak,119.0,1.359763169,11.32207609,,,,yes,anker soundcore spirit,none,none,m,27,R,yes,1,2020-10-05_08h33.11.406,kura-B1,2020.1.2,Win32,60,,,,,,,,,,,,,,"[""space"",""space"",""space"",""space"",""space"",""space"",""space"",""space"",""space"",""space"",""space"",""space"",""space"",""space"",""space"",""space"",""space"",""space"",""space"",""space"",""space"",""space"",""space"",""space"",""space"",""space"",""space"",""space"",""space"",""space"",""space"",""space"",""space"",""space""]","[0.40987499999937427,0.7209700000003068,0.9196950000005018,1.1344049999988783,1.332314999999653,1.529220000000123,1.935830000000351,2.1194699999996374,2.324370000000272,2.535280000000057,2.8927000000001044,3.2339149999988877,3.626174999999421,3.8233000000000175,4.218150000000605,4.459469999999783,4.672694999999294,4.9409450000002835,5.285550000000512,5.57158999999956,6.021660000000338,6.191624999999476,6.626604999999472,6.869670000000042,7.2512599999990925,7.771489999999176,7.960689999999886,8.302224999999453,8.46075000000019,8.956319999999323,9.15119500000037,9.771085000000312,9.935884999998962,10.209090000000288]",space,0.764125,0.0,3.0,3.0,36.0,1.0,,
,,,,,,,,,,,block_2/none_n_105_1.wav,no,n,none,105.0,1.731065446,15.85351443,,,,yes,anker soundcore spirit,none,none,m,27,R,yes,1,2020-10-05_08h33.11.406,kura-B1,2020.1.2,Win32,60,,,,,,,,,,,,,,"[""space"",""space"",""space"",""space"",""space"",""space"",""space"",""space"",""space"",""space"",""space"",""space"",""space"",""space"",""space"",""space"",""space"",""space"",""space"",""space"",""space"",""space"",""space"",""space"",""space"",""space"",""space"",""space"",""space"",""space"",""space"",""space"",""space"",""space"",""space"",""space"",""space"",""space"",""space"",""space"",""space"",""space"",""space"",""space"",""space"",""space""]","[0.5075249999993048,0.7439299999989544,0.9899499999994532,1.3202750000002652,1.6454099999994014,1.819700000000239,2.001179999999522,2.2878050000003896,3.205430000000206,3.404394999999795,3.737359999999626,3.854274999999916,4.206679999999551,4.764484999999922,4.971695000000409,5.254224999998996,5.443094999998948,5.637834999999768,5.826489999999694,6.023245000000543,6.258850000000393,6.705594999999676,6.964580000000296,7.373284999999896,7.574679999999944,7.99597000000017,8.185174999998935,8.370129999999563,8.569980000000669,9.14591999999925,9.318690000000288,9.515825000000632,9.719255000000203,10.321379999999635,10.553479999998899,11.162639999998873,11.634809999999788,12.069004999999606,12.23552500000028,12.568419999999833,12.85418500000037,13.4076349999998,13.677205000000185,13.958479999999554,14.602189999999837,15.687879999999723]",space,1.652965,0.0,4.0,4.0,0.0,1.0,,
,,,,,,,,,,,block_2/weak_n_92_2.wav,no,n,weak,92.0,1.908793764,14.14589127,,,,yes,anker soundcore spirit,none,none,m,27,R,yes,1,2020-10-05_08h33.11.406,kura-B1,2020.1.2,Win32,60,,,,,,,,,,,,,,"[""space"",""space"",""space"",""space"",""space"",""space"",""space"",""space"",""space"",""space"",""space"",""space"",""space"",""space"",""space"",""space"",""space"",""space"",""space"",""space"",""space"",""space"",""space"",""space"",""space"",""space"",""space"",""space"",""space"",""space"",""space"",""space"",""space"",""space"",""space"",""space""]","[0.42265000000043074,0.7777150000001711,0.9854699999996228,1.1618950000010955,2.176774999999907,2.5898600000000442,2.7879050000010466,3.2279799999996612,3.442075000000841,3.8698850000000675,4.033175000000483,4.639210000001185,4.905425000000832,5.127500000000509,5.869940000000497,6.30650500000047,6.478134999999156,6.910910000000513,7.30457000000024,7.550090000000637,7.881290000001172,8.243669999999838,8.679079999999885,8.887010000000373,9.30688999999984,9.499460000000909,9.927850000000035,10.105015000001004,10.6865600000001,10.894395000001168,11.455610000000888,11.63021000000117,11.821864999999889,12.00269500000104,12.40824000000066,12.5914300000004]",space,2.78398,0.0,5.0,5.0,6.0,1.0,,
,,,,,,,,,,,block_2/none_n_92_1.wav,no,n,none,92.0,1.273053946,17.86126256,,,,yes,anker soundcore spirit,none,none,m,27,R,yes,1,2020-10-05_08h33.11.406,kura-B1,2020.1.2,Win32,60,,,,,,,,,,,,,,"[""space"",""space"",""space"",""space"",""space"",""space"",""space"",""space"",""space"",""space"",""space"",""space"",""space"",""space"",""space"",""space"",""space"",""space"",""space"",""space"",""space"",""space"",""space"",""space"",""space"",""space"",""space"",""space"",""space"",""space"",""space"",""space"",""space"",""space"",""space"",""space"",""space"",""space"",""space"",""space"",""space""]","[0.46419499999865366,0.7092799999991257,0.9048149999998714,1.2445850000003702,1.4373949999990145,1.859424999998737,3.9599199999991015,4.984169999999722,5.4115899999997055,5.837774999999965,6.037865000000238,6.922184999999445,7.22119500000008,7.528119999999035,7.935534999998708,8.31161499999871,8.702409999999873,9.286650000000236,9.73488499999985,10.10109999999986,10.583314999999857,10.874684999998863,11.369919999999183,11.769014999999854,12.267604999999094,12.600580000000264,13.178014999999505,13.602390000000014,13.835664999998698,14.031999999999243,14.521794999998747,14.692745000000286,14.903075000000172,15.093414999999368,15.284845000000132,15.551969999998619,15.740224999999555,15.95857999999862,16.297574999998687,16.51720000000023,16.836680000000342]",space,1.469355,0.0,6.0,6.0,20.0,1.0,,
,,,,,,,,,,,block_2/weak_n_105_2.wav,no,n,weak,105.0,1.251032373,14.19257432,,,,yes,anker soundcore spirit,none,none,m,27,R,yes,1,2020-10-05_08h33.11.406,kura-B1,2020.1.2,Win32,60,,,,,,,,,,,,,,"[""space"",""space"",""space"",""space"",""space"",""space"",""space"",""space"",""space"",""space"",""space"",""space"",""space"",""space"",""space"",""space"",""space"",""space"",""space"",""space"",""space"",""space"",""space"",""space"",""space"",""space"",""space"",""space"",""space"",""space"",""space"",""space"",""space"",""space"",""space"",""space"",""space"",""space""]","[0.284365000001344,0.8242200000004232,1.051405000000159,1.6090600000006816,1.8062950000003184,2.184850000001461,2.3713600000010047,2.7372599999998783,2.917205000001559,3.2915650000013557,3.513955000000351,4.221090000000913,4.392270000000281,4.968670000000202,5.259020000001556,5.475195000000895,5.85331000000042,6.11802500000158,6.559915000001638,6.732579999999871,7.3660950000012235,7.590550000000803,8.121695000001637,8.325130000001081,8.784200000000055,8.983460000001287,9.356105000000753,9.508710000000065,9.899460000000545,10.116869999999835,10.634375000001455,10.834609999999884,11.172300000000178,11.367050000000745,11.89992500000153,12.650405000000319,12.972155000001294,13.269795000000158]",space,1.534415,0.0,7.0,7.0,26.0,1.0,,
,,,,,,,,,,,block_2/medium_n_92_2.wav,no,n,medium,92.0,1.042358962,12.57945647,,,,yes,anker soundcore spirit,none,none,m,27,R,yes,1,2020-10-05_08h33.11.406,kura-B1,2020.1.2,Win32,60,,,,,,,,,,,,,,"[""space"",""space"",""space"",""space"",""space"",""space"",""space"",""space"",""space"",""space"",""space"",""space"",""space"",""space"",""space"",""space"",""space"",""space"",""space"",""space"",""space"",""space"",""space"",""space""]","[2.8309750000007625,3.216739999999845,3.403840000000855,3.7654750000001513,3.9799149999998917,4.388640000001033,4.609875000000102,4.9761450000005425,5.184600000000501,5.819580000001224,6.4003800000009505,6.780400000001464,7.348920000000362,7.965030000001207,8.716734999999971,9.416070000001127,9.84072500000002,10.054420000000391,10.483294999999998,10.66416500000014,11.117734999999811,11.335920000001352,11.757540000000517,12.21509000000151]",space,2.1084,0.0,8.0,8.0,1.0,1.0,,
,,,,,,,,,,,block_2/none_n_119_2.wav,no,n,none,119.0,2.143940737,13.70121965,,,,yes,anker soundcore spirit,none,none,m,27,R,yes,1,2020-10-05_08h33.11.406,kura-B1,2020.1.2,Win32,60,,,,,,,,,,,,,,"[""space"",""space"",""space"",""space"",""space"",""space"",""space"",""space"",""space"",""space"",""space"",""space"",""space"",""space"",""space"",""space"",""space"",""space"",""space"",""space"",""space"",""space"",""space"",""space"",""space"",""space"",""space"",""space"",""space"",""space"",""space"",""space"",""space"",""space"",""space"",""space"",""space""]","[0.11818499999935739,0.6172349999997095,0.8012349999989965,1.0187200000000303,1.2686199999991459,1.4729850000003353,1.7159950000004756,1.9401450000004843,2.1613999999990483,2.4721499999996013,3.305774999998903,3.8002249999990454,4.219049999999697,4.644314999999551,5.065854999998919,5.390049999999974,5.6500599999999395,5.932204999999158,6.4365600000000995,6.634469999999055,7.843289999998888,8.08989499999916,8.492034999999305,8.90029499999946,9.204620000000432,9.567274999999427,9.693774999999732,9.885659999999916,10.055500000000393,10.217399999999543,10.47479999999996,10.68621499999972,10.903329999999187,11.202745000000505,11.418204999999944,11.774825000000419,13.269089999999778]",space,0.80647,0.0,9.0,9.0,25.0,1.0,,
,,,,,,,,,,,block_2/medium_n_81_2.wav,no,n,medium,81.0,1.533387433,15.23592712,,,,yes,anker soundcore spirit,none,none,m,27,R,yes,1,2020-10-05_08h33.11.406,kura-B1,2020.1.2,Win32,60,,,,,,,,,,,,,,"[""space"",""space"",""space"",""space"",""space"",""space"",""space"",""space"",""space"",""space"",""space"",""space"",""space"",""space"",""space"",""space"",""space"",""space"",""space"",""space"",""space"",""space"",""space"",""space"",""space"",""space"",""space"",""space"",""space"",""space"",""space"",""space"",""space"",""space"",""space"",""space"",""space"",""space"",""space"",""space"",""space"",""space"",""space"",""space"",""space"",""space"",""space""]","[0.5402900000008231,0.8045799999999872,0.962005000001227,1.4382750000004307,1.5890849999998409,2.2221499999996013,2.390885000000708,2.7414950000002136,2.935865000001286,3.1071150000007037,3.468700000001263,3.6346300000006977,4.136594999999943,4.300100000000384,4.669850000000224,4.851959999999963,5.019449999999779,5.502475000001368,5.667520000000877,6.254660000000513,6.402890000001207,6.560714999999618,6.98440000000096,7.168545000000449,7.334125000001222,7.7005150000004505,7.884234999999535,8.389750000000276,8.55573000000004,8.694675000000643,9.03910999999971,9.234125000000859,9.368304999999964,9.928635000000213,10.120450000000346,10.4925400000011,10.655845000001136,11.134600000001228,11.312219999999797,11.8221850000009,12.000645000000077,12.651654999999664,12.843235000000277,13.337999999999738,13.502454999999827,13.902545000000828,14.077465000000302]",space,11.743075,0.0,10.0,10.0,34.0,1.0,,
,,,,,,,,,,,block_2/strong_n_92_2.wav,no,n,strong,92.0,1.994887374,15.49683749,,,,yes,anker soundcore spirit,none,none,m,27,R,yes,1,2020-10-05_08h33.11.406,kura-B1,2020.1.2,Win32,60,,,,,,,,,,,,,,"[""space"",""space"",""space"",""space"",""space"",""space"",""space"",""space"",""space"",""space"",""space"",""space"",""space"",""space"",""space"",""space"",""space"",""space"",""space"",""space""]","[1.118544999999358,1.4838149999995949,2.1937849999994796,2.858819999999241,3.617259999999078,4.317474999999831,4.958044999999402,5.652319999999463,6.3694999999988795,7.0681449999992765,7.703944999999294,8.366409999998723,9.088549999998577,9.784284999999727,10.48444500000005,11.11706999999842,11.791699999999764,12.55065999999897,13.240779999998495,13.918229999999312]",space,2.0514,0.0,11.0,11.0,39.0,1.0,,
,,,,,,,,,,,block_2/medium_n_105_2.wav,no,n,medium,105.0,1.832509907,11.95341694,,,,yes,anker soundcore spirit,none,none,m,27,R,yes,1,2020-10-05_08h33.11.406,kura-B1,2020.1.2,Win32,60,,,,,,,,,,,,,,"[""space"",""space"",""space"",""space"",""space"",""space"",""space"",""space"",""space"",""space"",""space"",""space"",""space"",""space"",""space"",""space"",""space"",""space"",""space"",""space"",""space"",""space"",""space"",""space"",""space"",""space"",""space""]","[0.08109499999955005,0.6558749999985594,0.8964849999993021,1.2306199999984528,1.4636799999989307,1.7804699999996956,2.062829999999167,2.331114999999045,2.7302399999989575,3.014289999999164,3.490734999999404,3.864979999998468,4.415269999999509,4.848065000000133,5.329954999999245,5.817175000000134,6.329189999998562,6.768919999998616,7.248775000000023,7.7480649999997695,8.18429499999911,8.697424999998475,9.20683999999892,9.687715000000026,10.15688499999851,10.49496999999974,11.66369499999928]",space,0.763555,0.0,12.0,12.0,3.0,1.0,,
,,,,,,,,,,,block_2/medium_n_72_1.wav,no,n,medium,72.0,2.306836655,18.27731285,,,,yes,anker soundcore spirit,none,none,m,27,R,yes,1,2020-10-05_08h33.11.406,kura-B1,2020.1.2,Win32,60,,,,,,,,,,,,,,"[""space"",""space"",""space"",""space"",""space"",""space"",""space"",""space"",""space"",""space"",""space"",""space"",""space"",""space"",""space"",""space"",""space"",""space"",""space"",""space"",""space"",""space"",""space"",""space"",""space"",""space"",""space"",""space"",""space"",""space"",""space"",""space"",""space"",""space"",""space"",""space"",""space"",""space"",""space"",""space"",""space"",""space"",""space"",""space"",""space""]","[0.18536999999923864,0.6274300000004587,1.0015349999994214,1.1693149999991874,1.3547799999994368,1.7370300000002317,1.9079299999993964,2.251814999999624,2.569390000000567,2.7524049999992712,3.2695149999999558,3.4491999999991094,3.653055000000677,4.100435000000289,4.302330000000438,4.852064999999129,5.02087500000016,5.668610000000626,5.88595499999974,6.442740000000413,6.618039999999382,7.435064999999668,7.617865000000165,8.157020000000557,8.335484999999608,9.038290000000416,9.269529999999577,9.784100000000763,9.972954999999274,10.585794999999052,10.76817999999912,11.369904999999562,11.555655000000115,12.387259999999515,12.550999999999476,12.968909999999596,13.1286149999994,13.736815000000206,13.917540000000145,14.669289999999819,14.818530000000464,15.518135000000257,15.700870000000577,16.139564999999493,16.325409999999465]",space,1.40934,0.0,13.0,13.0,10.0,1.0,,
,,,,,,,,,,,block_2/none_n_72_2.wav,no,n,none,72.0,1.244195676,23.89829998,,,,yes,anker soundcore spirit,none,none,m,27,R,yes,1,2020-10-05_08h33.11.406,kura-B1,2020.1.2,Win32,60,,,,,,,,,,,,,,"[""space"",""space"",""space"",""space"",""space"",""space"",""space"",""space"",""space"",""space"",""space"",""space"",""space"",""space"",""space"",""space"",""space"",""space"",""space"",""space"",""space"",""space"",""space"",""space"",""space"",""space"",""space"",""space"",""space"",""space"",""space"",""space"",""space"",""space"",""space"",""space"",""space"",""space"",""space"",""space"",""space"",""space"",""space"",""space"",""space"",""space"",""space"",""space"",""space"",""space"",""space"",""space"",""space"",""space"",""space"",""space"",""space"",""space"",""space"",""space"",""space"",""space"",""space"",""space""]","[0.6386149999998452,0.883335000000443,1.067960000000312,1.5522999999993772,1.7306850000004488,2.66830999999911,2.951375000000553,3.121644999999262,3.7505849999997736,4.06623000000036,4.5498050000005605,4.770774999998821,5.299614999999903,5.550644999999349,7.036519999999655,7.405269999999291,7.733609999999317,7.850495000000592,8.134404999998878,8.350674999999683,8.568774999999732,8.915854999999283,9.267854999999827,9.651159999999436,10.301719999999477,10.486390000000029,10.633130000000165,11.24324499999966,11.453879999999117,11.947754999999233,12.16769000000022,12.776589999999487,12.99983500000053,13.38548499999888,13.650849999999991,13.97725999999966,14.507164999999077,14.70540500000061,15.114775000000009,15.317520000000513,15.751080000000002,15.9851749999998,16.5185249999995,16.73304999999891,16.889344999999594,17.485319999999774,17.65395499999977,17.83462999999938,18.033470000000307,18.39163499999995,18.584395000000086,19.20132999999987,19.41646000000037,19.65264500000012,19.843574999998964,20.34219999999914,20.618029999999862,20.819895000000542,20.97204000000056,21.47581500000001,21.89573500000006,22.07324999999946,22.298899999999776,22.641920000000027]",space,1.354665,0.0,14.0,14.0,16.0,1.0,,
,,,,,,,,,,,block_2/none_n_105_2.wav,no,n,none,105.0,1.955418763,16.59637114,,,,yes,anker soundcore spirit,none,none,m,27,R,yes,1,2020-10-05_08h33.11.406,kura-B1,2020.1.2,Win32,60,,,,,,,,,,,,,,"[""space"",""space"",""space"",""space"",""space"",""space"",""space"",""space"",""space"",""space"",""space"",""space"",""space"",""space"",""space"",""space"",""space"",""space"",""space"",""space"",""space"",""space"",""space"",""space"",""space"",""space"",""space"",""space"",""space"",""space"",""space""]","[0.45072000000072876,0.6372300000002724,1.0177350000012666,1.2327450000011595,1.8512700000010227,3.047585000000254,3.453110000000379,3.635935000000245,3.826410000001488,4.018245000001116,5.0182350000013685,5.235120000001189,6.519830000001093,6.7556450000010955,7.436235000001034,7.636275000000751,8.01521500000149,8.199650000000474,8.51767000000109,8.685380000000805,9.00637000000097,9.193404999999984,9.526789999999892,9.742105000001175,10.150575000001481,10.472455000000991,10.717630000001009,11.316475000001446,11.507795000001352,13.802150000001348,14.250530000001163]",space,0.0874,0.0,15.0,15.0,4.0,1.0,,
,,,,,,,,,,,block_2/none_n_72_1.wav,no,n,none,72.0,2.425336639,22.99082417,,,,yes,anker soundcore spirit,none,none,m,27,R,yes,1,2020-10-05_08h33.11.406,kura-B1,2020.1.2,Win32,60,,,,,,,,,,,,,,"[""space"",""space"",""space"",""space"",""space"",""space"",""space"",""space"",""space"",""space"",""space"",""space"",""space"",""space"",""space"",""space"",""space"",""space"",""space"",""space"",""space"",""space"",""space"",""space"",""space"",""space"",""space"",""space"",""space"",""space"",""space"",""space"",""space"",""space"",""space"",""space"",""space"",""space"",""space"",""space"",""space"",""space"",""space"",""space"",""space"",""space"",""space"",""space"",""space"",""space"",""space"",""space"",""space"",""space"",""space"",""space"",""space"",""space"",""space""]","[0.6161549999997078,0.8312299999997776,1.2426950000010493,1.4745700000003126,1.9047750000008818,2.300970000000234,2.533325000000332,2.860254999999597,3.368850000000748,6.249615000000631,6.417730000001029,6.632410000000164,6.831430000000182,7.032779999999548,7.249084999999468,7.449225000000297,7.949780000000828,8.126550000000861,8.548184999999876,8.748364999999467,9.31668499999978,9.819030000000566,10.029735000000073,10.266520000001037,10.468790000000809,10.868045000001075,11.038974999999482,11.416214999999283,11.59882000000107,12.082819999999629,12.26569500000005,12.715110000001005,12.88752999999997,13.382745000000796,13.589589999999589,14.040689999999813,14.266434999999547,14.788480000001073,14.987975000000006,15.532385000000431,15.702354999999443,16.06523500000003,16.22693000000072,16.829610000000685,16.987474999999904,17.4984800000002,17.648865000001024,18.065010000000257,18.24727999999959,18.748719999999594,18.93238999999994,19.03834000000097,19.403614999999263,19.598775000000387,19.765579999999318,20.165220000000772,20.321270000000368,20.766750000000684,20.950505000000703]",space,1.886805,0.0,16.0,16.0,18.0,1.0,,
,,,,,,,,,,,block_2/medium_n_105_1.wav,no,n,medium,105.0,1.976395362,15.17435455,,,,yes,anker soundcore spirit,none,none,m,27,R,yes,1,2020-10-05_08h33.11.406,kura-B1,2020.1.2,Win32,60,,,,,,,,,,,,,,"[""space"",""space"",""space"",""space"",""space"",""space"",""space"",""space"",""space"",""space"",""space"",""space"",""space"",""space"",""space"",""space"",""space"",""space"",""space"",""space"",""space"",""space"",""space"",""space"",""space"",""space"",""space"",""space"",""space"",""space"",""space"",""space"",""space"",""space"",""space"",""space"",""space"",""space"",""space""]","[0.3162800000009156,0.6164100000005419,0.8560149999993882,1.1887950000000274,1.3994999999995343,1.7005000000008295,1.8984700000000885,2.3527799999992567,2.6047099999996135,2.8352350000004662,3.1323150000007445,3.5369750000008935,3.9060249999999996,4.357594999999492,4.554500000000189,4.9737499999992,5.16791000000012,5.90012999999999,6.1344449999994595,6.337195000000065,6.919180000000779,7.33873499999936,7.533149999999068,7.818965000000389,8.002920000000813,8.674535000000105,8.869339999999283,9.34259999999972,9.5023199999996,10.034804999999551,10.191634999999224,10.873180000000502,11.069900000000416,11.454709999999977,11.823314999999639,12.385949999999866,12.82309499999974,12.982850000000326,13.672555000001012]",space,3.00924,0.0,17.0,17.0,7.0,1.0,,
,,,,,,,,,,,block_2/weak_n_81_2.wav,no,n,weak,81.0,1.213149696,13.09673246,,,,yes,anker soundcore spirit,none,none,m,27,R,yes,1,2020-10-05_08h33.11.406,kura-B1,2020.1.2,Win32,60,,,,,,,,,,,,,,"[""space"",""space"",""space"",""space"",""space"",""space"",""space"",""space"",""space"",""space"",""space"",""space"",""space"",""space"",""space"",""space"",""space"",""space"",""space"",""space"",""space"",""space"",""space"",""space"",""space"",""space"",""space"",""space"",""space"",""space"",""space"",""space"",""space"",""space"",""space"",""space"",""space"",""space"",""space"",""space""]","[0.6208699999988312,0.8374449999992066,0.9735399999990477,1.2280699999992066,1.4491299999990588,1.7746599999991304,2.1477849999994305,2.3471749999989697,2.721334999998362,2.931414999999106,3.492229999999836,3.8082349999986036,4.0181549999997515,4.404934999998659,4.590539999999237,4.975590000000011,5.174879999998666,5.516309999999066,5.687559999998484,6.0145249999986845,6.2243949999992765,6.672009999998409,6.872609999998531,7.204884999999194,7.392914999998538,7.846714999999676,8.029874999998128,8.502669999999853,8.690459999999803,9.155389999999898,9.320329999998648,9.73902999999882,9.921294999998054,10.355079999999134,10.544549999998708,11.027044999998907,11.190424999999095,11.64810999999986,12.077204999999822,12.275009999999384]",space,1.09064,0.0,18.0,18.0,32.0,1.0,,
,,,,,,,,,,,block_2/weak_n_81_1.wav,no,n,weak,81.0,2.025683857,14.86613737,,,,yes,anker soundcore spirit,none,none,m,27,R,yes,1,2020-10-05_08h33.11.406,kura-B1,2020.1.2,Win32,60,,,,,,,,,,,,,,"[""space"",""space"",""space"",""space"",""space"",""space"",""space"",""space"",""space"",""space"",""space"",""space"",""space"",""space"",""space"",""space"",""space"",""space"",""space"",""space"",""space"",""space"",""space"",""space"",""space"",""space"",""space"",""space"",""space"",""space"",""space"",""space"",""space"",""space"",""space"",""space"",""space"",""space"",""space"",""space"",""space"",""space"",""space"",""space"",""space"",""space""]","[0.4751499999999851,0.833370000000059,0.9678000000001248,1.1687799999997424,1.3874100000009548,1.751695000000609,1.941990000000942,2.419200000000046,2.606315000000677,2.951725000000579,3.112805000000435,3.236985000001141,3.49065500000097,3.690980000000991,3.790765000001329,4.051955000000589,4.502400000000989,4.689475000000812,5.13762500000098,5.306874999999991,5.625055000000202,5.820195000000012,6.160545000000411,6.344660000000431,6.486105000001544,6.871140000000878,7.025115000000142,7.4957300000003215,7.682015000000092,8.17777000000001,8.341485000000603,8.806295000000091,8.967065000000503,9.317480000001297,9.499175000000605,10.00574500000016,10.29543499999977,10.72593000000029,10.878959999999779,11.399355000001378,11.565410000000838,12.105715000001283,12.281290000000581,12.732460000000856,12.88208500000087,13.281685000001517]",space,0.95347,0.0,19.0,19.0,35.0,1.0,,
,,,,,,,,,,,block_2/strong_n_72_2.wav,no,n,strong,72.0,2.258938628,19.59540121,,,,yes,anker soundcore spirit,none,none,m,27,R,yes,1,2020-10-05_08h33.11.406,kura-B1,2020.1.2,Win32,60,,,,,,,,,,,,,,"[""space"",""space"",""space"",""space"",""space"",""space"",""space"",""space"",""space"",""space"",""space"",""space"",""space"",""space"",""space"",""space"",""space"",""space"",""space"",""space""]","[0.619844999999259,1.3986199999999371,2.331979999999021,3.2753499999998894,4.2178100000000995,5.213030000000799,6.043274999999994,6.926525000000765,7.781600000000253,8.78975999999966,9.655269999999291,10.542960000000676,11.451614999999947,12.380714999999327,13.296094999999696,14.178760000000693,15.080645000000004,15.951554999999644,16.839045000000624,17.792084999998906]",space,0.902335,0.0,20.0,20.0,30.0,1.0,,
,,,,,,,,,,,block_2/strong_n_119_1.wav,no,n,strong,119.0,2.397746816,12.26713457,,,,yes,anker soundcore spirit,none,none,m,27,R,yes,1,2020-10-05_08h33.11.406,kura-B1,2020.1.2,Win32,60,,,,,,,,,,,,,,"[""space"",""space"",""space"",""space"",""space"",""space"",""space"",""space"",""space"",""space"",""space"",""space"",""space"",""space"",""space"",""space"",""space"",""space"",""space"",""space"",""space"",""space""]","[0.3852999999999156,1.0583750000005239,1.3353299999998853,1.8396200000006502,2.3064400000002934,2.767869999999675,3.2381449999993492,3.7186500000007072,4.218380000000252,4.684870000000728,5.085740000000442,5.474145000000135,5.8551600000009785,6.239325000000463,6.82770999999957,7.251029999999446,7.717995000000883,8.009070000000065,8.523214999999254,8.998745000000781,9.439875000000029,9.918929999999818]",space,1.933975,0.0,21.0,21.0,19.0,1.0,,
,,,,,,,,,,,block_2/medium_n_119_1.wav,no,n,medium,119.0,1.010172499,10.57697522,,,,yes,anker soundcore spirit,none,none,m,27,R,yes,1,2020-10-05_08h33.11.406,kura-B1,2020.1.2,Win32,60,,,,,,,,,,,,,,"[""space"",""space"",""space"",""space"",""space"",""space"",""space"",""space"",""space"",""space"",""space"",""space"",""space"",""space"",""space"",""space"",""space"",""space"",""space"",""space"",""space"",""space"",""space"",""space"",""space"",""space"",""space"",""space"",""space"",""space"",""space"",""space"",""space"",""space"",""space"",""space"",""space"",""space""]","[0.6842000000015105,0.9171650000007503,1.0877350000009756,1.3184650000000602,1.4878249999999298,1.7208100000007107,1.9675850000003265,2.185040000000299,2.5205949999999575,2.7665350000006583,2.9696400000011636,3.1016450000006444,3.3343650000006164,3.4975500000000466,3.6741150000016205,3.897950000000492,4.0702000000001135,4.41890500000045,4.618580000000293,4.953215000001364,5.135740000001533,5.4499700000014855,5.6031200000015815,5.918685000000551,6.083975000001374,6.466660000000047,6.63485000000037,7.101670000000013,7.468150000000605,7.615255000000616,7.9346650000006775,8.102725000000646,8.504080000000613,8.628000000000611,8.922500000000582,9.4180350000006,9.617750000001251,9.984560000000783]",space,2.22031,0.0,22.0,22.0,24.0,1.0,,
,,,,,,,,,,,block_2/strong_n_81_1.wav,no,n,strong,81.0,1.085814619,16.04744727,,,,yes,anker soundcore spirit,none,none,m,27,R,yes,1,2020-10-05_08h33.11.406,kura-B1,2020.1.2,Win32,60,,,,,,,,,,,,,,"[""space"",""space"",""space"",""space"",""space"",""space"",""space"",""space"",""space"",""space"",""space"",""space"",""space"",""space"",""space"",""space"",""space"",""space"",""space"",""space"",""space"",""space"",""space"",""space"",""space"",""space"",""space"",""space"",""space"",""space"",""space"",""space"",""space"",""space"",""space"",""space"",""space"",""space"",""space""]","[0.30402500000127475,0.803859999999986,1.2355250000000524,1.6435250000013184,1.9529450000009092,2.4185749999996915,2.671299999999974,3.133079999999609,3.310489999999845,3.854854999999361,4.117739999999685,4.669149999999718,4.869505000000572,5.540375000000495,6.084710000000996,6.390655000001061,6.886500000000524,7.083345000000918,7.885729999999967,8.37960000000021,8.57015500000125,9.302639999999883,9.494770000001154,9.90038000000095,10.086489999999685,10.570204999999987,10.787355000000389,11.002024999999776,11.218670000000202,11.673445000000356,12.200764999999592,12.370425000000978,12.840410000000702,13.052709999999934,13.551720000001296,13.734824999999546,14.25279000000046,14.439604999999574,15.228010000000722]",space,1.61819,0.0,23.0,23.0,12.0,1.0,,
,,,,,,,,,,,block_2/medium_n_72_2.wav,no,n,medium,72.0,2.017934227,19.05022448,,,,yes,anker soundcore spirit,none,none,m,27,R,yes,1,2020-10-05_08h33.11.406,kura-B1,2020.1.2,Win32,60,,,,,,,,,,,,,,"[""space"",""space"",""space"",""space"",""space"",""space"",""space"",""space"",""space"",""space"",""space"",""space"",""space"",""space"",""space"",""space"",""space"",""space"",""space"",""space"",""space"",""space"",""space"",""space"",""space"",""space"",""space"",""space"",""space"",""space"",""space"",""space"",""space"",""space"",""space"",""space"",""space"",""space"",""space"",""space"",""space"",""space"",""space"",""space"",""space"",""space"",""space"",""space"",""space"",""space"",""space"",""space"",""space"",""space""]","[0.6528199999993376,1.1513549999997394,1.5503999999984899,1.689539999999397,1.8330299999995532,2.7510749999980817,3.250484999998662,3.4364649999988615,3.60323999999855,3.984714999998687,4.135569999998552,4.315764999999374,4.483769999998913,4.935009999999238,5.116864999999962,5.28701500000011,5.491484999998647,5.874244999999064,6.07374499999969,6.736619999999675,6.9647599999989325,7.117639999998573,7.525649999999587,7.865579999999682,8.050624999999854,8.88396499999908,9.076764999999796,9.433084999998755,9.650234999999384,9.832589999999982,10.589954999999463,10.820024999999077,11.237324999998236,11.434094999998706,11.586299999999028,12.135239999999612,12.310374999999112,12.480614999998807,12.988859999999477,13.200219999998808,13.351434999998673,13.900705000000016,14.093934999998964,14.689164999999775,14.891979999998512,15.051754999998593,15.658014999999068,15.852339999999458,16.016124999998283,16.452344999999696,16.631469999998444,16.817849999999453,17.318904999998267,17.484309999999823]",space,0.63882,0.0,24.0,24.0,14.0,1.0,,
,,,,,,,,,,,block_2/strong_n_72_1.wav,no,n,strong,72.0,1.979367889,17.70027492,,,,yes,anker soundcore spirit,none,none,m,27,R,yes,1,2020-10-05_08h33.11.406,kura-B1,2020.1.2,Win32,60,,,,,,,,,,,,,,"[""space"",""space"",""space"",""space"",""space"",""space"",""space"",""space"",""space"",""space"",""space"",""space"",""space"",""space"",""space"",""space"",""space"",""space"",""space""]","[0.7536049999998795,1.6017750000007709,2.4067250000007334,4.060085000000981,4.876734999999826,5.760980000000927,6.45645500000137,7.382775000000038,8.127470000001267,8.852539999999863,9.69771000000037,10.566295000000537,11.365175000000818,12.056475000001228,12.79647500000101,13.592640000000529,14.50612000000001,15.310175000000527,16.177535000000717]",space,0.7409,0.0,25.0,25.0,33.0,1.0,,
,,,,,,,,,,,block_2/strong_n_81_2.wav,no,n,strong,81.0,1.892264478,17.05494022,,,,yes,anker soundcore spirit,none,none,m,27,R,yes,1,2020-10-05_08h33.11.406,kura-B1,2020.1.2,Win32,60,,,,,,,,,,,,,,"[""space"",""space"",""space"",""space"",""space"",""space"",""space"",""space"",""space"",""space"",""space"",""space"",""space"",""space"",""space"",""space"",""space"",""space"",""space"",""space"",""space""]","[0.3200300000007701,1.1184900000007474,1.9183300000004238,2.6236250000001746,3.397500000000946,4.129820000000109,4.867730000001984,5.624210000001767,6.37559500000134,7.106195000000298,7.923510000000533,8.679685000000973,9.432975000001534,10.255455000000438,10.923710000000938,11.634359999999788,12.396785000000818,13.145540000001574,13.936005000001387,14.641325000000506,15.453810000000885]",space,0.85607,0.0,26.0,26.0,8.0,1.0,,
,,,,,,,,,,,block_2/weak_n_119_1.wav,no,n,weak,119.0,2.394125333,11.70850175,,,,yes,anker soundcore spirit,none,none,m,27,R,yes,1,2020-10-05_08h33.11.406,kura-B1,2020.1.2,Win32,60,,,,,,,,,,,,,,"[""space"",""space"",""space"",""space"",""space"",""space"",""space"",""space"",""space"",""space"",""space"",""space"",""space"",""space"",""space"",""space"",""space"",""space"",""space"",""space"",""space"",""space"",""space"",""space"",""space"",""space"",""space"",""space"",""space"",""space"",""space""]","[0.5210100000003877,0.8294400000013411,1.0837100000007922,1.2688000000016473,1.6061600000011822,1.8082900000006248,2.1269499999998516,2.3683950000013283,2.604030000000421,2.99078499999996,3.336230000000569,3.5297500000017408,4.220500000001266,4.436279999999897,5.047135000000708,5.290950000000521,5.606615000000602,5.957635000000664,6.316920000001119,6.635885000001508,6.85215000000062,7.187310000001162,7.706100000001243,7.97342000000026,8.110630000001038,8.417600000000903,8.618435000000318,8.791330000000016,9.096435000001293,9.390885000000708,9.604095000000598]",space,1.02289,0.0,27.0,27.0,38.0,1.0,,
,,,,,,,,,,,block_2/medium_n_92_1.wav,no,n,medium,92.0,1.88300721,17.00042218,,,,yes,anker soundcore spirit,none,none,m,27,R,yes,1,2020-10-05_08h33.11.406,kura-B1,2020.1.2,Win32,60,,,,,,,,,,,,,,"[""space"",""space"",""space"",""space"",""space"",""space"",""space"",""space"",""space"",""space"",""space"",""space"",""space"",""space"",""space"",""space"",""space"",""space"",""space"",""space"",""space"",""space"",""space"",""space"",""space"",""space"",""space"",""space"",""space"",""space"",""space"",""space"",""space"",""space"",""space"",""space"",""space"",""space"",""space"",""space"",""space""]","[0.5866550000009738,0.8713999999999942,1.239120000000412,1.4283649999997579,1.934785000001284,2.119670000000042,2.63952000000063,2.8172250000006898,3.2935950000010052,3.4837400000014895,3.957640000000538,4.167530000000625,4.53784000000087,4.960575000000972,5.151385000001028,5.3049449999998615,5.843885000000228,6.031684999999925,6.5278699999998935,6.803985000000466,7.246950000000652,7.454165000001012,8.12722500000018,8.353815000000395,8.933684999999969,9.145884999999907,9.619045000001279,9.850315000001501,10.547320000001491,10.759970000000749,11.43906500000071,11.60624000000098,12.187620000000607,12.369555000001128,12.955010000001494,13.153055000000677,13.783100000000559,13.969500000001062,14.894325000001118,15.065860000000612,15.518635000000359]",space,0.86167,0.0,28.0,28.0,5.0,1.0,,
,,,,,,,,,,,block_2/none_n_81_2.wav,no,n,none,81.0,1.688814472,20.84019769,,,,yes,anker soundcore spirit,none,none,m,27,R,yes,1,2020-10-05_08h33.11.406,kura-B1,2020.1.2,Win32,60,,,,,,,,,,,,,,"[""space"",""space"",""space"",""space"",""space"",""space"",""space"",""space"",""space"",""space"",""space"",""space"",""space"",""space"",""space"",""space"",""space"",""space"",""space"",""space"",""space"",""space"",""space"",""space"",""space"",""space"",""space"",""space"",""space"",""space"",""space"",""space"",""space"",""space"",""space"",""space"",""space"",""space"",""space"",""space"",""space"",""space"",""space"",""space"",""space"",""space"",""space"",""space"",""space""]","[0.45190999999977066,0.933709999999337,1.1282399999997779,1.5723899999993591,1.8013449999998556,2.4193649999997433,3.0035599999991973,3.2189349999989645,3.5351449999998295,4.067820000000211,4.534519999999247,4.919949999999517,5.404994999998735,5.5918799999999464,5.9510250000003,6.12032999999974,6.468194999999469,7.119155000000319,7.903425000000425,8.976684999999634,9.4348200000004,9.620370000000548,9.827879999998913,10.13601000000017,10.567204999999376,10.826044999999795,10.971985000000132,11.469614999999976,11.822299999999814,12.569910000000391,12.901309999999285,13.303495000000112,13.63515499999994,14.017874999999776,14.48373999999967,14.767604999999094,15.09572499999922,15.358894999999393,15.654234999999971,15.950244999999995,16.255224999998973,16.650574999999662,17.219654999998966,17.490684999998848,17.734549999999217,17.9994200000001,18.367715000000317,19.00088499999947,19.536604999999327]",space,6.387765,0.0,29.0,29.0,28.0,1.0,,
,,,,,,,,,,,block_2/strong_n_105_2.wav,no,n,strong,105.0,1.030135556,14.17553238,,,,yes,anker soundcore spirit,none,none,m,27,R,yes,1,2020-10-05_08h33.11.406,kura-B1,2020.1.2,Win32,60,,,,,,,,,,,,,,"[""space"",""space"",""space"",""space"",""space"",""space"",""space"",""space"",""space"",""space"",""space"",""space"",""space"",""space"",""space"",""space"",""space"",""space"",""space"",""space"",""space"",""space"",""space"",""space"",""space"",""space"",""space"",""space"",""space"",""space""]","[0.17923500000142667,0.5120999999999185,0.9952800000010029,1.5477300000002288,2.172935000000507,2.3794550000002346,2.80183500000021,3.03013500000111,3.4637149999998655,3.6304700000000594,4.0538050000013754,4.303859999999986,4.761814999999842,4.969215000000986,5.411575000000084,5.612230000000636,6.0821700000017245,6.283545000000231,6.777240000001257,7.04676500000096,7.505175000000236,8.145100000001548,8.829215000001568,9.377959999999803,10.082650000000285,10.728540000000066,11.36117000000013,12.028825000001234,12.647490000001198,13.345694999999978]",space,0.600885,0.0,30.0,30.0,9.0,1.0,,
,,,,,,,,,,,block_2/weak_n_72_2.wav,no,n,weak,72.0,1.8411197,21.80211743,,,,yes,anker soundcore spirit,none,none,m,27,R,yes,1,2020-10-05_08h33.11.406,kura-B1,2020.1.2,Win32,60,,,,,,,,,,,,,,"[""space"",""space"",""space"",""space"",""space"",""space"",""space"",""space"",""space"",""space"",""space"",""space"",""space"",""space"",""space"",""space"",""space"",""space"",""space"",""space"",""space"",""space"",""space"",""space"",""space"",""space"",""space"",""space"",""space"",""space"",""space"",""space"",""space"",""space"",""space"",""space"",""space"",""space"",""space"",""space"",""space"",""space"",""space"",""space"",""space"",""space"",""space"",""space"",""space"",""space"",""space"",""space"",""space"",""space"",""space"",""space"",""space"",""space"",""space""]","[0.2953200000010838,0.5854500000004919,0.7494650000007823,0.9630100000013044,1.5957150000012916,2.0663500000009662,2.2565300000005664,2.462410000000091,2.650695000000269,3.2673000000013417,3.487540000000081,3.714365000001635,3.963820000000851,4.596310000000813,5.0218000000004395,5.204575000001569,5.331575000000157,5.763890000000174,5.9502750000010565,6.137295000000449,6.648905000000013,6.901185000000623,7.014030000000275,7.234304999999949,7.747855000001437,7.917825000000448,8.31827500000145,8.498170000000755,8.98005000000012,9.364795000001322,9.536525000001348,9.94655000000057,10.080490000000282,10.298910000001342,10.864485000000286,11.07977000000028,11.28050500000063,11.796935000000303,11.979965000000448,12.15020000000004,12.79725000000144,12.98002500000075,13.496455000000424,13.678760000000693,14.262870000000476,14.43961500000114,14.862065000001166,15.031930000001012,15.613890000000538,15.798244999999952,16.414560000001075,16.74700500000108,17.389184999999998,17.58068000000094,18.347250000000713,18.546515,19.150885000000926,19.346635000001697,20.254955000000336]",space,0.901575,0.0,31.0,31.0,11.0,1.0,,
,,,,,,,,,,,block_2/weak_n_92_1.wav,no,n,weak,92.0,1.493156661,15.23787321,,,,yes,anker soundcore spirit,none,none,m,27,R,yes,1,2020-10-05_08h33.11.406,kura-B1,2020.1.2,Win32,60,,,,,,,,,,,,,,"[""space"",""space"",""space"",""space"",""space"",""space"",""space"",""space"",""space"",""space"",""space"",""space"",""space"",""space"",""space"",""space"",""space"",""space"",""space"",""space"",""space"",""space"",""space"",""space"",""space"",""space"",""space"",""space"",""space"",""space"",""space"",""space""]","[0.8616849999998522,1.262799999998606,1.5102049999986775,1.9639200000003711,2.1865249999991647,2.6545850000002247,2.844004999999015,3.5805099999997765,3.7462699999996403,4.395124999999098,4.7635449999997945,5.384814999999435,5.6546199999993405,6.079509999999573,8.042444999999134,8.378945000000385,8.651879999999437,9.797284999998737,10.132849999999962,10.612084999998842,10.838270000000193,11.047019999999975,11.40106999999989,11.572954999999638,12.030479999999443,12.201574999999139,12.761544999999387,12.979009999999107,13.512370000000374,13.713744999999108,14.094614999999976,14.282704999999623]",space,0.803535,0.0,32.0,32.0,2.0,1.0,,
,,,,,,,,,,,block_2/medium_n_81_1.wav,no,n,medium,81.0,1.997436703,15.99943217,,,,yes,anker soundcore spirit,none,none,m,27,R,yes,1,2020-10-05_08h33.11.406,kura-B1,2020.1.2,Win32,60,,,,,,,,,,,,,,"[""space"",""space"",""space"",""space"",""space"",""space"",""space"",""space"",""space"",""space"",""space"",""space"",""space"",""space"",""space"",""space"",""space"",""space"",""space"",""space"",""space"",""space"",""space"",""space"",""space"",""space"",""space"",""space"",""space"",""space"",""space"",""space"",""space"",""space"",""space"",""space"",""space"",""space"",""space"",""space"",""space"",""space"",""space"",""space""]","[0.49085999999988417,0.7407650000004651,1.0029150000009395,1.1514750000005733,1.3178349999998318,1.5760100000006787,1.759154999999737,2.1714449999999488,2.3681049999995594,2.5850900000004913,2.983700000000681,3.2188399999995454,3.691210000000865,3.885570000000371,4.400804999999309,4.602464999999938,5.394720000000234,5.585155000000668,5.874794999999722,6.05247000000054,6.435279999999693,6.605054999999993,7.018519999999626,7.1922799999993,7.638315000000148,7.835704999999507,8.441205000000991,8.635519999999815,9.292634999999791,9.46800500000063,9.934300000000803,10.101005000000441,10.528980000000956,10.694915000000037,11.201305000000502,11.35403000000042,11.883260000000519,12.05317500000092,12.584360000000743,12.750640000000203,13.291655000000901,13.469600000000355,13.952344999999696,14.135949999999866]",space,9.449065,0.0,33.0,33.0,31.0,1.0,,
,,,,,,,,,,,block_2/none_n_81_1.wav,no,n,none,81.0,1.160099605,17.42268464,,,,yes,anker soundcore spirit,none,none,m,27,R,yes,1,2020-10-05_08h33.11.406,kura-B1,2020.1.2,Win32,60,,,,,,,,,,,,,,"[""space"",""space"",""space"",""space"",""space"",""space"",""space"",""space"",""space"",""space"",""space"",""space"",""space"",""space"",""space"",""space"",""space"",""space"",""space"",""space"",""space"",""space"",""space"",""space"",""space"",""space"",""space"",""space"",""space"",""space"",""space"",""space"",""space"",""space"",""space"",""space""]","[0.7646699999986595,1.3885350000000471,2.232304999999542,3.0345649999999296,3.433970000000045,3.7337849999985337,4.065849999999045,4.400514999999359,4.763119999999617,5.172464999999647,5.782384999998612,6.204499999999825,6.572564999998576,7.0496449999991455,7.3332399999999325,7.532129999999597,8.299994999999399,8.899739999998928,9.145724999998492,9.831075000000055,10.166234999998778,10.999124999998457,11.266139999999723,11.83272499999839,12.247854999999618,12.434214999999313,12.785484999998516,13.607234999999491,13.96501999999964,14.316654999998718,14.68288500000017,15.099964999999429,15.271679999999833,15.665004999998928,16.175349999999526,16.734559999998964]",space,5.603305,0.0,34.0,34.0,29.0,1.0,,
,,,,,,,,,,,block_2/weak_n_105_1.wav,no,n,weak,105.0,2.307975641,12.32461963,,,,yes,anker soundcore spirit,none,none,m,27,R,yes,1,2020-10-05_08h33.11.406,kura-B1,2020.1.2,Win32,60,,,,,,,,,,,,,,"[""space"",""space"",""space"",""space"",""space"",""space"",""space"",""space"",""space"",""space"",""space"",""space"",""space"",""space"",""space"",""space"",""space"",""space"",""space"",""space"",""space"",""space"",""space"",""space"",""space"",""space"",""space"",""space""]","[1.1989200000007258,1.4815999999991618,1.8490949999995792,2.158450000000812,2.419565000000148,2.8710449999998673,3.3486049999992247,3.799254999999903,4.2679299999999785,4.701289999999062,5.165994999999384,5.649540000000343,6.131729999999152,6.465635000000475,6.809595000000627,7.315314999999828,7.474640000000363,7.921210000000428,8.11739999999918,8.317450000000463,8.50023499999952,8.667989999999918,8.965659999999843,9.06717499999968,9.537529999999606,9.715430000000197,10.352409999999509,10.562359999999899]",space,0.38333,0.0,35.0,35.0,27.0,1.0,,
,,,,,,,,,,,block_2/strong_n_105_1.wav,no,n,strong,105.0,1.056930825,14.45525282,,,,yes,anker soundcore spirit,none,none,m,27,R,yes,1,2020-10-05_08h33.11.406,kura-B1,2020.1.2,Win32,60,,,,,,,,,,,,,,"[""space"",""space"",""space"",""space"",""space"",""space"",""space"",""space""]","[9.603974999999991,9.88553999999931,10.401614999998856,10.968704999999318,11.601174999999785,12.319379999999,12.939730000000054,13.61978999999883]",space,1.05218,0.0,36.0,36.0,13.0,1.0,,
,,,,,,,,,,,block_2/strong_n_92_1.wav,no,n,strong,92.0,2.132496366,14.62065963,,,,yes,anker soundcore spirit,none,none,m,27,R,yes,1,2020-10-05_08h33.11.406,kura-B1,2020.1.2,Win32,60,,,,,,,,,,,,,,"[""space"",""space"",""space"",""space"",""space"",""space"",""space"",""space"",""space"",""space"",""space"",""space"",""space"",""space"",""space"",""space"",""space"",""space"",""space""]","[0.8521550000004936,1.5498900000002322,2.235050000001138,2.7540900000003603,3.3385100000014063,3.986000000000786,5.218915000001289,6.003034999999727,6.533015000000887,7.189630000000761,7.832884999999351,8.404005000000325,9.053915000000416,9.719380000000456,10.275025000000824,10.795335000000705,11.519150000000081,12.171355000000403,12.701360000000932]",space,0.935835,0.0,37.0,37.0,37.0,1.0,,
,,,,,,,,,,,block_2/none_n_119_1.wav,no,n,none,119.0,1.472051285,13.63313972,,,,yes,anker soundcore spirit,none,none,m,27,R,yes,1,2020-10-05_08h33.11.406,kura-B1,2020.1.2,Win32,60,,,,,,,,,,,,,,"[""space"",""space"",""space"",""space"",""space"",""space"",""space"",""space"",""space"",""space"",""space"",""space"",""space"",""space"",""space"",""space"",""space"",""space"",""space"",""space"",""space"",""space"",""space"",""space"",""space"",""space"",""space"",""space"",""space"",""space"",""space"",""space"",""space"",""space"",""space"",""space"",""space""]","[0.6688749999993888,1.1005799999984447,1.4848999999994703,1.8873899999998685,2.4683899999999994,2.9082199999993463,3.2509849999987637,3.5346099999987928,3.7213949999986653,3.950894999999946,4.118474999999307,4.534989999998288,4.8205699999998615,5.134599999999409,5.284439999999449,5.587419999999838,5.851864999998725,6.295434999999998,6.838420000000042,7.2695199999998295,7.620519999998578,8.001069999998435,8.31230499999947,8.851124999999229,9.246359999999186,9.586589999998978,9.835469999999987,10.200514999998632,10.591254999999364,10.904864999998608,11.251234999999724,11.560444999999163,11.80998499999987,12.10167999999976,12.369479999999385,12.601599999999962,12.801814999998896]",space,1.851945,0.0,38.0,38.0,22.0,1.0,,
,,,,,,,,,,,block_2/none_n_92_2.wav,no,n,none,92.0,2.007703886,14.64294198,,,,yes,anker soundcore spirit,none,none,m,27,R,yes,1,2020-10-05_08h33.11.406,kura-B1,2020.1.2,Win32,60,,,,,,,,,,,,,,"[""space"",""space"",""space"",""space"",""space"",""space"",""space"",""space"",""space"",""space"",""space"",""space"",""space"",""space"",""space"",""space"",""space"",""space"",""space"",""space"",""space"",""space"",""space"",""space"",""space"",""space"",""space"",""space"",""space"",""space"",""space"",""space""]","[0.7645499999998719,1.3504100000009203,2.3010599999997794,2.766670000000886,3.184740000000602,3.715425000000323,4.03311500000018,4.738405000000057,5.2015600000013364,6.152450000001409,6.470785000001342,6.8161049999998795,7.048725000000559,7.365970000000743,7.6827549999998155,7.9376850000007835,8.306695000001127,8.705105000000913,9.018975000000864,9.484440000000177,9.998994999999923,10.210565000001225,10.533035000000382,10.757485000000088,11.104750000000422,11.30015000000094,11.68243000000075,11.854870000001029,12.247705000000224,12.451990000001388,12.865719999999783,13.032220000000962]",space,0.77754,0.0,39.0,39.0,23.0,1.0,,
,,,,,,,,,,,,,,,,,,,,,yes,anker soundcore spirit,none,none,m,27,R,yes,1,2020-10-05_08h33.11.406,kura-B1,2020.1.2,Win32,60,,,,,,,,,,,,,,,,,,,,,,,space,13.031505
