key_resp.keys,key_resp.rt,practice_taps.keys,practice_taps.rt,keyresp.keys,keyresp.rt,practice_stims_loop.thisRepN,practice_stims_loop.thisTrialN,practice_stims_loop.thisN,practice_stims_loop.thisIndex,practice_stims_loop.ran,sndfile,type,tempo,cond,version,delay,dur,Participant Initials,"If you are a MTurk worker, what is your MTurk worker ID?'",Are you wearing headphones?,What are the headphone make and model?,"How many years of musical training, if any, do you have?",Do you have any hearing problems? Please describe,What is your sex (f/m/decline)?,What is your age?,What is your handedness (R/L/ambi)?,Are you currently in a secure and quiet room without a possible interruption?,session,date,expName,psychopyVersion,OS,frameRate,instructions_prompt.keys,instructions_prompt.rt,block1_taps.keys,block1_taps.rt,key_resp_2.keys,key_resp_2.rt,trials.thisRepN,trials.thisTrialN,trials.thisN,trials.thisIndex,trials.ran,key_resp2.keys,key_resp2.rt,block2_taps.keys,block2_taps.rt,key_resp_3.keys,key_resp_3.rt,trials_2.thisRepN,trials_2.thisTrialN,trials_2.thisN,trials_2.thisIndex,trials_2.ran,key_resp_4.keys,key_resp_4.rt,"If you are not an MTurk worker, please provide your email address"
space,11.39953,"[""space"",""space"",""space"",""space"",""space"",""space"",""space"",""space"",""space"",""space"",""space"",""space"",""space"",""space"",""space"",""space"",""space"",""space""]","[1.3689649999141693,1.6629800000227988,1.8940400001592934,2.9928749999962747,4.959239999763668,6.645649999845773,8.425024999771267,8.666399999987334,8.88167000003159,9.302199999801815,9.539479999803007,9.771375000011176,10.018705000169575,10.24324500001967,10.485195000190288,10.733794999774545,11.574670000001788,11.870035000145435]",space,0.14389,0.0,0.0,0.0,3.0,1.0,block_2/strong_t_119_4.wav,timbre,t,strong,119.0,2.380207574,12.24809873,,,YES,APPLE,1,,,,,,1,2020-09-16_17h20.10.296,kura-A2,2020.1.2,Win32,60,,,,,,,,,,,,,,,,,,,,,,,,,
,,"[""space"",""space"",""space"",""space"",""space"",""space"",""space"",""space"",""space"",""space"",""space"",""space"",""space"",""space"",""space"",""space""]","[1.3523800000548363,4.295090000145137,4.636245000176132,4.9359650001861155,5.196155000012368,5.4698600000701845,5.734219999983907,7.220124999992549,7.459069999866188,7.699024999979883,8.004815000109375,8.260265000164509,9.442865000106394,9.686755000147969,9.901970000006258,10.126560000237077]",space,1.89629,0.0,1.0,1.0,2.0,1.0,block_1/weak_n_72_4.wav,no,n,weak,72.0,1.922330121,17.89675189,,,YES,APPLE,1,,,,,,1,2020-09-16_17h20.10.296,kura-A2,2020.1.2,Win32,60,,,,,,,,,,,,,,,,,,,,,,,,,
,,"[""space"",""space"",""space"",""space"",""space"",""space"",""space"",""space""]","[3.558004999998957,3.8331249998882413,10.98143000015989,11.236630000174046,12.201840000227094,12.496890000067651,12.93760500010103,13.223600000143051]",space,0.0805,0.0,2.0,2.0,0.0,1.0,block_1/medium_n_105_3.wav,no,n,medium,105.0,1.683245346,13.36533151,,,YES,APPLE,1,,,,,,1,2020-09-16_17h20.10.296,kura-A2,2020.1.2,Win32,60,,,,,,,,,,,,,,,,,,,,,,,,,
,,,,space,8.71305,0.0,3.0,3.0,1.0,1.0,block_2/medium_t_119_4.wav,timbre,t,medium,119.0,2.073396767,11.89421309,,,YES,APPLE,1,,,,,,1,2020-09-16_17h20.10.296,kura-A2,2020.1.2,Win32,60,,,,,,,,,,,,,,,,,,,,,,,,,
,,,,,,,,,,,block_1/strong_n_72_3.wav,no,n,strong,72.0,2.03136762,17.09667374,,,YES,APPLE,1,,,,,,1,2020-09-16_17h20.10.296,kura-A2,2020.1.2,Win32,60,space,32.02017,"[""space"",""space"",""space"",""space"",""space"",""space"",""space"",""space"",""space"",""space"",""space"",""space"",""space"",""space"",""space"",""space"",""space"",""space"",""space"",""space"",""space"",""space"",""space"",""space"",""space"",""space"",""space"",""space"",""space"",""space"",""space"",""space"",""space"",""space"",""space"",""space""]","[0.8878850000910461,1.1289200000464916,1.352919999975711,1.5748900002799928,1.849034999962896,2.1576849999837577,2.5951300002634525,2.8657650002278388,3.1412150003015995,4.002344999928027,4.218869999982417,4.438475000206381,5.384295000229031,5.754535000305623,6.0370350000448525,6.7775650001131,7.07351000001654,7.323310000356287,7.598710000049323,8.08045500004664,8.439600000157952,9.811930000316352,10.105630000121891,10.292125000152737,10.761925000231713,11.05919500021264,11.219180000014603,11.529820000287145,12.403954999987036,12.73729500034824,13.034330000169575,13.264960000291467,13.59544500010088,13.87550500035286,14.1465549999848,14.461750000249594]",space,3.04065,0.0,0.0,0.0,32.0,1.0,,,,,,,,,,,,,,
,,,,,,,,,,,block_1/medium_n_72_4.wav,no,n,medium,72.0,1.204769933,15.71334136,,,YES,APPLE,1,,,,,,1,2020-09-16_17h20.10.296,kura-A2,2020.1.2,Win32,60,,,,,space,4.943715,0.0,1.0,1.0,7.0,1.0,,,,,,,,,,,,,,
,,,,,,,,,,,block_1/weak_n_92_3.wav,no,n,weak,92.0,1.887522896,14.6307882,,,YES,APPLE,1,,,,,,1,2020-09-16_17h20.10.296,kura-A2,2020.1.2,Win32,60,,,"[""space"",""space"",""space"",""space"",""space"",""space"",""space"",""space"",""space"",""space"",""space"",""space"",""space"",""space"",""space"",""space"",""space"",""space"",""space"",""space"",""space"",""space"",""space"",""space"",""space""]","[6.433355000335723,6.948885000310838,7.235240000300109,7.4549400000832975,7.640395000111312,8.561070000287145,8.785295000299811,8.97597000002861,9.884535000193864,10.10097000002861,10.29791000019759,10.507519999984652,11.218470000196248,11.435240000020713,11.637665000278503,11.839339999947697,12.079235000070184,12.324430000036955,12.574754999950528,12.790570000186563,13.00090999994427,13.546245000325143,13.76598499994725,13.956329999957234,14.136350000277162]",space,0.103955,0.0,2.0,2.0,5.0,1.0,,,,,,,,,,,,,,
,,,,,,,,,,,block_1/strong_n_105_4.wav,no,n,strong,105.0,1.30585928,13.14087062,,,YES,APPLE,1,,,,,,1,2020-09-16_17h20.10.296,kura-A2,2020.1.2,Win32,60,,,,,space,68.88764,0.0,3.0,3.0,3.0,1.0,,,,,,,,,,,,,,
,,,,,,,,,,,block_1/weak_n_105_4.wav,no,n,weak,105.0,1.436012468,12.20911904,,,YES,APPLE,1,,,,,,1,2020-09-16_17h20.10.296,kura-A2,2020.1.2,Win32,60,,,"[""space"",""space"",""space"",""space"",""space"",""space"",""space"",""space"",""space"",""space"",""space"",""space"",""space"",""space"",""space"",""space"",""space""]","[0.3060149997472763,0.5412749997340143,0.8311799997463822,1.1815599999390543,2.591544999741018,3.521694999653846,3.8767999997362494,4.185464999638498,5.616759999655187,5.957704999949783,6.620074999984354,6.908634999766946,7.443734999746084,7.719564999919385,11.404504999984056,11.6992749995552,11.95515999989584]",space,1.37965,0.0,4.0,4.0,28.0,1.0,,,,,,,,,,,,,,
,,,,,,,,,,,block_1/weak_n_72_4.wav,no,n,weak,72.0,1.441009476,17.41543124,,,YES,APPLE,1,,,,,,1,2020-09-16_17h20.10.296,kura-A2,2020.1.2,Win32,60,,,"[""space"",""space"",""space"",""space"",""space"",""space"",""space"",""space"",""space"",""space"",""space"",""space"",""space"",""space"",""space"",""space"",""space"",""space""]","[0.5552050000987947,0.8657450000755489,1.1558450004085898,5.23050000006333,5.785520000383258,5.811325000133365,7.078345000278205,7.407395000103861,9.660480000078678,9.940065000206232,10.224080000072718,13.94965000031516,14.245160000398755,14.515635000076145,15.803370000328869,16.067060000263155,16.92854000022635,17.213565000332892]",space,1.491735,0.0,5.0,5.0,4.0,1.0,,,,,,,,,,,,,,
,,,,,,,,,,,block_1/strong_n_92_4.wav,no,n,strong,92.0,2.276261723,15.98016195,,,YES,APPLE,1,,,,,,1,2020-09-16_17h20.10.296,kura-A2,2020.1.2,Win32,60,,,"[""space"",""space"",""space"",""space"",""space"",""space"",""space"",""space"",""space"",""space"",""space"",""space"",""space"",""space"",""space"",""space"",""space"",""space""]","[1.2562500000931323,1.553430000320077,7.834680000320077,8.120250000152737,8.407430000137538,9.82778500020504,10.1322400001809,10.377104999963194,10.635870000347495,11.564910000190139,11.843615000136197,12.976150000002235,13.236835000105202,13.501130000222474,14.647325000260025,14.90811499999836,15.171755000017583,15.398440000135452]",space,0.139035,0.0,6.0,6.0,34.0,1.0,,,,,,,,,,,,,,
,,,,,,,,,,,block_1/none_n_105_3.wav,no,n,none,105.0,2.216733946,14.87818519,,,YES,APPLE,1,,,,,,1,2020-09-16_17h20.10.296,kura-A2,2020.1.2,Win32,60,,,"[""space"",""space"",""space"",""space"",""space"",""space"",""space"",""space""]","[0.9083199999295175,2.2980550001375377,2.5630100001581013,2.822924999985844,4.248424999881536,4.510464999824762,8.074649999849498,8.399970000144094]",space,1.84889,0.0,7.0,7.0,6.0,1.0,,,,,,,,,,,,,,
,,,,,,,,,,,block_1/medium_n_92_3.wav,no,n,medium,92.0,1.602440637,13.28810957,,,YES,APPLE,1,,,,,,1,2020-09-16_17h20.10.296,kura-A2,2020.1.2,Win32,60,,,"[""space"",""space"",""space"",""space"",""space"",""space"",""space"",""space""]","[0.1741150002926588,0.4854700001887977,2.908449999988079,3.2715050000697374,4.200250000227243,4.5720000001601875,9.065070000011474,9.345035000238568]",space,9.611595,0.0,8.0,8.0,2.0,1.0,,,,,,,,,,,,,,
,,,,,,,,,,,block_1/strong_n_119_3.wav,no,n,strong,119.0,1.213627968,10.9792062,,,YES,APPLE,1,,,,,,1,2020-09-16_17h20.10.296,kura-A2,2020.1.2,Win32,60,,,"[""space"",""space"",""space"",""space"",""space"",""space"",""space"",""space"",""space"",""space"",""space"",""space"",""space"",""space"",""space"",""space""]","[0.14181499974802136,0.43842999963089824,0.7485299999825656,1.0560949998907745,1.8140249997377396,2.728704999666661,3.0855549997650087,4.481884999666363,4.803199999965727,5.738690000027418,7.270384999923408,7.595354999881238,8.38615999976173,8.711354999803007,9.732904999982566,10.038805000018328]",space,0.41237,0.0,9.0,9.0,16.0,1.0,,,,,,,,,,,,,,
,,,,,,,,,,,block_1/none_n_72_3.wav,no,n,none,72.0,1.892162994,23.61892036,,,YES,APPLE,1,,,,,,1,2020-09-16_17h20.10.296,kura-A2,2020.1.2,Win32,60,,,"[""space"",""space"",""space"",""space"",""space"",""space"",""space"",""space"",""space"",""space"",""space"",""space"",""space"",""space"",""space"",""space"",""space"",""space"",""space"",""space"",""space"",""space"",""space"",""space"",""space"",""space""]","[0.5480849999003112,1.5893500000238419,3.059950000140816,5.316504999995232,6.358324999921024,6.650450000073761,7.375990000087768,7.655110000167042,7.905534999910742,8.832454999908805,9.16105500003323,9.466585000045598,10.777865000069141,13.549104999750853,13.679484999738634,13.980864999815822,14.623939999844879,14.947554999962449,15.327339999843389,15.90690500009805,19.227949999738485,19.536514999810606,19.843700000084937,20.62286000000313,20.942935000173748,21.238539999816567]",space,0.762335,0.0,10.0,10.0,18.0,1.0,,,,,,,,,,,,,,
,,,,,,,,,,,block_1/strong_n_105_3.wav,no,n,strong,105.0,1.156897655,12.38746455,,,YES,APPLE,1,,,,,,1,2020-09-16_17h20.10.296,kura-A2,2020.1.2,Win32,60,,,"[""space"",""space"",""space"",""space"",""space"",""space"",""space"",""space"",""space"",""space"",""space"",""space"",""space"",""space"",""space""]","[0.2064249999821186,1.5887699997983873,3.866514999885112,4.1697799996472895,4.496714999899268,5.292469999752939,5.617544999811798,6.143304999917746,6.463394999969751,7.280429999809712,8.445859999861568,8.767844999674708,10.19533499982208,11.27875000005588,11.609154999721795]",space,0.73699,0.0,11.0,11.0,9.0,1.0,,,,,,,,,,,,,,
,,,,,,,,,,,block_1/none_n_81_4.wav,no,n,none,81.0,2.242955119,22.19488256,,,YES,APPLE,1,,,,,,1,2020-09-16_17h20.10.296,kura-A2,2020.1.2,Win32,60,,,"[""space"",""space"",""space"",""space"",""space"",""space"",""space"",""space"",""space"",""space"",""space"",""space"",""space"",""space"",""space""]","[1.5988500001840293,2.435580000281334,2.7854400002397597,5.904795000329614,6.174515000078827,9.19309000018984,9.507635000161827,11.165030000265688,11.444770000409335,14.80392500013113,15.099650000222027,17.110830000136048,19.04791500000283,19.363495000172406,19.664415000006557]",space,0.778285,0.0,12.0,12.0,26.0,1.0,,,,,,,,,,,,,,
,,,,,,,,,,,block_1/strong_n_81_3.wav,no,n,strong,81.0,1.6043637,15.60930701,,,YES,APPLE,1,,,,,,1,2020-09-16_17h20.10.296,kura-A2,2020.1.2,Win32,60,,,"[""space"",""space"",""space"",""space"",""space"",""space"",""space"",""space"",""space"",""space"",""space"",""space"",""space"",""space"",""space"",""space"",""space"",""space"",""space"",""space"",""space"",""space"",""space""]","[0.368284999858588,0.7186999996192753,1.7147899996489286,4.192589999642223,4.5026749996468425,5.404474999755621,5.714449999853969,5.994529999792576,6.730319999624044,7.0523799997754395,8.043734999839216,8.33790499996394,8.60731999995187,9.362749999854714,9.859934999607503,9.980219999793917,11.190839999821037,12.246034999843687,12.59158999985084,14.048259999603033,14.35401999996975,14.628799999598414,14.893720000050962]",space,0.854225,0.0,13.0,13.0,10.0,1.0,,,,,,,,,,,,,,
,,,,,,,,,,,block_1/none_n_92_3.wav,no,n,none,92.0,2.336707073,18.23675242,,,YES,APPLE,1,,,,,,1,2020-09-16_17h20.10.296,kura-A2,2020.1.2,Win32,60,,,"[""space"",""space"",""space"",""space"",""space"",""space"",""space"",""space"",""space"",""space"",""space"",""space"",""space"",""space"",""space"",""space"",""space"",""space"",""space"",""space""]","[0.28497999999672174,1.8132650000043213,2.107270000036806,3.0180399999953806,3.283555000089109,3.5232950001955032,4.604770000092685,4.926260000094771,5.916195000056177,7.122625000309199,9.15999500034377,10.304205000400543,11.799865000415593,13.124620000366122,13.456545000430197,14.530209999997169,14.825450000353158,15.861595000140369,17.7084150002338,18.165705000050366]",space,0.732355,0.0,14.0,14.0,25.0,1.0,,,,,,,,,,,,,,
,,,,,,,,,,,block_1/none_n_72_4.wav,no,n,none,72.0,1.118979514,23.86124709,,,YES,APPLE,1,,,,,,1,2020-09-16_17h20.10.296,kura-A2,2020.1.2,Win32,60,,,"[""space"",""space"",""space"",""space"",""space"",""space"",""space"",""space"",""space"",""space"",""space"",""space"",""space"",""space"",""space"",""space"",""space"",""space"",""space"",""space"",""space"",""space"",""space""]","[0.04561999998986721,0.3457100000232458,2.027364999987185,6.408040000125766,6.700699999928474,8.7892100000754,9.109399999957532,9.334530000109226,9.685959999915212,10.356614999938756,10.666310000233352,12.102955000009388,12.403859999962151,12.68360499991104,15.31631000014022,15.666505000088364,16.608134999871254,16.98776500020176,17.70951500022784,20.263015000149608,20.57181499991566,23.48217000020668,23.792100000195205]",space,0.245105,0.0,15.0,15.0,21.0,1.0,,,,,,,,,,,,,,
,,,,,,,,,,,block_1/strong_n_81_4.wav,no,n,strong,81.0,1.727706814,17.69954355,,,YES,APPLE,1,,,,,,1,2020-09-16_17h20.10.296,kura-A2,2020.1.2,Win32,60,,,"[""space"",""space"",""space"",""space"",""space"",""space"",""space"",""space"",""space"",""space"",""space"",""space"",""space"",""space"",""space""]","[0.1378350001759827,2.0469999997876585,3.5362049997784197,3.8766250000335276,5.7991149998269975,6.244030000176281,7.620219999924302,8.13128999993205,8.485964999999851,9.633880000095814,13.399929999839514,13.816765000112355,16.65578499995172,17.002274999860674,17.31527499994263]",space,0.907375,0.0,16.0,16.0,1.0,1.0,,,,,,,,,,,,,,
,,,,,,,,,,,block_1/medium_n_105_4.wav,no,n,medium,105.0,1.402482856,15.80924023,,,YES,APPLE,1,,,,,,1,2020-09-16_17h20.10.296,kura-A2,2020.1.2,Win32,60,,,"[""space"",""space"",""space"",""space"",""space"",""space"",""space"",""space"",""space"",""space"",""space"",""space"",""space"",""space""]","[1.2057700003497303,1.4461500002071261,3.2718600002117455,3.5460550002753735,3.8141149999573827,5.518649999983609,6.897795000113547,11.69645499996841,12.004695000126958,12.314925000071526,12.66014500008896,12.98077500006184,15.304320000112057,15.604130000341684]",space,1.69534,0.0,17.0,17.0,12.0,1.0,,,,,,,,,,,,,,
,,,,,,,,,,,block_1/medium_n_92_4.wav,no,n,medium,92.0,1.438882438,14.02917722,,,YES,APPLE,1,,,,,,1,2020-09-16_17h20.10.296,kura-A2,2020.1.2,Win32,60,,,"[""space"",""space"",""space"",""space"",""space"",""space""]","[1.6546749998815358,2.0093849999830127,4.752390000037849,5.653229999821633,11.289814999792725,11.569290000014007]",space,1.01231,0.0,18.0,18.0,11.0,1.0,,,,,,,,,,,,,,
,,,,,,,,,,,block_1/none_n_81_3.wav,no,n,none,81.0,1.098648096,17.74277508,,,YES,APPLE,1,,,,,,1,2020-09-16_17h20.10.296,kura-A2,2020.1.2,Win32,60,,,"[""space"",""space"",""space"",""space"",""space"",""space"",""space"",""space"",""space"",""space"",""space"",""space"",""space"",""space"",""space"",""space""]","[1.8961550001986325,2.227680000010878,4.144825000315905,4.465660000219941,7.013414999935776,8.13840000005439,10.232600000221282,10.432260000146925,11.841959999874234,12.138710000086576,13.217635000124574,13.474735000170767,15.326439999975264,15.634409999940544,17.219200000166893,17.5136750000529]",space,1.01218,0.0,19.0,19.0,29.0,1.0,,,,,,,,,,,,,,
,,,,,,,,,,,block_1/weak_n_81_4.wav,no,n,weak,81.0,2.484743178,17.5438815,,,YES,APPLE,1,,,,,,1,2020-09-16_17h20.10.296,kura-A2,2020.1.2,Win32,60,,,"[""space"",""space"",""space"",""space"",""space"",""space"",""space"",""space"",""space"",""space"",""space"",""space"",""space"",""space"",""space"",""space""]","[0.11567500000819564,0.470875000115484,0.7718500001356006,2.1575949997641146,2.468384999781847,3.6341499998234212,3.9246399998664856,5.110609999857843,5.409899999853224,6.798824999947101,8.83568499982357,9.126424999907613,12.324395000003278,12.645459999796003,13.710055000148714,15.262014999985695]",space,0.52459,0.0,20.0,20.0,36.0,1.0,,,,,,,,,,,,,,
,,,,,,,,,,,block_1/none_n_92_4.wav,no,n,none,92.0,1.296817987,15.18938035,,,YES,APPLE,1,,,,,,1,2020-09-16_17h20.10.296,kura-A2,2020.1.2,Win32,60,,,"[""space"",""space"",""space"",""space"",""space"",""space"",""space"",""space"",""space"",""space"",""space""]","[0.09832999994978309,0.4154749996960163,2.0649199998006225,3.5242949998937547,8.233959999866784,8.589924999978393,11.013460000045598,12.476974999997765,12.79575499985367,14.491374999750406,14.816434999927878]",space,3.30773,0.0,21.0,21.0,19.0,1.0,,,,,,,,,,,,,,
,,,,,,,,,,,block_1/none_n_119_3.wav,no,n,none,119.0,1.932281918,14.89500301,,,YES,APPLE,1,,,,,,1,2020-09-16_17h20.10.296,kura-A2,2020.1.2,Win32,60,,,"[""space"",""space"",""space"",""space"",""space"",""space"",""space"",""space"",""space"",""space"",""space"",""space"",""space"",""space""]","[1.109195000026375,1.384370000101626,2.6213700002990663,2.947195000015199,4.162185000255704,4.452419999986887,6.079365000128746,9.45295500010252,10.233915000222623,10.536545000039041,11.590964999981225,11.875669999979436,13.218540000263602,13.528170000296086]",space,1.681895,0.0,22.0,22.0,24.0,1.0,,,,,,,,,,,,,,
,,,,,,,,,,,block_1/none_n_105_4.wav,no,n,none,105.0,1.493653366,16.97025201,,,YES,APPLE,1,,,,,,1,2020-09-16_17h20.10.296,kura-A2,2020.1.2,Win32,60,,,"[""space"",""space"",""space"",""space"",""space"",""space"",""space"",""space"",""space"",""space"",""space"",""space"",""space"",""space"",""space"",""space"",""space"",""space"",""space"",""space"",""space""]","[0.2522599999792874,0.5647249999456108,1.9458499997854233,2.2562400000169873,2.537519999779761,3.808974999934435,4.1272499999031425,4.328584999777377,4.6636999999172986,4.9540399997495115,5.222914999816567,6.703220000024885,7.050994999706745,8.058409999590367,9.248609999660403,9.56372999958694,12.905789999756962,13.148209999781102,14.895554999820888,15.20020499965176,16.813149999827147]",space,0.16019,0.0,23.0,23.0,14.0,1.0,,,,,,,,,,,,,,
,,,,,,,,,,,block_1/medium_n_119_3.wav,no,n,medium,119.0,1.238363393,11.09976929,,,YES,APPLE,1,,,,,,1,2020-09-16_17h20.10.296,kura-A2,2020.1.2,Win32,60,,,"[""space"",""space"",""space"",""space"",""space"",""space"",""space"",""space""]","[2.7348700002767146,4.006200000178069,5.137800000142306,5.692790000233799,8.95683000003919,9.461860000155866,10.256450000219047,10.891319999936968]",space,0.3763,0.0,24.0,24.0,22.0,1.0,,,,,,,,,,,,,,
,,,,,,,,,,,block_1/medium_n_81_3.wav,no,n,medium,81.0,1.199970007,16.72060493,,,YES,APPLE,1,,,,,,1,2020-09-16_17h20.10.296,kura-A2,2020.1.2,Win32,60,,,"[""space"",""space"",""space"",""space"",""space"",""space"",""space"",""space""]","[2.5473249997012317,6.415899999905378,8.262489999644458,10.181589999701828,11.40584999974817,12.151379999704659,13.228089999873191,15.035069999750704]",space,0.36028,0.0,25.0,25.0,33.0,1.0,,,,,,,,,,,,,,
,,,,,,,,,,,block_1/weak_n_81_3.wav,no,n,weak,81.0,1.412334255,16.47029344,,,YES,APPLE,1,,,,,,1,2020-09-16_17h20.10.296,kura-A2,2020.1.2,Win32,60,,,"[""space"",""space"",""space"",""space"",""space"",""space"",""space"",""space"",""space"",""space"",""space"",""space"",""space"",""space"",""space"",""space"",""space"",""space""]","[4.2480300003662705,5.223519999999553,6.4395000003278255,7.130405000410974,7.471255000215024,8.42225500009954,8.742775000166148,9.087285000365227,11.152029999997467,11.505025000311434,11.824855000246316,13.031890000216663,13.363695000298321,13.662425000220537,13.947870000265539,15.609525000210851,15.974990000016987,16.23008000012487]",space,1.04882,0.0,26.0,26.0,30.0,1.0,,,,,,,,,,,,,,
,,,,,,,,,,,block_1/weak_n_119_4.wav,no,n,weak,119.0,2.305568033,13.07926418,,,YES,APPLE,1,,,,,,1,2020-09-16_17h20.10.296,kura-A2,2020.1.2,Win32,60,,,"[""space"",""space"",""space"",""space"",""space"",""space"",""space"",""space"",""space""]","[0.1734950002282858,1.3668200001120567,2.777635000180453,4.333465000148863,7.172565000131726,7.511520000174642,7.7918799999170005,11.010805000085384,11.305980000179261]",space,0.334825,0.0,27.0,27.0,31.0,1.0,,,,,,,,,,,,,,
,,,,,,,,,,,block_1/none_n_119_4.wav,no,n,none,119.0,2.009432028,15.37111003,,,YES,APPLE,1,,,,,,1,2020-09-16_17h20.10.296,kura-A2,2020.1.2,Win32,60,,,"[""space"",""space"",""space"",""space"",""space"",""space"",""space"",""space"",""space""]","[1.3558750003576279,6.5419050003401935,6.8815750000067055,7.158040000125766,9.000065000262111,9.31540000019595,11.14695500023663,12.608605000190437,12.91986500006169]",space,8.78363,0.0,28.0,28.0,20.0,1.0,,,,,,,,,,,,,,
,,,,,,,,,,,block_1/strong_n_119_4.wav,no,n,strong,119.0,1.980480326,12.048825,,,YES,APPLE,1,,,,,,1,2020-09-16_17h20.10.296,kura-A2,2020.1.2,Win32,60,,,"[""space"",""space"",""space"",""space"",""space"",""space"",""space"",""space"",""space"",""space"",""space"",""space"",""space"",""space"",""space"",""space"",""space"",""space""]","[0.04951500007882714,0.3383600004017353,1.5974350003525615,1.8613850004039705,2.775890000164509,3.1014849999919534,3.858255000319332,4.197165000252426,5.0041250004433095,5.333595000207424,6.14515500003472,6.850475000217557,7.531295000109822,8.553470000158995,8.92759000044316,9.222830000333488,10.05384000018239,11.47038000030443]",space,0.315865,0.0,29.0,29.0,23.0,1.0,,,,,,,,,,,,,,
,,,,,,,,,,,block_1/medium_n_105_3.wav,no,n,medium,105.0,2.417465983,14.09955215,,,YES,APPLE,1,,,,,,1,2020-09-16_17h20.10.296,kura-A2,2020.1.2,Win32,60,,,"[""space"",""space"",""space"",""space"",""space"",""space"",""space"",""space"",""space"",""space"",""space"",""space"",""space"",""space""]","[0.47176000010222197,0.8855300000868738,1.1956499996595085,2.8238049997016788,3.2591899996623397,3.5344549999572337,3.799774999730289,5.381885000038892,5.666549999732524,8.545639999676496,8.910499999765307,10.909715000074357,12.425864999648184,12.720499999821186]",space,1.095235,0.0,30.0,30.0,0.0,1.0,,,,,,,,,,,,,,
,,,,,,,,,,,block_1/weak_n_105_3.wav,no,n,weak,105.0,1.738990723,13.41450093,,,YES,APPLE,1,,,,,,1,2020-09-16_17h20.10.296,kura-A2,2020.1.2,Win32,60,,,"[""space"",""space"",""space"",""space"",""space"",""space"",""space"",""space"",""space"",""space""]","[0.872874999884516,1.1884249998256564,2.555370000191033,2.8711850000545382,6.184435000177473,6.503690000157803,8.109114999882877,8.406264999881387,10.02735499991104,10.38107499992475]",space,1.707955,0.0,31.0,31.0,27.0,1.0,,,,,,,,,,,,,,
,,,,,,,,,,,block_1/weak_n_92_4.wav,no,n,weak,92.0,2.208253857,14.29442166,,,YES,APPLE,1,,,,,,1,2020-09-16_17h20.10.296,kura-A2,2020.1.2,Win32,60,,,"[""space"",""space"",""space"",""space"",""space"",""space"",""space"",""space"",""space"",""space"",""space"",""space"",""space"",""space"",""space"",""space"",""space"",""space""]","[0.5568349999375641,1.7634199997410178,4.671759999822825,5.737529999576509,6.307954999618232,6.618494999594986,6.89873499982059,7.224014999810606,9.153149999678135,9.436224999837577,9.72675499971956,10.031899999827147,10.318169999867678,11.135454999748617,11.49165999982506,12.954909999854863,13.375464999582618,13.990809999871999]",space,0.03705,0.0,32.0,32.0,15.0,1.0,,,,,,,,,,,,,,
,,,,,,,,,,,block_1/medium_n_72_3.wav,no,n,medium,72.0,2.102023577,18.17590113,,,YES,APPLE,1,,,,,,1,2020-09-16_17h20.10.296,kura-A2,2020.1.2,Win32,60,,,"[""space"",""space"",""space"",""space"",""space"",""space"",""space"",""space"",""space"",""space"",""space"",""space"",""space"",""space"",""space"",""space"",""space""]","[2.579740000423044,2.8721300000324845,4.234590000007302,4.545580000150949,6.138410000130534,8.190510000102222,8.53590500028804,8.836615000385791,11.394755000248551,12.28592500044033,12.575110000092536,13.49210000038147,14.37838500039652,14.682490000035614,16.133820000104606,16.414385000243783,17.996025000233203]",space,0.055685,0.0,33.0,33.0,13.0,1.0,,,,,,,,,,,,,,
,,,,,,,,,,,block_1/weak_n_119_3.wav,no,n,weak,119.0,2.459758036,10.81612992,,,YES,APPLE,1,,,,,,1,2020-09-16_17h20.10.296,kura-A2,2020.1.2,Win32,60,,,"[""space"",""space"",""space"",""space"",""space"",""space""]","[3.1808350002393126,4.480729999952018,4.778489999938756,6.820619999896735,7.113245000131428,9.77500500017777]",space,2.88821,0.0,34.0,34.0,37.0,1.0,,,,,,,,,,,,,,
,,,,,,,,,,,block_1/medium_n_81_4.wav,no,n,medium,81.0,1.742854158,16.25138024,,,YES,APPLE,1,,,,,,1,2020-09-16_17h20.10.296,kura-A2,2020.1.2,Win32,60,,,"[""space"",""space"",""space"",""space"",""space"",""space"",""space"",""space"",""space"",""space"",""space"",""space"",""space"",""space"",""space"",""space"",""space"",""space"",""space"",""space"",""space"",""space"",""space"",""space"",""space"",""space"",""space"",""space"",""space""]","[0.9537350004538894,3.446245000232011,3.731485000345856,4.000775000080466,4.961030000355095,5.303145000245422,5.631345000118017,6.416860000230372,6.7129050004296005,7.027520000003278,7.973635000176728,8.27462000027299,8.619215000420809,9.349970000330359,9.661250000353903,9.997630000114441,10.65479000005871,10.976895000319928,11.332410000264645,12.012705000117421,12.33113000029698,12.628495000302792,13.40366500010714,13.700545000378042,14.060045000165701,14.410075000021607,14.845945000182837,16.021180000156164,16.092550000175834]",space,0.128365,0.0,35.0,35.0,38.0,1.0,,,,,,,,,,,,,,
,,,,,,,,,,,block_1/medium_n_119_4.wav,no,n,medium,119.0,1.261396351,9.568471181,,,YES,APPLE,1,,,,,,1,2020-09-16_17h20.10.296,kura-A2,2020.1.2,Win32,60,,,"[""space"",""space"",""space"",""space"",""space"",""space"",""space"",""space"",""space"",""space"",""space""]","[1.4529249998740852,1.9501399998553097,3.7317749997600913,5.959809999912977,6.359239999670535,6.794744999613613,7.585819999687374,7.932649999856949,8.35124500002712,9.11695499997586,9.510340000037104]",space,0.296235,0.0,36.0,36.0,17.0,1.0,,,,,,,,,,,,,,
,,,,,,,,,,,block_1/strong_n_92_3.wav,no,n,strong,92.0,1.754608557,14.24499404,,,YES,APPLE,1,,,,,,1,2020-09-16_17h20.10.296,kura-A2,2020.1.2,Win32,60,,,"[""space"",""space"",""space"",""space"",""space"",""space"",""space"",""space"",""space"",""space"",""space"",""space"",""space"",""space"",""space"",""space"",""space"",""space""]","[0.050700000021606684,2.5279199997894466,2.899805000051856,3.2635399997234344,4.160544999875128,4.469844999723136,5.256765000056475,5.559700000099838,6.432099999859929,6.7377649997361,7.575135000050068,7.845069999806583,8.744564999826252,9.034909999929368,9.728279999922961,10.000844999682158,11.098044999875128,11.40813499968499]",space,0.675395,0.0,37.0,37.0,39.0,1.0,,,,,,,,,,,,,,
,,,,,,,,,,,block_1/strong_n_72_4.wav,no,n,strong,72.0,1.599228342,16.96784512,,,YES,APPLE,1,,,,,,1,2020-09-16_17h20.10.296,kura-A2,2020.1.2,Win32,60,,,"[""space"",""space"",""space"",""space"",""space"",""space"",""space"",""space"",""space"",""space"",""space"",""space"",""space"",""space"",""space"",""space"",""space"",""space""]","[0.012399999890476465,0.3489149999804795,1.8158099995926023,3.026389999780804,4.109044999815524,5.1002149996347725,5.937609999906272,5.995094999670982,8.119194999802858,8.377154999878258,9.606774999760091,10.181119999848306,11.165004999842495,13.61248999973759,14.123784999828786,14.394029999617487,16.25095499958843,16.511359999887645]",space,0.75562,0.0,38.0,38.0,35.0,1.0,,,,,,,,,,,,,,
,,,,,,,,,,,block_1/weak_n_72_3.wav,no,n,weak,72.0,1.008682366,16.87657352,,,YES,APPLE,1,,,,,,1,2020-09-16_17h20.10.296,kura-A2,2020.1.2,Win32,60,,,"[""space"",""space"",""space"",""space"",""space"",""space"",""space"",""space"",""space"",""space"",""space"",""space"",""space"",""space"",""space"",""space"",""space""]","[2.1127949999645352,3.2034149998798966,3.558679999783635,5.030299999751151,8.624829999636859,9.004604999907315,10.33557999972254,10.651294999755919,11.787104999646544,12.159519999753684,12.469670000020415,13.478774999734014,13.806669999845326,14.58511499967426,14.870445000007749,15.761469999793917,16.06666999962181]",space,0.09247,0.0,39.0,39.0,8.0,1.0,,,,,,,,,,,,,,
,,,,,,,,,,,block_2/none_t_92_4.wav,timbre,t,none,92.0,1.414044957,16.25508804,,,YES,APPLE,1,,,,,,1,2020-09-16_17h20.10.296,kura-A2,2020.1.2,Win32,60,,,,,,,,,,,,space,0.27167,"[""space"",""space"",""space"",""space"",""space"",""space"",""space"",""space"",""space"",""space"",""space"",""space"",""space"",""space"",""space""]","[0.7610649997368455,1.117839999962598,2.979789999779314,3.4347149999812245,4.756045000161976,5.056640000082552,5.846855000127107,6.172144999727607,7.673924999777228,8.708529999945313,13.070274999830872,13.386884999927133,13.790279999841005,15.131324999965727,15.471940000075847]",space,0.765795,0.0,0.0,0.0,22.0,1.0,,,
,,,,,,,,,,,block_2/none_t_105_4.wav,timbre,t,none,105.0,1.723889958,15.53967227,,,YES,APPLE,1,,,,,,1,2020-09-16_17h20.10.296,kura-A2,2020.1.2,Win32,60,,,,,,,,,,,,,,"[""space"",""space"",""space"",""space"",""space"",""space"",""space"",""space"",""space"",""space""]","[0.4869750002399087,1.7883750000037253,2.8596149999648333,4.400260000023991,5.727595000062138,6.943849999923259,8.977625000290573,10.699485000222921,13.41554500022903,15.222415000200272]",space,0.81531,0.0,1.0,1.0,20.0,1.0,,,
,,,,,,,,,,,block_2/weak_t_119_4.wav,timbre,t,weak,119.0,2.497661912,13.1066415,,,YES,APPLE,1,,,,,,1,2020-09-16_17h20.10.296,kura-A2,2020.1.2,Win32,60,,,,,,,,,,,,,,"[""space"",""space"",""space"",""space"",""space"",""space"",""space"",""space"",""space"",""space"",""space"",""space"",""space"",""space"",""space"",""space"",""space"",""space"",""space"",""space"",""space""]","[0.7626499999314547,3.441920000128448,4.111735000275075,4.399234999902546,4.743400000035763,5.352915000170469,5.753380000125617,6.184780000243336,7.050340000074357,7.380230000242591,7.715385000221431,8.147214999888092,8.55132000008598,8.934960000216961,9.291385000105947,9.63334000017494,10.183535000309348,10.622390000149608,12.255220000166446,12.575195000041276,12.86585499998182]",space,0.52871,0.0,2.0,2.0,11.0,1.0,,,
,,,,,,,,,,,block_2/strong_t_72_4.wav,timbre,t,strong,72.0,1.957123463,17.07435702,,,YES,APPLE,1,,,,,,1,2020-09-16_17h20.10.296,kura-A2,2020.1.2,Win32,60,,,,,,,,,,,,,,"[""space"",""space"",""space"",""space"",""space"",""space"",""space"",""space"",""space"",""space"",""space"",""space"",""space"",""space"",""space"",""space"",""space"",""space"",""space"",""space"",""space"",""space"",""space"",""space"",""space""]","[0.23537499969825149,2.8334399997256696,3.133099999744445,3.4543200000189245,5.075745000038296,5.3658499997109175,5.655040000099689,6.358139999676496,6.667369999922812,6.992619999684393,7.791600000113249,8.139295000117272,8.464254999998957,8.80045499978587,9.130109999794513,9.98964500008151,10.351449999958277,11.397384999785572,11.727554999757558,13.089974999893457,13.097169999964535,13.890695000067353,14.881614999845624,15.206664999946952,15.531614999752492]",space,0.88598,0.0,3.0,3.0,1.0,1.0,,,
,,,,,,,,,,,block_2/none_t_72_4.wav,timbre,t,none,72.0,1.053800106,24.75334659,,,YES,APPLE,1,,,,,,1,2020-09-16_17h20.10.296,kura-A2,2020.1.2,Win32,60,,,,,,,,,,,,,,"[""space"",""space"",""space"",""space"",""space"",""space"",""space"",""space"",""space"",""space"",""space"",""space"",""space"",""space"",""space"",""space"",""space"",""space"",""space"",""space"",""space"",""space"",""space"",""space"",""space"",""space"",""space"",""space"",""space"",""space"",""space"",""space"",""space"",""space"",""space"",""space"",""space"",""space""]","[0.8441349999047816,1.1499399999156594,2.1693649999797344,2.464394999668002,3.501304999925196,3.8317649997770786,4.678164999932051,4.958589999936521,6.099569999612868,6.419989999849349,7.70625999988988,8.577924999874085,8.867704999633133,9.778189999982715,10.104344999883324,10.933549999725074,11.306074999738485,11.895554999820888,12.130959999747574,12.43785999994725,12.701214999891818,13.572489999700338,13.84766999958083,14.889089999720454,15.15953499963507,15.96970499958843,16.23424499994144,16.87112999986857,17.13585999980569,18.26939499983564,18.562504999805242,19.91873999964446,20.80459999991581,21.095005000010133,22.171909999568015,23.231874999590218,23.542329999618232,24.273319999687374]",space,0.10352,0.0,4.0,4.0,15.0,1.0,,,
,,,,,,,,,,,block_2/medium_t_92_4.wav,timbre,t,medium,92.0,1.599417172,14.59601581,,,YES,APPLE,1,,,,,,1,2020-09-16_17h20.10.296,kura-A2,2020.1.2,Win32,60,,,,,,,,,,,,,,"[""space"",""space"",""space"",""space"",""space"",""space"",""space"",""space"",""space"",""space"",""space"",""space"",""space"",""space"",""space"",""space"",""space"",""space"",""space"",""space"",""space""]","[0.5668049999512732,1.1352900001220405,2.2736749998293817,3.3596449997276068,3.6742300000041723,4.573330000042915,4.876734999939799,5.72740999981761,7.28459500009194,7.57503499975428,8.580165000166744,8.820824999827892,9.662909999955446,9.951859999913722,10.958364999853075,11.719664999749511,12.054620000068098,12.85029499977827,13.137825000099838,13.866609999909997,14.166470000054687]",space,0.327745,0.0,5.0,5.0,25.0,1.0,,,
,,,,,,,,,,,block_2/none_t_119_4.wav,timbre,t,none,119.0,2.16972576,11.23222009,,,YES,APPLE,1,,,,,,1,2020-09-16_17h20.10.296,kura-A2,2020.1.2,Win32,60,,,,,,,,,,,,,,"[""space"",""space"",""space"",""space"",""space"",""space"",""space"",""space"",""space"",""space"",""space"",""space"",""space""]","[0.4449100000783801,0.7305199997499585,1.770909999962896,2.076504999771714,3.137689999770373,3.4525399999693036,5.6595600000582635,5.905030000023544,7.362015000078827,7.741640000138432,8.022415000014007,9.318334999959916,9.929725000169128]",space,0.115515,0.0,6.0,6.0,27.0,1.0,,,
,,,,,,,,,,,block_2/medium_t_81_4.wav,timbre,t,medium,81.0,2.313262111,15.10881767,,,YES,APPLE,1,,,,,,1,2020-09-16_17h20.10.296,kura-A2,2020.1.2,Win32,60,,,,,,,,,,,,,,"[""space"",""space"",""space"",""space"",""space""]","[0.4078099997714162,1.129949999973178,1.4651649999432266,1.7691699997521937,2.0486699999310076]",space,8.373695,0.0,7.0,7.0,2.0,1.0,,,
,,,,,,,,,,,block_2/weak_t_92_3.wav,timbre,t,weak,92.0,1.995389518,17.35720358,,,YES,APPLE,1,,,,,,1,2020-09-16_17h20.10.296,kura-A2,2020.1.2,Win32,60,,,,,,,,,,,,,,"[""space"",""space"",""space"",""space"",""space""]","[0.6585950003936887,0.8719700002111495,1.0292000002227724,1.1998850000090897,1.3816599999554455]",space,17.11836,0.0,8.0,8.0,38.0,1.0,,,
,,,,,,,,,,,block_2/strong_t_92_3.wav,timbre,t,strong,92.0,2.058598996,15.10526566,,,YES,APPLE,1,,,,,,1,2020-09-16_17h20.10.296,kura-A2,2020.1.2,Win32,60,,,,,,,,,,,,,,"[""space"",""space"",""space"",""space"",""space"",""space"",""space"",""space"",""space"",""space"",""space"",""space"",""space"",""space"",""space"",""space"",""space"",""space"",""space"",""space"",""space"",""space""]","[0.39337499998509884,1.3699849997647107,1.665054999757558,2.5959199997596443,2.8974599996581674,4.072199999820441,4.373904999811202,5.813954999670386,6.099209999665618,6.855200000107288,7.12544499989599,8.772779999766499,9.052154999691993,9.523539999965578,9.812959999777377,10.699560000095516,10.966364999767393,12.282949999906123,12.777224999852479,13.652160000056028,13.942100000102073,14.754470000043511]",space,0.04948,0.0,9.0,9.0,3.0,1.0,,,
,,,,,,,,,,,block_2/none_t_105_3.wav,timbre,t,none,105.0,1.906849656,15.72757528,,,YES,APPLE,1,,,,,,1,2020-09-16_17h20.10.296,kura-A2,2020.1.2,Win32,60,,,,,,,,,,,,,,"[""space"",""space"",""space"",""space"",""space"",""space"",""space"",""space"",""space"",""space"",""space"",""space"",""space"",""space"",""space"",""space"",""space"",""space"",""space"",""space"",""space"",""space"",""space"",""space"",""space"",""space"",""space"",""space"",""space"",""space"",""space"",""space"",""space"",""space""]","[0.0835500000976026,0.3829950001090765,0.6541800000704825,1.3716000001877546,1.6418250002898276,1.9644349999725819,2.4229749999940395,2.7698200000450015,3.110330000054091,3.5770550002343953,3.904755000025034,4.165565000381321,5.125435000285506,5.161030000075698,5.491429999936372,5.74652500031516,6.227045000065118,6.6109350002370775,7.107970000244677,7.445900000166148,7.734535000286996,9.105280000250787,9.341260000132024,9.628920000046492,10.782005000393838,11.13484500022605,11.417480000294745,12.336320000234991,12.662245000246912,12.993255000095814,14.030325000174344,14.30163500038907,14.664830000139773,15.601955000311136]",space,0.167525,0.0,10.0,10.0,14.0,1.0,,,
,,,,,,,,,,,block_2/strong_t_72_3.wav,timbre,t,strong,72.0,1.757165856,18.23458082,,,YES,APPLE,1,,,,,,1,2020-09-16_17h20.10.296,kura-A2,2020.1.2,Win32,60,,,,,,,,,,,,,,"[""space"",""space"",""space"",""space"",""space"",""space"",""space"",""space"",""space"",""space"",""space"",""space"",""space"",""space"",""space"",""space"",""space"",""space"",""space"",""space"",""space"",""space"",""space"",""space"",""space"",""space"",""space"",""space"",""space"",""space"",""space"",""space"",""space"",""space""]","[0.4043250000104308,0.7137199998833239,1.1474699997343123,1.9063149997964501,2.193494999781251,2.479774999897927,3.139824999962002,3.44173499988392,4.091984999831766,4.4408200001344085,4.7891600001603365,5.602820000145584,5.912200000137091,6.327969999983907,7.251769999973476,7.560870000161231,7.885644999798387,8.668279999867082,8.953840000089258,9.258520000148565,9.939400000032037,10.274509999901056,10.55981000000611,11.10029499977827,11.446304999757558,11.775940000079572,13.327769999857992,13.628024999983609,13.918200000189245,14.419369999784976,14.73473499994725,15.023570000194013,16.591260000132024,16.89144999999553]",space,0.098495,0.0,11.0,11.0,5.0,1.0,,,
,,,,,,,,,,,block_2/medium_t_81_3.wav,timbre,t,medium,81.0,1.280563259,13.87394194,,,YES,APPLE,1,,,,,,1,2020-09-16_17h20.10.296,kura-A2,2020.1.2,Win32,60,,,,,,,,,,,,,,"[""space"",""space"",""space"",""space"",""space"",""space"",""space"",""space"",""space"",""space"",""space"",""space"",""space"",""space"",""space"",""space"",""space"",""space""]","[0.34593999991193414,0.6717099999077618,0.9432099997065961,2.5049999998882413,3.090459999628365,3.335624999832362,3.9114699997007847,5.198544999584556,5.534514999948442,8.25637499988079,8.811574999708682,10.103894999716431,10.418474999722093,10.769424999598414,11.871069999877363,12.184994999784976,12.901074999943376,13.262844999786466]",space,0.03988,0.0,12.0,12.0,8.0,1.0,,,
,,,,,,,,,,,block_2/none_t_72_3.wav,timbre,t,none,72.0,1.763210745,21.95785927,,,YES,APPLE,1,,,,,,1,2020-09-16_17h20.10.296,kura-A2,2020.1.2,Win32,60,,,,,,,,,,,,,,"[""space"",""space"",""space"",""space"",""space"",""space"",""space"",""space"",""space"",""space"",""space"",""space"",""space"",""space"",""space"",""space"",""space"",""space"",""space"",""space"",""space"",""space"",""space"",""space"",""space"",""space"",""space"",""space"",""space"",""space"",""space"",""space"",""space"",""space""]","[0.7729149996303022,1.0433749998919666,1.3231199998408556,1.9257049998268485,1.9943699999712408,2.5746499998494983,2.845699999947101,3.550649999640882,3.846549999900162,4.111114999745041,5.004350000061095,5.287609999999404,5.56275499984622,6.044684999622405,6.724589999765158,7.004114999901503,7.4997749999165535,7.9032950000837445,8.175864999648184,9.397539999801666,9.7071050000377,10.428425000049174,10.812009999994189,11.88492999970913,12.925629999954253,13.946884999983013,14.41228499962017,15.308019999880344,15.98941499972716,16.919854999985546,17.36540999962017,18.511715000029653,20.12616499979049,21.393075000029057]",space,0.872495,0.0,13.0,13.0,19.0,1.0,,,
,,,,,,,,,,,block_2/strong_t_105_4.wav,timbre,t,strong,105.0,1.910106179,12.02788396,,,YES,APPLE,1,,,,,,1,2020-09-16_17h20.10.296,kura-A2,2020.1.2,Win32,60,,,,,,,,,,,,,,"[""space"",""space"",""space"",""space"",""space"",""space"",""space"",""space"",""space""]","[0.863090000115335,1.8934849998913705,3.2949749999679625,4.278650000225753,5.477504999842495,7.295129999984056,9.721950000151992,10.697765000164509,11.623945000115782]",space,0.77286,0.0,14.0,14.0,18.0,1.0,,,
,,,,,,,,,,,block_2/medium_t_72_3.wav,timbre,t,medium,72.0,1.064285065,17.84451182,,,YES,APPLE,1,,,,,,1,2020-09-16_17h20.10.296,kura-A2,2020.1.2,Win32,60,,,,,,,,,,,,,,"[""space"",""space"",""space"",""space"",""space"",""space"",""space"",""space"",""space"",""space"",""space"",""space""]","[0.5326399998739362,1.9038999998010695,3.2304650000296533,4.317249999847263,6.474309999961406,7.824134999886155,10.21271499991417,11.209359999746084,12.84643999999389,13.996934999711812,16.019549999851733,17.39551499998197]",space,0.685915,0.0,15.0,15.0,31.0,1.0,,,
,,,,,,,,,,,block_2/strong_t_105_3.wav,timbre,t,strong,105.0,1.973938856,13.50654657,,,YES,APPLE,1,,,,,,1,2020-09-16_17h20.10.296,kura-A2,2020.1.2,Win32,60,,,,,,,,,,,,,,"[""space"",""space"",""space"",""space"",""space"",""space"",""space"",""space"",""space""]","[0.20499999960884452,1.1198599999770522,2.9024899997748435,3.9331399998627603,6.481654999777675,7.856809999793768,8.772839999757707,9.927834999747574,11.190554999746382]",space,0.03626,0.0,16.0,16.0,21.0,1.0,,,
,,,,,,,,,,,block_2/none_t_92_3.wav,timbre,t,none,92.0,1.328085357,13.39815338,,,YES,APPLE,1,,,,,,1,2020-09-16_17h20.10.296,kura-A2,2020.1.2,Win32,60,,,,,,,,,,,,,,"[""space"",""space"",""space"",""space"",""space"",""space"",""space"",""space"",""space"",""space"",""space"",""space"",""space"",""space"",""space"",""space"",""space"",""space"",""space""]","[0.018174999859184027,0.370044999755919,1.3346099997870624,1.6220299997366965,1.9722250001505017,2.2809099997393787,4.759715000167489,5.039940000046045,5.355454999953508,6.0064050001092255,6.331480000168085,7.111099999863654,7.422334999777377,10.172464999835938,10.45185500010848,11.697629999835044,11.992930000182241,13.082475000061095,13.303654999937862]",space,0.25345,0.0,17.0,17.0,17.0,1.0,,,
,,,,,,,,,,,block_2/weak_t_72_4.wav,timbre,t,weak,72.0,1.41938316,17.89516547,,,YES,APPLE,1,,,,,,1,2020-09-16_17h20.10.296,kura-A2,2020.1.2,Win32,60,,,,,,,,,,,,,,"[""space"",""space"",""space"",""space"",""space"",""space"",""space"",""space"",""space"",""space"",""space"",""space"",""space"",""space"",""space"",""space"",""space"",""space"",""space"",""space"",""space"",""space"",""space"",""space"",""space"",""space"",""space"",""space"",""space"",""space"",""space"",""space"",""space"",""space"",""space"",""space"",""space"",""space"",""space"",""space""]","[0.004050000105053186,0.32260499987751245,0.9784949999302626,1.30868999985978,1.6489299996756017,2.270314999856055,2.560539999976754,5.638669999781996,6.009814999997616,7.010354999918491,7.36062499973923,7.655209999997169,7.906089999713004,8.162314999848604,8.431580000091344,8.798690000083297,9.071759999729693,9.372254999820143,9.637199999764562,9.932860000059009,10.247829999774694,10.539334999863058,10.81033999985084,11.112834999803454,11.839309999719262,12.111664999742061,12.442994999699295,12.741074999794364,13.088089999742806,13.3819450000301,13.721769999712706,14.018364999908954,14.689309999812394,14.974619999993593,15.624294999986887,15.920184999704361,16.234764999710023,16.945774999912828,17.257464999798685,17.606019999831915]",space,0.622905,0.0,18.0,18.0,33.0,1.0,,,
,,,,,,,,,,,block_2/medium_t_119_4.wav,timbre,t,medium,119.0,2.1713947,11.99221103,,,YES,APPLE,1,,,,,,1,2020-09-16_17h20.10.296,kura-A2,2020.1.2,Win32,60,,,,,,,,,,,,,,"[""space"",""space"",""space"",""space"",""space"",""space"",""space"",""space"",""space"",""space"",""space"",""space"",""space"",""space"",""space"",""space"",""space"",""space"",""space"",""space""]","[0.4782249997369945,0.7804399998858571,1.5235850000753999,1.8046099999919534,2.39035000000149,2.700544999912381,3.0410799998790026,3.7418399997986853,4.480200000107288,4.752414999995381,5.563739999663085,5.888659999705851,6.635795000009239,6.927804999984801,7.555875000078231,7.971055000089109,9.620240000076592,10.43940499983728,11.616734999697655,11.8967649997212]",space,0.787495,0.0,19.0,19.0,30.0,1.0,,,
,,,,,,,,,,,block_2/medium_t_92_3.wav,timbre,t,medium,92.0,1.388240232,13.37372776,,,YES,APPLE,1,,,,,,1,2020-09-16_17h20.10.296,kura-A2,2020.1.2,Win32,60,,,,,,,,,,,,,,"[""space"",""space"",""space"",""space"",""space"",""space"",""space"",""space"",""space""]","[0.644229999743402,2.421529999934137,3.458654999732971,4.85901500005275,7.901964999735355,10.1842399998568,10.969969999976456,12.341794999781996,12.617769999895245]",space,0.26715,0.0,20.0,20.0,35.0,1.0,,,
,,,,,,,,,,,block_2/weak_t_81_4.wav,timbre,t,weak,81.0,1.138387897,14.33417021,,,YES,APPLE,1,,,,,,1,2020-09-16_17h20.10.296,kura-A2,2020.1.2,Win32,60,,,,,,,,,,,,,,"[""space"",""space"",""space"",""space"",""space"",""space"",""space"",""space"",""space"",""space"",""space"",""space"",""space"",""space"",""space""]","[0.3138150000013411,0.593929999973625,3.267855000216514,5.087465000338852,5.493305000010878,6.39938999991864,6.920489999931306,7.806330000050366,9.388010000344366,9.692844999954104,10.510629999917,10.820005000103265,11.770520000252873,12.223275000229478,13.486950000282377]",space,0.04478,0.0,21.0,21.0,0.0,1.0,,,
,,,,,,,,,,,block_2/none_t_119_3.wav,timbre,t,none,119.0,1.207484261,12.32644118,,,YES,APPLE,1,,,,,,1,2020-09-16_17h20.10.296,kura-A2,2020.1.2,Win32,60,,,,,,,,,,,,,,"[""space"",""space"",""space"",""space"",""space"",""space"",""space"",""space"",""space"",""space"",""space"",""space"",""space"",""space"",""space"",""space"",""space"",""space""]","[0.20745500037446618,0.5107849999330938,1.3831000002101064,1.6467000003904104,2.7161300000734627,3.0115849999710917,4.216380000114441,4.4498300002887845,5.3905850001610816,5.686184999998659,6.437600000295788,6.698025000281632,7.668460000306368,7.948375000152737,8.89951500017196,9.220605000387877,10.464399999938905,10.789894999936223]",space,0.131795,0.0,22.0,22.0,32.0,1.0,,,
,,,,,,,,,,,block_2/weak_t_72_3.wav,timbre,t,weak,72.0,1.543417886,17.01208002,,,YES,APPLE,1,,,,,,1,2020-09-16_17h20.10.296,kura-A2,2020.1.2,Win32,60,,,,,,,,,,,,,,"[""space"",""space"",""space"",""space"",""space"",""space"",""space"",""space"",""space"",""space"",""space"",""space"",""space"",""space"",""space"",""space"",""space"",""space"",""space"",""space"",""space"",""space""]","[0.123605000320822,1.0577650000341237,1.3503200002014637,2.151510000228882,2.47635000012815,3.368110000155866,3.672755000181496,4.608535000123084,4.929144999943674,6.200215000193566,6.54562500026077,7.9027700000442564,8.242150000296533,9.525145000312477,10.165390000212938,10.46559499995783,11.481395000126213,12.321800000034273,13.53332500020042,13.863200000021607,14.813554999884218,16.14581499993801]",space,0.979615,0.0,23.0,23.0,26.0,1.0,,,
,,,,,,,,,,,block_2/strong_t_119_4.wav,timbre,t,strong,119.0,1.529717424,11.39760858,,,YES,APPLE,1,,,,,,1,2020-09-16_17h20.10.296,kura-A2,2020.1.2,Win32,60,,,,,,,,,,,,,,"[""space"",""space"",""space"",""space"",""space"",""space"",""space""]","[0.9560050000436604,2.3524600001983345,3.765614999923855,5.165135000366718,7.14742000028491,9.034715000074357,10.290805000346154]",space,0.133395,0.0,24.0,24.0,39.0,1.0,,,
,,,,,,,,,,,block_2/strong_t_81_4.wav,timbre,t,strong,81.0,1.059530738,15.41717246,,,YES,APPLE,1,,,,,,1,2020-09-16_17h20.10.296,kura-A2,2020.1.2,Win32,60,,,,,,,,,,,,,,"[""space"",""space"",""space"",""space"",""space"",""space""]","[0.19164999993517995,5.759240000043064,6.626235000323504,7.602600000333041,11.132465000264347,15.316335000097752]",space,0.513925,0.0,25.0,25.0,34.0,1.0,,,
,,,,,,,,,,,block_2/medium_t_105_4.wav,timbre,t,medium,105.0,1.80685877,13.54300389,,,YES,APPLE,1,,,,,,1,2020-09-16_17h20.10.296,kura-A2,2020.1.2,Win32,60,,,,,,,,,,,,,,"[""space"",""space"",""space"",""space"",""space"",""space"",""space"",""space"",""space"",""space"",""space""]","[0.98471499979496,1.3249599998816848,5.299534999765456,8.088144999928772,8.40252499980852,10.089154999703169,10.361584999598563,11.724179999902844,12.021179999690503,13.08769499976188,13.372784999664873]",space,1.04756,0.0,26.0,26.0,23.0,1.0,,,
,,,,,,,,,,,block_2/none_t_81_4.wav,timbre,t,none,81.0,1.883383873,17.9242909,,,YES,APPLE,1,,,,,,1,2020-09-16_17h20.10.296,kura-A2,2020.1.2,Win32,60,,,,,,,,,,,,,,"[""space"",""space"",""space"",""space"",""space"",""space"",""space"",""space"",""space"",""space"",""space"",""space"",""space"",""space"",""space"",""space""]","[0.052509999834001064,0.33000499987974763,1.3584549999795854,1.6458699996583164,2.6362549997866154,2.8556450000032783,3.291484999936074,4.701434999704361,4.971709999721497,6.216829999815673,6.489019999746233,7.672589999623597,7.955614999867976,15.261769999749959,15.554379999637604,17.09383499994874]",space,2.224695,0.0,27.0,27.0,12.0,1.0,,,
,,,,,,,,,,,block_2/strong_t_81_3.wav,timbre,t,strong,81.0,1.276002308,16.49137646,,,YES,APPLE,1,,,,,,1,2020-09-16_17h20.10.296,kura-A2,2020.1.2,Win32,60,,,,,,,,,,,,,,"[""space"",""space"",""space"",""space""]","[0.6225049998611212,0.9035849999636412,1.3508500000461936,2.05542999971658]",space,0.737125,0.0,28.0,28.0,24.0,1.0,,,
,,,,,,,,,,,block_2/weak_t_105_3.wav,timbre,t,weak,105.0,1.911505731,13.14248079,,,YES,APPLE,1,,,,,,1,2020-09-16_17h20.10.296,kura-A2,2020.1.2,Win32,60,,,,,,,,,,,,,,"[""space"",""space"",""space"",""space"",""space"",""space"",""space"",""space"",""space"",""space"",""space"",""space"",""space"",""space"",""space""]","[0.9500649999827147,2.306744999717921,4.474314999766648,4.792304999660701,5.613194999750704,6.255214999895543,6.560644999612123,6.895920000039041,7.942724999971688,8.227414999622852,9.758930000010878,10.054109999909997,10.944859999697655,11.936174999922514,12.761844999622554]",space,1.066835,0.0,29.0,29.0,4.0,1.0,,,
,,,,,,,,,,,block_2/strong_t_119_3.wav,timbre,t,strong,119.0,2.177542179,13.00520658,,,YES,APPLE,1,,,,,,1,2020-09-16_17h20.10.296,kura-A2,2020.1.2,Win32,60,,,,,,,,,,,,,,"[""space"",""space"",""space"",""space"",""space"",""space"",""space"",""space"",""space"",""space"",""space"",""space""]","[3.302604999858886,3.5718149999156594,4.541035000234842,4.8583499998785555,6.915314999874681,7.205575000029057,9.363390000071377,9.619845000095665,11.034585000015795,11.285350000020117,12.438469999935478,12.697910000104457]",space,0.402835,0.0,30.0,30.0,28.0,1.0,,,
,,,,,,,,,,,block_2/weak_t_92_4.wav,timbre,t,weak,92.0,2.338363624,13.8208126,,,YES,APPLE,1,,,,,,1,2020-09-16_17h20.10.296,kura-A2,2020.1.2,Win32,60,,,,,,,,,,,,,,"[""space"",""space"",""space"",""space"",""space"",""space"",""space"",""space"",""space"",""space"",""space"",""space"",""space""]","[1.1494950000196695,4.577359999995679,4.893575000111014,5.8033650000579655,6.075020000338554,7.615080000367016,7.872075000312179,8.986615000292659,9.256535000167787,10.617795000318438,10.928019999992102,12.514154999982566,12.784440000075847]",space,0.18577,0.0,31.0,31.0,29.0,1.0,,,
,,,,,,,,,,,block_2/medium_t_119_3.wav,timbre,t,medium,119.0,1.894752713,10.65330147,,,YES,APPLE,1,,,,,,1,2020-09-16_17h20.10.296,kura-A2,2020.1.2,Win32,60,,,,,,,,,,,,,,"[""space"",""space"",""space"",""space"",""space"",""space"",""space"",""space"",""space"",""space""]","[0.38599999994039536,1.1878199996426702,1.4520899998024106,2.2880799998529255,2.591825000010431,3.3691249997355044,3.6693499996326864,4.596224999986589,5.590499999932945,9.425724999979138]",space,1.42251,0.0,32.0,32.0,37.0,1.0,,,
,,,,,,,,,,,block_2/weak_t_105_4.wav,timbre,t,weak,105.0,1.205192231,12.73516956,,,YES,APPLE,1,,,,,,1,2020-09-16_17h20.10.296,kura-A2,2020.1.2,Win32,60,,,,,,,,,,,,,,"[""space"",""space"",""space"",""space"",""space"",""space"",""space"",""space"",""space"",""space"",""space"",""space""]","[0.12577500008046627,1.0867949998937547,1.3553050002083182,2.891055000014603,3.171360000036657,6.049765000119805,7.106174999848008,7.370389999821782,8.961780000012368,9.983965000137687,12.041459999978542,12.314970000181347]",space,1.37166,0.0,33.0,33.0,7.0,1.0,,,
,,,,,,,,,,,block_2/medium_t_105_3.wav,timbre,t,medium,105.0,1.319167427,12.09599282,,,YES,APPLE,1,,,,,,1,2020-09-16_17h20.10.296,kura-A2,2020.1.2,Win32,60,,,,,,,,,,,,,,"[""space"",""space"",""space"",""space"",""space"",""space"",""space"",""space"",""space"",""space"",""space"",""space"",""space""]","[1.3283199998550117,2.3346099997870624,2.6241449997760355,3.5153250000439584,3.7702249996364117,5.041509999893606,5.346984999720007,7.127009999938309,7.4209449999034405,9.596764999907464,9.86636499967426,11.438484999816865,11.713909999933094]",space,1.087775,0.0,34.0,34.0,16.0,1.0,,,
,,,,,,,,,,,block_2/weak_t_119_3.wav,timbre,t,weak,119.0,2.134308914,11.54587354,,,YES,APPLE,1,,,,,,1,2020-09-16_17h20.10.296,kura-A2,2020.1.2,Win32,60,,,,,,,,,,,,,,"[""space"",""space"",""space"",""space"",""space"",""space"",""space"",""space"",""space"",""space"",""space""]","[2.6287700003013015,2.9237950001843274,4.940615000203252,5.209635000210255,7.248740000184625,8.024455000180751,8.319055000320077,9.24491999996826,9.534979999996722,10.436629999894649,10.726315000094473]",space,0.22131,0.0,35.0,35.0,13.0,1.0,,,
,,,,,,,,,,,block_2/medium_t_72_4.wav,timbre,t,medium,72.0,1.912133969,19.94959429,,,YES,APPLE,1,,,,,,1,2020-09-16_17h20.10.296,kura-A2,2020.1.2,Win32,60,,,,,,,,,,,,,,"[""space"",""space"",""space"",""space"",""space"",""space"",""space"",""space"",""space"",""space"",""space"",""space"",""space"",""space"",""space"",""space"",""space"",""space"",""space"",""space"",""space"",""space"",""space"",""space"",""space""]","[0.4432049999013543,2.1346800001338124,2.4105250001884997,3.4658800000324845,3.736649999860674,4.838744999840856,5.147360000293702,6.744595000054687,7.018029999919236,8.984730000142008,9.287125000264496,10.428145000245422,10.765275000128895,11.958570000249892,12.24508999986574,13.304229999892414,13.614845000207424,14.854594999924302,15.167669999878854,16.06135499989614,16.58267500018701,17.280139999929816,17.54740499984473,19.19167000008747,19.520490000024438]",space,0.59312,0.0,36.0,36.0,36.0,1.0,,,
,,,,,,,,,,,block_2/none_t_81_3.wav,timbre,t,none,81.0,2.3234515,21.58667145,,,YES,APPLE,1,,,,,,1,2020-09-16_17h20.10.296,kura-A2,2020.1.2,Win32,60,,,,,,,,,,,,,,"[""space"",""space"",""space"",""space"",""space"",""space"",""space"",""space"",""space"",""space"",""space"",""space"",""space"",""space"",""space"",""space"",""space"",""space"",""space"",""space"",""space"",""space"",""space"",""space"",""space"",""space"",""space"",""space"",""space""]","[1.3519100002013147,1.6489349999465048,3.318340000230819,3.6288700001314282,4.728465000167489,5.023955000098795,6.045570000074804,6.340130000375211,7.696225000079721,8.08797000022605,8.292860000394285,9.373810000251979,9.658645000308752,10.784590000286698,11.038500000257045,12.030484999995679,13.003845000173897,13.808610000181943,14.088045000098646,14.88312999997288,15.18426000000909,16.146205000113696,16.42557500023395,17.430614999961108,17.691490000113845,19.04209000011906,19.302600000053644,20.583744999952614,20.864340000320226]",space,2.843855,0.0,37.0,37.0,10.0,1.0,,,
,,,,,,,,,,,block_2/weak_t_81_3.wav,timbre,t,weak,81.0,1.745235196,18.01484971,,,YES,APPLE,1,,,,,,1,2020-09-16_17h20.10.296,kura-A2,2020.1.2,Win32,60,,,,,,,,,,,,,,"[""space"",""space"",""space"",""space"",""space"",""space"",""space"",""space"",""space"",""space"",""space"",""space"",""space"",""space"",""space"",""space"",""space"",""space"",""space"",""space"",""space"",""space"",""space"",""space""]","[0.4328899998217821,0.7131849997676909,1.4392749997787178,1.7542150001972914,2.6814399999566376,2.991419999860227,3.9414349999278784,4.266890000086278,4.992614999879152,5.258719999808818,6.419050000142306,6.714379999786615,9.893980000168085,10.159415000118315,11.394770000129938,11.66607500007376,12.610929999966174,12.905704999808222,13.664369999896735,14.082669999916106,15.618445000145584,15.87904499983415,17.196334999985993,17.440709999762475]",space,2.36006,0.0,38.0,38.0,6.0,1.0,,,
,,,,,,,,,,,block_2/strong_t_92_4.wav,timbre,t,strong,92.0,1.817525361,14.05856845,,,YES,APPLE,1,,,,,,1,2020-09-16_17h20.10.296,kura-A2,2020.1.2,Win32,60,,,,,,,,,,,,,,"[""space"",""space"",""space"",""space"",""space"",""space"",""space"",""space"",""space"",""space"",""space"",""space"",""space"",""space"",""space""]","[0.12876000022515655,1.5534350001253188,1.8256200002506375,2.691915000323206,2.982095000334084,3.87792000034824,4.158120000269264,5.239615000318736,5.680325000081211,6.455915000289679,6.74142500013113,8.498295000288635,9.223465000279248,9.503865000326186,13.988165000453591]",space,0.25446,0.0,39.0,39.0,9.0,1.0,,,
,,,,,,,,,,,,,,,,,,,,YES,APPLE,1,,,,,,1,2020-09-16_17h20.10.296,kura-A2,2020.1.2,Win32,60,,,,,,,,,,,,,,,,,,,,,,,space,19.767735,
