key_resp.keys,key_resp.rt,practice_taps.keys,practice_taps.rt,keyresp.keys,keyresp.rt,practice_stims_loop.thisRepN,practice_stims_loop.thisTrialN,practice_stims_loop.thisN,practice_stims_loop.thisIndex,practice_stims_loop.ran,sndfile,type,tempo,cond,version,delay,dur,Participant Initials,"If you are a MTurk worker, what is your MTurk worker ID?","If you are not an MTurk worker, please provide your email address",Are you wearing headphones?,What are the headphone make and model?,"How many years of musical training, if any, do you have?",Do you have any hearing problems? Please describe,What is your sex (f/m/decline)?,What is your age?,What is your handedness (R/L/ambi)?,Are you currently in a secure and quiet room without a possible interruption?,session,date,expName,psychopyVersion,OS,frameRate,instructions_prompt.keys,instructions_prompt.rt,block1_taps.keys,block1_taps.rt,key_resp_2.keys,key_resp_2.rt,trials.thisRepN,trials.thisTrialN,trials.thisN,trials.thisIndex,trials.ran,key_resp2.keys,key_resp2.rt,block2_taps.keys,block2_taps.rt,key_resp_3.keys,key_resp_3.rt,trials_2.thisRepN,trials_2.thisTrialN,trials_2.thisN,trials_2.thisIndex,trials_2.ran,key_resp_4.keys,key_resp_4.rt
space,8.591405,"[""space"",""space"",""space"",""space"",""space"",""space"",""space"",""space"",""space"",""space"",""space"",""space"",""space"",""space"",""space"",""space"",""space"",""space"",""space"",""space"",""space"",""space""]","[2.1050399999367073,2.666704999981448,3.2043099999427795,3.7435249999398366,4.238509999937378,4.7773449999513105,5.3265299999620765,5.854994999943301,6.382804999942891,6.909894999931566,7.447169999941252,7.96567999990657,8.50414999993518,9.033819999895059,9.549719999893568,10.066414999892004,10.582644999958575,11.120784999919124,11.670754999970086,12.176444999990053,12.704180000000633,13.221754999947734]",space,1.34743,0.0,0.0,0.0,1.0,1.0,block_2/none_t_119_1.wav,timbre,t,none,119.0,1.172164666,14.53370662,,,,yes,Final Audio E3000,18,no,f,33,R,yes,1,2020-10-01_10h17.21.641,kura-A1,2020.1.2,Win32,60,,,,,,,,,,,,,,,,,,,,,,,,
,,"[""space"",""space"",""space"",""space"",""space"",""space"",""space"",""space"",""space"",""space"",""space"",""space"",""space"",""space"",""space"",""space"",""space""]","[3.400205000070855,4.139790000044741,4.921289999969304,5.702064999961294,6.459755000076257,7.208240000065416,7.955569999990985,8.704075000016019,9.440584999974817,10.200520000071265,10.971149999997579,11.751320000039414,12.477605000021867,13.268615000066347,14.017439999966882,14.774130000034347,15.523240000009537]",space,1.05191,0.0,1.0,1.0,0.0,1.0,block_1/strong_n_81_2.wav,no,n,strong,81.0,1.560205308,16.72288105,,,,yes,Final Audio E3000,18,no,f,33,R,yes,1,2020-10-01_10h17.21.641,kura-A1,2020.1.2,Win32,60,,,,,,,,,,,,,,,,,,,,,,,,
,,"[""space"",""space"",""space"",""space"",""space"",""space""]","[4.262364999973215,5.2315899999812245,6.21909999998752,7.142964999889955,8.12095499993302,9.033964999951422]",space,0.99525,0.0,2.0,2.0,2.0,1.0,block_1/weak_n_119_1.wav,no,n,weak,119.0,1.75153664,11.06591306,,,,yes,Final Audio E3000,18,no,f,33,R,yes,1,2020-10-01_10h17.21.641,kura-A1,2020.1.2,Win32,60,,,,,,,,,,,,,,,,,,,,,,,,
,,"[""space"",""space"",""space"",""space"",""space"",""space"",""space"",""space"",""space"",""space"",""space""]","[1.9880099999718368,2.900595000013709,3.937610000022687,5.042064999928698,6.911149999941699,7.450564999948256,7.988209999981336,8.504809999954887,8.989244999946095,9.527814999921247,10.044359999941662]",space,0.69207,0.0,3.0,3.0,3.0,1.0,block_2/weak_t_119_2.wav,timbre,t,weak,119.0,2.180699762,12.4495433,,,,yes,Final Audio E3000,18,no,f,33,R,yes,1,2020-10-01_10h17.21.641,kura-A1,2020.1.2,Win32,60,,,,,,,,,,,,,,,,,,,,,,,,
,,,,,,,,,,,block_1/medium_n_72_2.wav,no,n,medium,72.0,1.502389402,18.53467965,,,,yes,Final Audio E3000,18,no,f,33,R,yes,1,2020-10-01_10h17.21.641,kura-A1,2020.1.2,Win32,60,space,5.448625,"[""space"",""space"",""space"",""space"",""space"",""space"",""space"",""space"",""space"",""space"",""space"",""space"",""space"",""space"",""space"",""space""]","[3.42945499997586,4.296924999915063,5.275959999999031,6.1330299999099225,6.990784999914467,7.857955000014044,8.751399999950081,9.638915000017732,10.51984999992419,11.366135000018403,12.277409999980591,13.149534999975003,13.983599999919534,14.861144999973476,15.76398499996867,16.597579999943264]",space,0.736435,0.0,0.0,0.0,14.0,1.0,,,,,,,,,,,,,
,,,,,,,,,,,block_1/medium_n_105_1.wav,no,n,medium,105.0,2.470231961,15.66819115,,,,yes,Final Audio E3000,18,no,f,33,R,yes,1,2020-10-01_10h17.21.641,kura-A1,2020.1.2,Win32,60,,,"[""space"",""space"",""space"",""space"",""space"",""space"",""space"",""space"",""space"",""space"",""space"",""space"",""space""]","[4.779769999906421,5.373459999915212,6.012694999924861,6.626439999905415,7.231524999951944,7.869874999974854,8.44183999998495,9.188540000002831,10.056630000006407,10.80536499992013,11.441809999989346,12.123494999948889,12.837549999938346]",space,1.021695,0.0,1.0,1.0,7.0,1.0,,,,,,,,,,,,,
,,,,,,,,,,,block_1/medium_n_81_2.wav,no,n,medium,81.0,2.424750646,16.12729033,,,,yes,Final Audio E3000,18,no,f,33,R,yes,1,2020-10-01_10h17.21.641,kura-A1,2020.1.2,Win32,60,,,"[""space"",""space"",""space"",""space"",""space"",""space"",""space"",""space"",""space"",""space"",""space"",""space"",""space"",""space"",""space"",""space""]","[2.920365000027232,3.5354900000384077,4.295840000035241,5.030365000013262,5.724905000068247,6.426700000069104,7.097010000026785,7.824365000007674,8.504949999973178,9.251950000063516,9.943859999999404,10.647809999994934,11.340970000019297,12.034355000010692,12.714475000044331,13.385535000008531]",space,1.198815,0.0,2.0,2.0,34.0,1.0,,,,,,,,,,,,,
,,,,,,,,,,,block_1/none_n_105_1.wav,no,n,none,105.0,1.562974393,15.68542337,,,,yes,Final Audio E3000,18,no,f,33,R,yes,1,2020-10-01_10h17.21.641,kura-A1,2020.1.2,Win32,60,,,"[""space"",""space"",""space"",""space"",""space"",""space"",""space"",""space"",""space"",""space"",""space"",""space"",""space"",""space"",""space"",""space""]","[4.356280000065453,4.903524999972433,5.474500000011176,6.01472500001546,6.59726499998942,7.123335000011139,7.695485000032932,8.245289999991655,8.863810000009835,9.43253500002902,10.034704999998212,10.627745000063442,11.221845000050962,12.055565000046045,12.845914999954402,13.87898999999743]",space,0.694275,0.0,3.0,3.0,0.0,1.0,,,,,,,,,,,,,
,,,,,,,,,,,block_1/none_n_105_2.wav,no,n,none,105.0,1.949697166,16.59064955,,,,yes,Final Audio E3000,18,no,f,33,R,yes,1,2020-10-01_10h17.21.641,kura-A1,2020.1.2,Win32,60,,,"[""space"",""space"",""space"",""space"",""space"",""space"",""space"",""space"",""space"",""space"",""space"",""space"",""space"",""space"",""space"",""space""]","[4.566829999908805,5.0719950000057,5.720614999998361,6.391979999956675,7.084519999916665,7.698344999924302,8.314889999921434,8.906829999992624,9.522524999920279,10.071239999961108,10.774084999924526,11.456944999983534,12.170864999992773,12.87320999999065,13.564335000002757,14.268734999932349]",space,1.11054,0.0,4.0,4.0,4.0,1.0,,,,,,,,,,,,,
,,,,,,,,,,,block_1/none_n_72_1.wav,no,n,none,72.0,1.339316998,21.90480453,,,,yes,Final Audio E3000,18,no,f,33,R,yes,1,2020-10-01_10h17.21.641,kura-A1,2020.1.2,Win32,60,,,"[""space"",""space"",""space"",""space"",""space"",""space"",""space"",""space"",""space"",""space"",""space"",""space"",""space"",""space"",""space"",""space"",""space"",""space""]","[3.2472800000105053,3.8890949999913573,4.570390000008047,5.296310000005178,6.054684999980964,6.790795000037178,7.474004999967292,8.1872999999905,8.912699999986216,9.660679999971762,10.42000000004191,11.155039999983273,11.871739999973215,12.530314999981783,13.311080000014044,18.80845999997109,19.523324999958277,20.226294999942183]",space,5.01762,0.0,5.0,5.0,18.0,1.0,,,,,,,,,,,,,
,,,,,,,,,,,block_1/strong_n_105_2.wav,no,n,strong,105.0,2.465472491,15.61086932,,,,yes,Final Audio E3000,18,no,f,33,R,yes,1,2020-10-01_10h17.21.641,kura-A1,2020.1.2,Win32,60,,,"[""space"",""space"",""space"",""space"",""space"",""space"",""space"",""space"",""space"",""space"",""space"",""space"",""space"",""space"",""space"",""space"",""space""]","[3.164754999917932,3.57856999989599,4.250604999950156,4.920494999969378,5.545194999896921,6.227189999888651,6.875939999939874,7.524774999939837,8.205994999967515,8.843215000000782,9.504099999903701,10.184034999925643,10.867649999912828,11.493984999950044,12.153934999951161,12.824519999907352,13.451894999947399]",space,1.30768,0.0,6.0,6.0,9.0,1.0,,,,,,,,,,,,,
,,,,,,,,,,,block_1/weak_n_72_2.wav,no,n,weak,72.0,2.426446225,22.38744396,,,,yes,Final Audio E3000,18,no,f,33,R,yes,1,2020-10-01_10h17.21.641,kura-A1,2020.1.2,Win32,60,,,"[""space"",""space"",""space"",""space"",""space"",""space"",""space"",""space"",""space"",""space"",""space"",""space"",""space"",""space"",""space"",""space""]","[4.087829999974929,5.011149999918416,6.10016499995254,7.089054999989457,8.200549999950454,9.221529999980703,10.223114999942482,11.256040000007488,12.245155000011437,13.266964999958873,14.300754999974743,15.323159999912605,16.445119999931194,17.46724999998696,18.480359999928623,19.52354500000365]",space,2.516885,0.0,7.0,7.0,11.0,1.0,,,,,,,,,,,,,
,,,,,,,,,,,block_1/medium_n_92_1.wav,no,n,medium,92.0,2.383742627,17.50115759,,,,yes,Final Audio E3000,18,no,f,33,R,yes,1,2020-10-01_10h17.21.641,kura-A1,2020.1.2,Win32,60,,,"[""space"",""space"",""space"",""space"",""space"",""space"",""space"",""space"",""space"",""space"",""space"",""space""]","[6.109440000029281,6.84519999998156,7.637879999936558,8.461239999975078,9.242544999928214,10.011880000005476,10.837300000013784,11.61762000003364,12.420524999964982,13.234369999961928,14.036459999973886,14.81802499992773]",space,0.93863,0.0,8.0,8.0,5.0,1.0,,,,,,,,,,,,,
,,,,,,,,,,,block_1/strong_n_72_2.wav,no,n,strong,72.0,1.592838259,18.92930084,,,,yes,Final Audio E3000,18,no,f,33,R,yes,1,2020-10-01_10h17.21.641,kura-A1,2020.1.2,Win32,60,,,"[""space"",""space"",""space"",""space"",""space"",""space"",""space"",""space"",""space"",""space"",""space"",""space"",""space"",""space"",""space"",""space"",""space""]","[3.4583450000500306,4.347090000053868,5.29307500005234,6.172725000069477,7.075335000059567,7.9754350000293925,8.888885000022128,9.745884999982081,10.657269999966957,11.505635000066832,12.417815000051633,13.286425000056624,14.188045000075363,15.068444999982603,15.99109500006307,16.891784999985248,17.79420000000391]",space,1.367725,0.0,9.0,9.0,30.0,1.0,,,,,,,,,,,,,
,,,,,,,,,,,block_1/none_n_92_1.wav,no,n,none,92.0,1.720415177,18.30862379,,,,yes,Final Audio E3000,18,no,f,33,R,yes,1,2020-10-01_10h17.21.641,kura-A1,2020.1.2,Win32,60,,,"[""space"",""space"",""space"",""space"",""space"",""space"",""space"",""space"",""space"",""space"",""space"",""space"",""space"",""space"",""space"",""space"",""space"",""space"",""space"",""space"",""space""]","[4.45793000003323,5.05264500004705,5.657520000007935,6.239935000077821,6.868075000005774,7.438945000059903,8.021599999978207,8.592940000002272,9.253635000088252,9.868115000077523,10.428675000090152,11.02312000002712,11.704540000064299,12.275020000059158,12.870620000059716,13.46440000005532,14.176519999979064,14.772705000010319,15.442275000037625,16.045945000019856,16.727309999987483]",space,2.79166,0.0,10.0,10.0,20.0,1.0,,,,,,,,,,,,,
,,,,,,,,,,,block_1/weak_n_92_1.wav,no,n,weak,92.0,2.164314711,15.90903126,,,,yes,Final Audio E3000,18,no,f,33,R,yes,1,2020-10-01_10h17.21.641,kura-A1,2020.1.2,Win32,60,,,"[""space"",""space"",""space"",""space"",""space"",""space"",""space"",""space"",""space"",""space"",""space"",""space"",""space"",""space"",""space"",""space""]","[4.183945000055246,4.817985000088811,5.4676500000059605,6.148405000101775,6.830010000034235,7.511664999998175,8.160710000083782,8.822470000013709,9.491555000073276,10.190890000085346,10.757080000010319,11.41517500008922,12.096455000108108,12.735675000003539,13.395075000007637,14.07658000010997]",space,1.24203,0.0,11.0,11.0,2.0,1.0,,,,,,,,,,,,,
,,,,,,,,,,,block_1/strong_n_119_1.wav,no,n,strong,119.0,2.241065743,12.1104535,,,,yes,Final Audio E3000,18,no,f,33,R,yes,1,2020-10-01_10h17.21.641,kura-A1,2020.1.2,Win32,60,,,"[""space"",""space"",""space"",""space"",""space"",""space"",""space"",""space"",""space"",""space"",""space"",""space"",""space"",""space"",""space"",""space""]","[2.4129050000337884,2.941770000034012,3.4465049999998882,3.9851550000021234,4.45890500000678,4.974610000033863,5.4914600000483915,6.019100000034086,6.524040000047535,7.031115000019781,7.558779999963008,8.074750000028871,8.570560000021942,9.074830000055954,9.581159999943338,10.086690000025555]",space,0.87235,0.0,12.0,12.0,19.0,1.0,,,,,,,,,,,,,
,,,,,,,,,,,block_1/medium_n_72_1.wav,no,n,medium,72.0,1.188923945,17.15940014,,,,yes,Final Audio E3000,18,no,f,33,R,yes,1,2020-10-01_10h17.21.641,kura-A1,2020.1.2,Win32,60,,,"[""space"",""space"",""space"",""space"",""space"",""space"",""space"",""space"",""space"",""space"",""space"",""space"",""space"",""space"",""space"",""space""]","[3.5462700000498444,4.361789999995381,5.130415000021458,5.932510000071488,6.757385000004433,7.527660000021569,8.37436500005424,9.167765000020154,9.945984999998473,10.747590000042692,11.56144000007771,12.29928999999538,13.068889999995008,13.89289999997709,14.706044999998994,15.542360000079498]",space,1.01383,0.0,13.0,13.0,10.0,1.0,,,,,,,,,,,,,
,,,,,,,,,,,block_1/none_n_81_2.wav,no,n,none,81.0,1.043160571,20.19454379,,,,yes,Final Audio E3000,18,no,f,33,R,yes,1,2020-10-01_10h17.21.641,kura-A1,2020.1.2,Win32,60,,,"[""space"",""space"",""space"",""space"",""space"",""space"",""space"",""space"",""space"",""space"",""space"",""space"",""space"",""space"",""space"",""space"",""space"",""space"",""space"",""space""]","[5.4345200000097975,6.048764999955893,6.688055000035092,7.258410000009462,7.853000000002794,8.490974999964237,9.174159999936819,9.941095000016503,10.601125000044703,11.31870499998331,12.119225000031292,12.921740000019781,13.757214999990538,14.493340000044554,15.252399999997579,15.901130000012927,16.604395000031218,17.286049999995157,18.263054999988526,19.031779999961145]",space,4.35611,0.0,14.0,14.0,28.0,1.0,,,,,,,,,,,,,
,,,,,,,,,,,block_1/weak_n_72_1.wav,no,n,weak,72.0,1.347131367,16.2574715,,,,yes,Final Audio E3000,18,no,f,33,R,yes,1,2020-10-01_10h17.21.641,kura-A1,2020.1.2,Win32,60,,,"[""space"",""space"",""space"",""space"",""space"",""space"",""space"",""space"",""space"",""space"",""space"",""space"",""space"",""space"",""space"",""space""]","[3.4424449999351054,4.2015400000382215,4.937900000018999,5.673734999960288,6.410165000008419,7.103630000026897,7.862785000004806,8.587595000048168,9.302524999948218,10.09381500002928,10.863299999968149,11.688304999959655,12.4030849999981,13.072934999945574,13.778459999943152,14.490985000040382]",space,1.774895,0.0,15.0,15.0,15.0,1.0,,,,,,,,,,,,,
,,,,,,,,,,,block_1/medium_n_119_2.wav,no,n,medium,119.0,1.29591098,10.35291778,,,,yes,Final Audio E3000,18,no,f,33,R,yes,1,2020-10-01_10h17.21.641,kura-A1,2020.1.2,Win32,60,,,"[""space"",""space"",""space"",""space"",""space"",""space"",""space"",""space"",""space"",""space"",""space"",""space"",""space""]","[4.101290000020526,4.453719999990426,4.859040000010282,5.256509999977425,5.695380000048317,6.135514999972656,6.542634999961592,6.9263600000413135,7.367895000032149,7.783795000053942,8.200429999968037,8.662209999980405,9.169540000031702]",space,1.439625,0.0,16.0,16.0,21.0,1.0,,,,,,,,,,,,,
,,,,,,,,,,,block_1/medium_n_81_1.wav,no,n,medium,81.0,1.755173496,15.75716896,,,,yes,Final Audio E3000,18,no,f,33,R,yes,1,2020-10-01_10h17.21.641,kura-A1,2020.1.2,Win32,60,,,"[""space"",""space"",""space"",""space"",""space"",""space"",""space"",""space"",""space"",""space"",""space"",""space"",""space"",""space"",""space"",""space"",""space""]","[3.281620000023395,3.934095000033267,4.5774400000227615,5.314080000040121,5.974644999951124,6.610890000010841,7.292684999993071,7.962889999966137,8.770569999935105,9.535539999953471,10.25089000002481,10.88855999999214,11.570635000010952,12.240609999978915,12.87832499993965,13.526554999989457,14.318149999948218]",space,1.58641,0.0,17.0,17.0,31.0,1.0,,,,,,,,,,,,,
,,,,,,,,,,,block_1/weak_n_119_2.wav,no,n,weak,119.0,2.480463378,12.4427763,,,,yes,Final Audio E3000,18,no,f,33,R,yes,1,2020-10-01_10h17.21.641,kura-A1,2020.1.2,Win32,60,,,"[""space"",""space"",""space"",""space"",""space"",""space"",""space"",""space"",""space"",""space"",""space"",""space"",""space"",""space"",""space"",""space"",""space""]","[2.1076250000623986,2.5699050000403076,3.098685000091791,3.592750000068918,4.097950000083074,4.614300000015646,5.109630000079051,5.604215000057593,6.076980000012554,6.528595000039786,6.967135000042617,7.440275000059046,7.902820000075735,8.373385000042617,8.846370000042953,9.319640000001527,9.803955000010319]",space,1.113095,0.0,18.0,18.0,36.0,1.0,,,,,,,,,,,,,
,,,,,,,,,,,block_1/none_n_92_2.wav,no,n,none,92.0,1.514588051,14.14982615,,,,yes,Final Audio E3000,18,no,f,33,R,yes,1,2020-10-01_10h17.21.641,kura-A1,2020.1.2,Win32,60,,,"[""space"",""space"",""space"",""space"",""space"",""space"",""space"",""space"",""space"",""space"",""space"",""space"",""space"",""space""]","[4.713199999998324,5.251264999969862,5.746099999989383,6.38394500000868,6.9447650000220165,7.586104999994859,8.153915000031702,8.713914999971166,9.28655499999877,9.858840000000782,10.473175000050105,11.101965000038035,11.706265000044368,12.363680000067689]",space,1.2986,0.0,19.0,19.0,23.0,1.0,,,,,,,,,,,,,
,,,,,,,,,,,block_1/medium_n_119_1.wav,no,n,medium,119.0,1.649869951,11.21667267,,,,yes,Final Audio E3000,18,no,f,33,R,yes,1,2020-10-01_10h17.21.641,kura-A1,2020.1.2,Win32,60,,,"[""space"",""space"",""space"",""space"",""space"",""space"",""space"",""space"",""space"",""space"",""space"",""space"",""space"",""space"",""space""]","[2.836989999981597,3.308765000081621,3.793155000079423,4.310129999998026,4.814795000012964,5.322065000073053,5.837365000043064,6.343185000005178,6.850680000032298,7.3106250000419095,7.773030000040308,8.289140000008047,8.784265000023879,9.301010000053793,9.795790000003763]",space,1.504485,0.0,20.0,20.0,24.0,1.0,,,,,,,,,,,,,
,,,,,,,,,,,block_1/weak_n_81_1.wav,no,n,weak,81.0,1.583230306,14.42368382,,,,yes,Final Audio E3000,18,no,f,33,R,yes,1,2020-10-01_10h17.21.641,kura-A1,2020.1.2,Win32,60,,,"[""space"",""space"",""space"",""space"",""space"",""space"",""space"",""space"",""space"",""space"",""space"",""space"",""space"",""space"",""space""]","[4.388995000044815,4.984740000101738,5.597550000064075,6.146745000034571,6.729920000070706,7.367655000067316,7.972715000039898,8.609255000017583,9.269125000108033,9.9187099999981,10.545485000009649,11.182230000034906,11.841265000053681,12.479825000045821,13.095079999999143]",space,1.29596,0.0,21.0,21.0,35.0,1.0,,,,,,,,,,,,,
,,,,,,,,,,,block_1/none_n_72_2.wav,no,n,none,72.0,1.052198767,23.70630308,,,,yes,Final Audio E3000,18,no,f,33,R,yes,1,2020-10-01_10h17.21.641,kura-A1,2020.1.2,Win32,60,,,"[""space"",""space"",""space"",""space"",""space"",""space"",""space"",""space"",""space"",""space"",""space"",""space"",""space"",""space"",""space"",""space"",""space"",""space"",""space""]","[5.589329999987967,6.336415000027046,7.072500000009313,7.755020000040531,8.536940000019968,9.217940000002272,10.007925000041723,10.800915000028908,11.559020000044256,12.285015000030398,12.943304999964312,13.714329999987967,14.571230000001378,15.373510000063106,16.108869999996386,16.82376000005752,17.668880000011995,18.426409999956377,19.384300000034273]",space,1.71781,0.0,22.0,22.0,16.0,1.0,,,,,,,,,,,,,
,,,,,,,,,,,block_1/medium_n_105_2.wav,no,n,medium,105.0,2.100494097,12.22140113,,,,yes,Final Audio E3000,18,no,f,33,R,yes,1,2020-10-01_10h17.21.641,kura-A1,2020.1.2,Win32,60,,,"[""space"",""space"",""space"",""space"",""space"",""space"",""space"",""space"",""space"",""space"",""space"",""space"",""space"",""space""]","[4.056619999930263,4.24277000001166,4.58406499994453,5.074870000011288,5.603839999996126,6.1542650000192225,6.6588299999712035,7.167219999944791,7.670919999945909,8.20871499995701,8.758694999967702,9.352244999958202,9.857064999989234,10.3623399999924]",space,0.6838,0.0,23.0,23.0,3.0,1.0,,,,,,,,,,,,,
,,,,,,,,,,,block_1/weak_n_119_1.wav,no,n,weak,119.0,2.415285966,11.72966238,,,,yes,Final Audio E3000,18,no,f,33,R,yes,1,2020-10-01_10h17.21.641,kura-A1,2020.1.2,Win32,60,,,"[""space"",""space"",""space"",""space"",""space"",""space"",""space"",""space""]","[5.799069999950007,6.255499999970198,6.750194999971427,7.2562599999364465,7.752379999961704,8.234319999930449,8.695130000007339,9.145299999974668]",space,0.958925,0.0,24.0,24.0,38.0,1.0,,,,,,,,,,,,,
,,,,,,,,,,,block_1/weak_n_92_2.wav,no,n,weak,92.0,1.763778337,14.00087584,,,,yes,Final Audio E3000,18,no,f,33,R,yes,1,2020-10-01_10h17.21.641,kura-A1,2020.1.2,Win32,60,,,"[""space"",""space"",""space"",""space"",""space"",""space"",""space"",""space"",""space"",""space"",""space"",""space"",""space"",""space"",""space"",""space""]","[2.816705000004731,3.3866949999937788,4.013039999990724,4.632549999980256,5.250155000016093,5.882605000049807,6.485394999966957,7.077380000031553,7.650179999996908,8.256015000049956,8.849045000039041,9.497250000014901,10.112345000030473,10.732350000063889,11.310460000066087,11.915785000077449]",space,0.913175,0.0,25.0,25.0,6.0,1.0,,,,,,,,,,,,,
,,,,,,,,,,,block_1/strong_n_105_1.wav,no,n,strong,105.0,1.182925411,14.58124741,,,,yes,Final Audio E3000,18,no,f,33,R,yes,1,2020-10-01_10h17.21.641,kura-A1,2020.1.2,Win32,60,,,"[""space"",""space"",""space"",""space"",""space"",""space"",""space"",""space"",""space"",""space"",""space"",""space"",""space"",""space"",""space"",""space"",""space""]","[2.895204999949783,3.5768199999583885,4.270185000030324,4.9625900000100955,5.634259999962524,6.326630000025034,6.986264999955893,7.656369999982417,8.352364999940619,9.031124999979511,9.7016949999379,10.3731699999189,11.04255499993451,11.735759999952279,12.406499999924563,13.065724999993108,13.770619999966584]",space,1.543435,0.0,26.0,26.0,13.0,1.0,,,,,,,,,,,,,
,,,,,,,,,,,block_1/none_n_119_1.wav,no,n,none,119.0,2.383659144,14.54474758,,,,yes,Final Audio E3000,18,no,f,33,R,yes,1,2020-10-01_10h17.21.641,kura-A1,2020.1.2,Win32,60,,,"[""space"",""space"",""space"",""space"",""space"",""space"",""space"",""space"",""space"",""space""]","[4.641464999993332,5.377549999975599,6.213069999939762,7.225340000004508,8.081314999959432,9.051384999998845,9.909724999917671,10.623474999913014,11.425984999979846,12.184444999904372]",space,1.40507,0.0,27.0,27.0,22.0,1.0,,,,,,,,,,,,,
,,,,,,,,,,,block_1/weak_n_81_2.wav,no,n,weak,81.0,1.567957537,13.4515403,,,,yes,Final Audio E3000,18,no,f,33,R,yes,1,2020-10-01_10h17.21.641,kura-A1,2020.1.2,Win32,60,,,"[""space"",""space"",""space"",""space"",""space"",""space"",""space"",""space"",""space"",""space"",""space"",""space"",""space"",""space"",""space"",""space""]","[2.8348349999869242,3.450360000017099,3.989575000014156,4.517229999997653,5.120755000039935,5.692344999988563,6.296855000080541,6.8700149999931455,7.440954999998212,8.067260000039823,8.694400000036694,9.309995000017807,9.871340000070632,10.46434499998577,11.037650000071153,11.630405000061728]",space,1.54317,0.0,28.0,28.0,32.0,1.0,,,,,,,,,,,,,
,,,,,,,,,,,block_1/medium_n_92_2.wav,no,n,medium,92.0,1.321097132,12.85819464,,,,yes,Final Audio E3000,18,no,f,33,R,yes,1,2020-10-01_10h17.21.641,kura-A1,2020.1.2,Win32,60,,,"[""space"",""space"",""space"",""space"",""space"",""space"",""space"",""space"",""space"",""space"",""space"",""space""]","[4.520544999977574,5.079644999932498,5.6618149999994785,6.27890999999363,6.881959999911487,7.488840000005439,8.104124999954365,8.733554999926127,9.311905000009574,9.993789999978617,10.674929999979213,11.323499999940395]",space,1.10712,0.0,29.0,29.0,1.0,1.0,,,,,,,,,,,,,
,,,,,,,,,,,block_1/none_n_119_2.wav,no,n,none,119.0,2.128313718,13.68559263,,,,yes,Final Audio E3000,18,no,f,33,R,yes,1,2020-10-01_10h17.21.641,kura-A1,2020.1.2,Win32,60,,,"[""space"",""space"",""space"",""space"",""space"",""space"",""space"",""space"",""space"",""space"",""space"",""space"",""space"",""space"",""space"",""space"",""space"",""space"",""space"",""space""]","[3.160310000064783,3.533709999988787,3.9304700000211596,4.346595000009984,4.763685000012629,5.181259999983013,5.589894999982789,6.0064900000579655,6.43480000004638,6.852754999999888,7.291639999952167,7.743709999951534,8.238679999951273,8.644674999988638,9.117665000027046,9.557295000064187,10.008024999988265,10.458400000003166,10.931025000056252,11.34878999995999]",space,0.96226,0.0,30.0,30.0,25.0,1.0,,,,,,,,,,,,,
,,,,,,,,,,,block_1/strong_n_92_2.wav,no,n,strong,92.0,2.185421936,15.68737205,,,,yes,Final Audio E3000,18,no,f,33,R,yes,1,2020-10-01_10h17.21.641,kura-A1,2020.1.2,Win32,60,,,"[""space"",""space"",""space"",""space"",""space"",""space"",""space"",""space"",""space"",""space"",""space"",""space"",""space"",""space"",""space"",""space"",""space""]","[2.632880000048317,3.348850000067614,4.08237000007648,4.808795000077225,5.457155000069179,6.161740000010468,6.8430500000249594,7.569935000035912,8.295115000102669,8.998800000059418,9.669455000082962,10.383460000040941,11.086840000003576,11.74597500008531,12.46097000001464,13.165680000092834,13.849235000088811]",space,2.167515,0.0,31.0,31.0,39.0,1.0,,,,,,,,,,,,,
,,,,,,,,,,,block_1/none_n_81_1.wav,no,n,none,81.0,1.16825706,17.43084209,,,,yes,Final Audio E3000,18,no,f,33,R,yes,1,2020-10-01_10h17.21.641,kura-A1,2020.1.2,Win32,60,,,"[""space"",""space"",""space"",""space"",""space"",""space"",""space"",""space"",""space"",""space"",""space"",""space"",""space"",""space"",""space"",""space"",""space"",""space"",""space"",""space"",""space"",""space""]","[4.527065000031143,5.088839999982156,5.650170000037178,6.197820000001229,6.737025000038557,7.27710000006482,7.79253500001505,8.354425000026822,8.891730000032112,9.48678999999538,10.025615000049584,10.586535000009462,11.079380000010133,11.595670000067912,12.0804749999661,12.630160000058822,13.169130000052974,13.806534999981523,14.37690500007011,14.917164999991655,15.467200000071898,16.052035000058822]",space,3.557165,0.0,32.0,32.0,29.0,1.0,,,,,,,,,,,,,
,,,,,,,,,,,block_1/strong_n_81_1.wav,no,n,strong,81.0,1.003745174,15.96537783,,,,yes,Final Audio E3000,18,no,f,33,R,yes,1,2020-10-01_10h17.21.641,kura-A1,2020.1.2,Win32,60,,,"[""space"",""space"",""space"",""space"",""space"",""space"",""space"",""space"",""space"",""space"",""space"",""space"",""space"",""space"",""space"",""space"",""space"",""space""]","[2.5571299999719486,3.2724450000096112,4.053230000077747,4.800600000075065,5.537510000052862,6.262690000003204,7.021249999990687,7.757390000042506,8.538150000036694,9.297135000000708,10.06738999998197,10.80390499997884,11.517929999972694,12.267534999991767,13.02594500000123,13.795285000000149,14.576379999984056,15.312320000026375]",space,1.165305,0.0,33.0,33.0,12.0,1.0,,,,,,,,,,,,,
,,,,,,,,,,,block_1/strong_n_92_1.wav,no,n,strong,92.0,1.355123487,13.84328675,,,,yes,Final Audio E3000,18,no,f,33,R,yes,1,2020-10-01_10h17.21.641,kura-A1,2020.1.2,Win32,60,,,"[""space"",""space"",""space"",""space"",""space"",""space"",""space"",""space"",""space"",""space"",""space"",""space"",""space"",""space"",""space"",""space"",""space""]","[2.8459100000327453,3.4400949999690056,4.077754999976605,4.7139599999645725,5.330885000061244,5.957605000003241,6.5393300000578165,7.144360000034794,7.8051350000314415,8.408015000051819,9.047145000076853,9.640490000019781,10.243780000018887,10.859520000056364,11.498325000051409,12.13608500000555,12.741174999973737]",space,0.899015,0.0,34.0,34.0,37.0,1.0,,,,,,,,,,,,,
,,,,,,,,,,,block_1/strong_n_81_2.wav,no,n,strong,81.0,1.452361164,16.6150369,,,,yes,Final Audio E3000,18,no,f,33,R,yes,1,2020-10-01_10h17.21.641,kura-A1,2020.1.2,Win32,60,,,"[""space"",""space"",""space"",""space"",""space"",""space"",""space"",""space"",""space"",""space"",""space"",""space"",""space"",""space"",""space"",""space"",""space"",""space"",""space""]","[1.9389499999815598,2.66418999992311,3.3773049999726936,4.124959999928251,4.9064249999355525,5.620690000010654,6.423244999954477,7.181054999935441,7.961724999942817,8.750419999938458,9.468029999989085,10.205835000029765,10.942309999954887,11.68984000000637,12.46964000002481,13.227744999923743,13.986569999950007,14.75593999994453,15.525034999940544]",space,1.085585,0.0,35.0,35.0,8.0,1.0,,,,,,,,,,,,,
,,,,,,,,,,,block_1/weak_n_105_1.wav,no,n,weak,105.0,1.735757625,11.75240162,,,,yes,Final Audio E3000,18,no,f,33,R,yes,1,2020-10-01_10h17.21.641,kura-A1,2020.1.2,Win32,60,,,"[""space"",""space"",""space"",""space"",""space"",""space"",""space"",""space"",""space"",""space"",""space"",""space"",""space"",""space"",""space"",""space"",""space"",""space""]","[2.0004850000841543,2.4950449999887496,2.991165000014007,3.500564999994822,3.970130000030622,4.452825000043958,4.892575000063516,5.364920000080019,5.891855000052601,6.409865000052378,6.926540000014938,7.409845000016503,7.893390000099316,8.355125000001863,8.827625000034459,9.323130000033416,9.785800000070594,10.278330000001006]",space,1.336235,0.0,36.0,36.0,27.0,1.0,,,,,,,,,,,,,
,,,,,,,,,,,block_1/strong_n_119_2.wav,no,n,strong,119.0,2.088876798,11.35100832,,,,yes,Final Audio E3000,18,no,f,33,R,yes,1,2020-10-01_10h17.21.641,kura-A1,2020.1.2,Win32,60,,,"[""space"",""space"",""space"",""space"",""space"",""space"",""space"",""space"",""space"",""space"",""space"",""space"",""space"",""space"",""space"",""space"",""space"",""space"",""space""]","[2.0000449999934062,2.449985000072047,2.9335900000296533,3.4171550000319257,3.889285000041127,4.385810000007041,4.813560000038706,5.298520000069402,5.758960000006482,6.267285000067204,6.7166549999965355,7.167845000047237,7.605970000033267,8.100750000099652,8.60034500004258,9.069195000105537,9.497040000045672,9.938880000030622,10.45422499999404]",space,5.59169,0.0,37.0,37.0,17.0,1.0,,,,,,,,,,,,,
,,,,,,,,,,,block_1/strong_n_72_1.wav,no,n,strong,72.0,1.207870441,16.92877747,,,,yes,Final Audio E3000,18,no,f,33,R,yes,1,2020-10-01_10h17.21.641,kura-A1,2020.1.2,Win32,60,,,"[""space"",""space"",""space"",""space"",""space"",""space"",""space"",""space"",""space"",""space"",""space"",""space"",""space"",""space"",""space"",""space"",""space"",""space""]","[2.3570850000251085,3.1931600000243634,4.000170000013895,4.808345000026748,5.609019999974407,6.412269999971613,7.237680000020191,8.017379999975674,8.831624999991618,9.610774999950081,10.424980000010692,11.260439999983646,12.074159999960102,12.876425000024028,13.658384999958798,14.481640000012703,15.273780000046827,16.0555699999677]",space,1.440495,0.0,38.0,38.0,33.0,1.0,,,,,,,,,,,,,
,,,,,,,,,,,block_1/weak_n_105_2.wav,no,n,weak,105.0,1.25756433,14.19910628,,,,yes,Final Audio E3000,18,no,f,33,R,yes,1,2020-10-01_10h17.21.641,kura-A1,2020.1.2,Win32,60,,,"[""space"",""space"",""space"",""space"",""space"",""space"",""space"",""space"",""space"",""space"",""space"",""space"",""space""]","[4.846350000007078,5.484059999929741,6.176029999973252,6.916944999946281,7.6384199999738485,8.321074999985285,8.990774999954738,9.661749999970198,10.267830000026152,10.837869999930263,11.467635000008158,12.102379999938421,12.729715000023134]",space,1.44356,0.0,39.0,39.0,26.0,1.0,,,,,,,,,,,,,
,,,,,,,,,,,block_2/none_t_119_2.wav,timbre,t,none,119.0,1.129624063,11.70173291,,,,yes,Final Audio E3000,18,no,f,33,R,yes,1,2020-10-01_10h17.21.641,kura-A1,2020.1.2,Win32,60,,,,,,,,,,,,space,85.953775,"[""space"",""space"",""space"",""space"",""space"",""space"",""space"",""space"",""space"",""space"",""space"",""space"",""space"",""space"",""space"",""space"",""space"",""space""]","[3.1029400000115857,3.495965000009164,3.9570499999681488,4.419475000002421,4.847979999962263,5.300105000031181,5.76679000002332,6.233450000057928,6.683489999966696,7.1129750000545755,7.596514999982901,8.05967500002589,8.531294999993406,8.983845000038855,9.443835000041872,9.895144999958575,10.357154999976046,10.786775000044145]",space,1.597575,0.0,0.0,0.0,35.0,1.0,,
,,,,,,,,,,,block_2/strong_t_105_1.wav,timbre,t,strong,105.0,2.348438476,14.79111421,,,,yes,Final Audio E3000,18,no,f,33,R,yes,1,2020-10-01_10h17.21.641,kura-A1,2020.1.2,Win32,60,,,,,,,,,,,,,,"[""space"",""space"",""space"",""space"",""space"",""space"",""space"",""space"",""space"",""space"",""space"",""space"",""space"",""space"",""space"",""space"",""space""]","[2.3641250000800937,3.0004200000548735,3.617395000066608,4.264970000018366,4.902409999980591,5.573195000062697,6.222375000012107,6.8821800000732765,7.508435000083409,8.135605000075884,8.784220000030473,9.43424000008963,10.080675000092015,10.729655000031926,11.402125000022352,12.039175000041723,12.68385999999009]",space,0.97611,0.0,1.0,1.0,20.0,1.0,,
,,,,,,,,,,,block_2/strong_t_81_2.wav,timbre,t,strong,81.0,1.682183604,15.83846478,,,,yes,Final Audio E3000,18,no,f,33,R,yes,1,2020-10-01_10h17.21.641,kura-A1,2020.1.2,Win32,60,,,,,,,,,,,,,,"[""space"",""space"",""space"",""space"",""space"",""space"",""space"",""space"",""space"",""space"",""space"",""space"",""space"",""space"",""space"",""space"",""space"",""space"",""space""]","[1.5798049999866635,2.2609849999425933,2.9506599999731407,3.650359999970533,4.3395800000289455,5.108434999943711,5.846709999954328,6.551005000015721,7.296025000046939,8.001444999943487,8.72550499998033,9.41906999994535,10.134074999950826,10.837129999999888,11.552830000058748,12.3217949999962,13.036525000003166,13.773049999959767,14.517669999971986]",space,0.885335,0.0,2.0,2.0,26.0,1.0,,
,,,,,,,,,,,block_2/medium_t_81_1.wav,timbre,t,medium,81.0,1.868021577,16.02697849,,,,yes,Final Audio E3000,18,no,f,33,R,yes,1,2020-10-01_10h17.21.641,kura-A1,2020.1.2,Win32,60,,,,,,,,,,,,,,"[""space"",""space"",""space"",""space"",""space"",""space"",""space"",""space"",""space"",""space"",""space"",""space"",""space"",""space"",""space"",""space""]","[2.8251199999358505,3.550304999924265,4.320130000007339,4.990099999937229,5.737895000027493,6.452404999989085,7.177354999934323,7.925350000034086,8.683744999929331,9.39839500002563,10.158064999966882,10.873365000006743,11.588159999926575,12.323665000032634,13.072359999991022,13.81725500000175]",space,10.869885,0.0,3.0,3.0,4.0,1.0,,
,,,,,,,,,,,block_2/none_t_92_2.wav,timbre,t,none,92.0,1.981316359,18.5242642,,,,yes,Final Audio E3000,18,no,f,33,R,yes,1,2020-10-01_10h17.21.641,kura-A1,2020.1.2,Win32,60,,,,,,,,,,,,,,"[""space"",""space"",""space"",""space"",""space"",""space"",""space"",""space"",""space"",""space"",""space"",""space"",""space"",""space"",""space""]","[3.0219349999679253,3.9680200000293553,5.033794999937527,5.985110000008717,6.891439999919385,7.783764999941923,8.69569500000216,9.629289999953471,10.5314500000095,11.423089999938384,12.335759999928996,13.323114999919198,14.290984999970533,15.22660499997437,16.16181499999948]",space,5.21722,0.0,4.0,4.0,18.0,1.0,,
,,,,,,,,,,,block_2/medium_t_105_2.wav,timbre,t,medium,105.0,1.583239388,12.36101717,,,,yes,Final Audio E3000,18,no,f,33,R,yes,1,2020-10-01_10h17.21.641,kura-A1,2020.1.2,Win32,60,,,,,,,,,,,,,,"[""space"",""space"",""space"",""space"",""space"",""space"",""space"",""space"",""space"",""space"",""space"",""space"",""space"",""space"",""space""]","[3.1973249999573454,3.7367200000444427,4.296629999997094,4.909175000037067,5.452905000071041,6.023950000060722,6.573384999996051,7.144474999979138,7.673249999992549,8.25589500006754,8.839090000023134,9.401700000045821,9.92559999995865,10.487625000067055,11.091905000037514]",space,2.979245,0.0,5.0,5.0,19.0,1.0,,
,,,,,,,,,,,block_2/strong_t_72_2.wav,timbre,t,strong,72.0,2.404328943,17.8229684,,,,yes,Final Audio E3000,18,no,f,33,R,yes,1,2020-10-01_10h17.21.641,kura-A1,2020.1.2,Win32,60,,,,,,,,,,,,,,"[""space"",""space"",""space"",""space"",""space"",""space"",""space"",""space"",""space"",""space"",""space"",""space"",""space"",""space"",""space"",""space"",""space"",""space""]","[2.305709999985993,3.0964000000385568,3.910190000082366,4.723875000025146,5.506240000016987,6.251580000040121,7.054490000009537,7.900475000031292,8.658479999983683,9.450865000020713,10.252259999979287,11.022310000029393,11.801360000041313,12.585250000003725,13.3504950000206,14.221245000022464,15.012590000056662,15.835500000044703]",space,1.142565,0.0,6.0,6.0,6.0,1.0,,
,,,,,,,,,,,block_2/none_t_119_1.wav,timbre,t,none,119.0,1.241510023,14.60305197,,,,yes,Final Audio E3000,18,no,f,33,R,yes,1,2020-10-01_10h17.21.641,kura-A1,2020.1.2,Win32,60,,,,,,,,,,,,,,"[""space"",""space"",""space"",""space"",""space"",""space"",""space"",""space"",""space"",""space"",""space"",""space"",""space"",""space"",""space"",""space"",""space""]","[4.182475000037812,4.746309999958612,5.290595000027679,5.8460249999770895,6.380254999967292,6.95112500002142,7.5357500000391155,8.139779999968596,8.712745000026189,9.281019999994896,9.812730000005104,10.38464499998372,10.987949999980628,11.602365000057034,12.229539999971166,12.779755000025034,13.346499999985099]",space,3.26769,0.0,7.0,7.0,39.0,1.0,,
,,,,,,,,,,,block_2/strong_t_92_2.wav,timbre,t,strong,92.0,2.142189268,15.39026183,,,,yes,Final Audio E3000,18,no,f,33,R,yes,1,2020-10-01_10h17.21.641,kura-A1,2020.1.2,Win32,60,,,,,,,,,,,,,,"[""space"",""space"",""space"",""space"",""space"",""space"",""space"",""space"",""space"",""space"",""space"",""space"",""space"",""space"",""space"",""space"",""space""]","[2.697844999958761,3.372069999924861,4.043790000025183,4.764955000020564,5.419789999956265,6.056574999936856,6.72707000002265,7.414879999938421,8.069829999934882,8.75069999997504,9.409114999929443,10.102480000001378,10.761790000018664,11.435294999973848,12.131865000003017,12.806499999947846,13.500675000017509]",space,1.90618,0.0,8.0,8.0,3.0,1.0,,
,,,,,,,,,,,block_2/strong_t_119_1.wav,timbre,t,strong,119.0,1.599889289,11.56710017,,,,yes,Final Audio E3000,18,no,f,33,R,yes,1,2020-10-01_10h17.21.641,kura-A1,2020.1.2,Win32,60,,,,,,,,,,,,,,"[""space"",""space"",""space"",""space"",""space"",""space"",""space"",""space"",""space"",""space"",""space"",""space"",""space"",""space"",""space"",""space"",""space""]","[2.1298050000332296,2.624034999986179,3.1525949999922886,3.6645900000585243,4.148025000002235,4.670230000047013,5.174805000075139,5.697984999977052,6.219430000055581,6.714449999970384,7.231419999967329,7.736604999983683,8.210525000002235,8.703800000017509,9.231350000016391,9.718545000068843,10.214909999980591]",space,2.28515,0.0,9.0,9.0,27.0,1.0,,
,,,,,,,,,,,block_2/medium_t_105_1.wav,timbre,t,medium,105.0,1.073604292,13.26340021,,,,yes,Final Audio E3000,18,no,f,33,R,yes,1,2020-10-01_10h17.21.641,kura-A1,2020.1.2,Win32,60,,,,,,,,,,,,,,"[""space"",""space"",""space"",""space"",""space"",""space"",""space"",""space"",""space"",""space"",""space"",""space"",""space"",""space"",""space"",""space"",""space""]","[2.4774449999677017,3.0708999999333173,3.6482149999355897,4.19871000002604,4.79831500002183,5.402705000014976,5.974365000030957,6.590725000016391,7.238264999934472,7.815165000036359,8.448005000012927,9.131850000005215,9.835414999979548,10.452204999979585,11.131824999931268,11.744724999996834,12.393644999945536]",space,1.481505,0.0,10.0,10.0,16.0,1.0,,
,,,,,,,,,,,block_2/strong_t_92_1.wav,timbre,t,strong,92.0,2.398655974,13.52958568,,,,yes,Final Audio E3000,18,no,f,33,R,yes,1,2020-10-01_10h17.21.641,kura-A1,2020.1.2,Win32,60,,,,,,,,,,,,,,"[""space"",""space"",""space"",""space"",""space"",""space"",""space"",""space"",""space"",""space"",""space"",""space"",""space"",""space"",""space"",""space""]","[2.7079450000310317,3.302434999961406,3.8972300000023097,4.444950000033714,5.027129999944009,5.647095000022091,6.1912699999520555,6.804664999945089,7.3803850000258535,7.940509999985807,8.510920000029728,9.11680499999784,9.680825000046752,10.225744999945164,10.809020000044256,11.397355000022799]",space,1.08657,0.0,11.0,11.0,1.0,1.0,,
,,,,,,,,,,,block_2/strong_t_119_2.wav,timbre,t,strong,119.0,1.752168489,11.36699842,,,,yes,Final Audio E3000,18,no,f,33,R,yes,1,2020-10-01_10h17.21.641,kura-A1,2020.1.2,Win32,60,,,,,,,,,,,,,,"[""space"",""space"",""space"",""space"",""space"",""space"",""space"",""space"",""space"",""space"",""space"",""space"",""space"",""space"",""space"",""space"",""space""]","[2.0187900000019,2.515209999983199,3.0086300000548363,3.513039999990724,4.032035000040196,4.498490000027232,4.96784000005573,5.4487600000575185,5.909790000063367,6.418234999990091,6.902815000037663,7.432220000075176,7.877150000073016,8.374160000006668,8.856735000037588,9.365700000082143,9.848680000053719]",space,1.10093,0.0,12.0,12.0,31.0,1.0,,
,,,,,,,,,,,block_2/none_t_72_1.wav,timbre,t,none,72.0,1.393664986,20.37801873,,,,yes,Final Audio E3000,18,no,f,33,R,yes,1,2020-10-01_10h17.21.641,kura-A1,2020.1.2,Win32,60,,,,,,,,,,,,,,"[""space"",""space"",""space"",""space"",""space"",""space"",""space"",""space"",""space"",""space"",""space"",""space"",""space"",""space"",""space"",""space"",""space"",""space"",""space"",""space"",""space"",""space"",""space"",""space"",""space"",""space"",""space"",""space"",""space"",""space"",""space"",""space""]","[2.1895399999339134,2.827489999937825,3.3804449999006465,3.959749999921769,4.48101999994833,5.060474999947473,5.608699999982491,6.191174999927171,6.720310000004247,7.286174999899231,7.833519999985583,8.345235000015236,8.831239999970421,9.416699999943376,9.961359999957494,10.535924999974668,11.097564999945462,11.69777999992948,12.204824999906123,12.777104999986477,13.281124999979511,13.799735000007786,14.22846999997273,14.810459999949671,15.318250000011176,15.914890000014566,16.359764999942854,16.954610000015236,17.42599999997765,18.000604999950156,18.47060000000056,19.047864999971353]",space,1.201165,0.0,13.0,13.0,23.0,1.0,,
,,,,,,,,,,,block_2/none_t_81_1.wav,timbre,t,none,81.0,1.797175978,16.13359321,,,,yes,Final Audio E3000,18,no,f,33,R,yes,1,2020-10-01_10h17.21.641,kura-A1,2020.1.2,Win32,60,,,,,,,,,,,,,,"[""space"",""space"",""space"",""space"",""space"",""space"",""space"",""space"",""space"",""space"",""space"",""space"",""space""]","[3.9119799999753013,4.5495900000678375,5.3182850000448525,6.240965000004508,7.066609999979846,7.832685000030324,8.670739999972284,9.42792000004556,10.299155000015162,11.11748500005342,11.96944999997504,12.882560000056401,13.749275000067428]",space,8.267805,0.0,14.0,14.0,11.0,1.0,,
,,,,,,,,,,,block_2/weak_t_92_1.wav,timbre,t,weak,92.0,1.077881565,14.47407204,,,,yes,Final Audio E3000,18,no,f,33,R,yes,1,2020-10-01_10h17.21.641,kura-A1,2020.1.2,Win32,60,,,,,,,,,,,,,,"[""space"",""space"",""space"",""space"",""space"",""space"",""space"",""space"",""space"",""space"",""space"",""space"",""space"",""space"",""space"",""space"",""space"",""space"",""space""]","[1.3988149999640882,1.8907299999846146,2.473094999906607,3.134349999949336,3.7712499999906868,4.486519999918528,5.182144999969751,5.851244999910705,6.51968999998644,7.1487649999326095,7.883440000005066,8.53443499992136,9.212644999963231,9.851344999973662,10.550649999990128,11.152084999950603,11.753649999969639,12.42359999998007,13.100479999906383]",space,1.51544,0.0,15.0,15.0,33.0,1.0,,
,,,,,,,,,,,block_2/strong_t_81_1.wav,timbre,t,strong,81.0,1.294160312,15.54953446,,,,yes,Final Audio E3000,18,no,f,33,R,yes,1,2020-10-01_10h17.21.641,kura-A1,2020.1.2,Win32,60,,,,,,,,,,,,,,"[""space"",""space"",""space"",""space"",""space"",""space"",""space"",""space"",""space"",""space"",""space"",""space"",""space"",""space"",""space"",""space"",""space"",""space""]","[2.435895000002347,3.1392800000030547,3.8409799999790266,4.545365000027232,5.27050500002224,5.984049999970011,6.750585000030696,7.446624999982305,8.161874999990687,8.874719999963418,9.601204999955371,10.304394999984652,10.995809999993071,11.74320499994792,12.459430000046268,13.194754999945872,13.898000000044703,14.636189999990165]",space,10.16957,0.0,16.0,16.0,30.0,1.0,,
,,,,,,,,,,,block_2/none_t_105_1.wav,timbre,t,none,105.0,2.049885048,16.17201657,,,,yes,Final Audio E3000,18,no,f,33,R,yes,1,2020-10-01_10h17.21.641,kura-A1,2020.1.2,Win32,60,,,,,,,,,,,,,,"[""space"",""space"",""space"",""space"",""space"",""space"",""space"",""space"",""space"",""space"",""space"",""space"",""space"",""space"",""space"",""space"",""space"",""space"",""space""]","[2.6036800000583753,3.2296649999916553,3.8683700000401586,4.48402500001248,5.201880000066012,5.812335000024177,6.485110000008717,7.16492000001017,7.818910000030883,8.49542500008829,9.102290000068024,9.836884999996983,10.473985000047833,11.135905000031926,11.734129999997094,12.40127500006929,13.051255000056699,13.673370000091381,14.277360000065528]",space,1.2842,0.0,17.0,17.0,17.0,1.0,,
,,,,,,,,,,,block_2/weak_t_92_2.wav,timbre,t,weak,92.0,1.897128492,17.06302418,,,,yes,Final Audio E3000,18,no,f,33,R,yes,1,2020-10-01_10h17.21.641,kura-A1,2020.1.2,Win32,60,,,,,,,,,,,,,,"[""space"",""space"",""space"",""space"",""space"",""space"",""space"",""space"",""space"",""space"",""space"",""space"",""space"",""space"",""space"",""space""]","[3.0000249999575317,3.7997899999609217,4.622244999976829,5.433820000034757,6.218215000000782,7.0183999999426305,7.820539999986067,8.599960000021383,9.381649999995716,10.194984999950975,10.942584999953397,11.66913499997463,12.524594999966212,13.30156499997247,14.074230000027455,14.86874499998521]",space,5.779935,0.0,18.0,18.0,37.0,1.0,,
,,,,,,,,,,,block_2/medium_t_92_1.wav,timbre,t,medium,92.0,1.649670592,15.35429644,,,,yes,Final Audio E3000,18,no,f,33,R,yes,1,2020-10-01_10h17.21.641,kura-A1,2020.1.2,Win32,60,,,,,,,,,,,,,,"[""space"",""space"",""space"",""space"",""space"",""space"",""space"",""space"",""space"",""space"",""space"",""space"",""space"",""space"",""space"",""space""]","[2.669484999962151,3.3859849999425933,4.1291699999710545,4.856069999979809,5.581419999944046,6.27391499991063,6.989214999950491,7.659164999960922,8.407139999908395,9.043819999904372,9.736689999932423,10.474234999972396,11.209499999997206,11.90379499993287,12.727909999899566,13.387294999905862]",space,1.42686,0.0,19.0,19.0,36.0,1.0,,
,,,,,,,,,,,block_2/weak_t_81_2.wav,timbre,t,weak,81.0,1.659662472,15.06274637,,,,yes,Final Audio E3000,18,no,f,33,R,yes,1,2020-10-01_10h17.21.641,kura-A1,2020.1.2,Win32,60,,,,,,,,,,,,,,"[""space"",""space"",""space"",""space"",""space"",""space"",""space"",""space"",""space"",""space"",""space"",""space"",""space"",""space"",""space"",""space"",""space""]","[2.6119350000517443,3.250735000008717,3.92125000001397,4.603875000029802,5.284360000048764,5.954600000055507,6.617465000017546,7.658710000105202,8.284125000005588,8.91148000000976,9.583169999998063,10.262860000017099,11.001180000021122,11.681225000065751,12.362585000111721,13.033795000053942,13.751325000077486]",space,7.071835,0.0,20.0,20.0,5.0,1.0,,
,,,,,,,,,,,block_2/medium_t_72_1.wav,timbre,t,medium,72.0,1.800053144,19.08504181,,,,yes,Final Audio E3000,18,no,f,33,R,yes,1,2020-10-01_10h17.21.641,kura-A1,2020.1.2,Win32,60,,,,,,,,,,,,,,"[""space"",""space"",""space"",""space"",""space"",""space"",""space"",""space"",""space"",""space"",""space"",""space"",""space"",""space"",""space"",""space"",""space""]","[3.4924950000131503,4.350560000049882,5.21659000008367,6.099975000019185,7.033850000007078,7.951120000099763,8.883685000007972,9.726600000052713,10.567050000070594,11.364610000047833,12.233555000042543,13.111590000102296,14.079475000035018,14.948325000004843,15.981155000044964,16.839015000034124,17.733935000025667]",space,13.61121,0.0,21.0,21.0,24.0,1.0,,
,,,,,,,,,,,block_2/medium_t_119_2.wav,timbre,t,medium,119.0,1.931946566,12.84791029,,,,yes,Final Audio E3000,18,no,f,33,R,yes,1,2020-10-01_10h17.21.641,kura-A1,2020.1.2,Win32,60,,,,,,,,,,,,,,"[""space"",""space"",""space"",""space"",""space"",""space"",""space"",""space"",""space"",""space"",""space"",""space"",""space"",""space""]","[2.4813550000544637,3.1264450000599027,3.80663500004448,4.443835000041872,5.105020000017248,5.931715000071563,6.6765800000866875,7.348370000021532,7.985940000042319,8.734160000109114,9.403130000107922,10.181755000026897,10.820600000093691,11.41588500002399]",space,1.979915,0.0,22.0,22.0,38.0,1.0,,
,,,,,,,,,,,block_2/weak_t_105_1.wav,timbre,t,weak,105.0,2.340100097,14.83112051,,,,yes,Final Audio E3000,18,no,f,33,R,yes,1,2020-10-01_10h17.21.641,kura-A1,2020.1.2,Win32,60,,,,,,,,,,,,,,"[""space"",""space"",""space"",""space"",""space"",""space"",""space"",""space"",""space"",""space"",""space"",""space"",""space"",""space"",""space"",""space""]","[2.8359850000124425,3.3619099999777973,3.955790000036359,4.560924999997951,5.183564999955706,5.78062500001397,6.449599999934435,7.089544999995269,7.8002550000092015,8.454550000024028,9.082204999984242,9.73899999994319,10.421629999997094,11.070689999964088,11.706780000007711,12.289349999977276]",space,3.62666,0.0,23.0,23.0,0.0,1.0,,
,,,,,,,,,,,block_2/medium_t_72_2.wav,timbre,t,medium,72.0,1.613581299,18.7474135,,,,yes,Final Audio E3000,18,no,f,33,R,yes,1,2020-10-01_10h17.21.641,kura-A1,2020.1.2,Win32,60,,,,,,,,,,,,,,"[""space"",""space"",""space"",""space"",""space"",""space"",""space"",""space"",""space"",""space"",""space"",""space"",""space"",""space"",""space"",""space"",""space""]","[3.3388099999865517,4.172290000016801,5.029065000009723,5.921850000042468,6.900130000081845,7.867020000005141,8.72479500004556,9.616770000080578,10.554215000011027,11.406810000073165,12.234975000028498,13.144315000041388,14.079165000002831,14.935279999976046,15.817150000017136,16.683260000078008,17.59779500006698]",space,13.95878,0.0,24.0,24.0,28.0,1.0,,
,,,,,,,,,,,block_2/weak_t_72_1.wav,timbre,t,weak,72.0,1.161723604,18.236871,,,,yes,Final Audio E3000,18,no,f,33,R,yes,1,2020-10-01_10h17.21.641,kura-A1,2020.1.2,Win32,60,,,,,,,,,,,,,,"[""space"",""space"",""space"",""space"",""space"",""space"",""space"",""space"",""space"",""space"",""space"",""space"",""space"",""space"",""space"",""space"",""space"",""space"",""space""]","[3.069065000046976,3.739949999959208,4.64046500006225,5.67379000002984,6.521435000002384,7.080154999974184,7.961164999986067,8.820240000030026,9.610660000005737,10.391264999983832,11.199945000000298,12.0067450000206,12.799520000000484,13.532935000024736,14.271910000010394,15.016580000054091,15.84319000004325,16.492884999956004,17.27278999995906]",space,1.98799,0.0,25.0,25.0,29.0,1.0,,
,,,,,,,,,,,block_2/none_t_81_2.wav,timbre,t,none,81.0,2.376288721,21.12975811,,,,yes,Final Audio E3000,18,no,f,33,R,yes,1,2020-10-01_10h17.21.641,kura-A1,2020.1.2,Win32,60,,,,,,,,,,,,,,"[""space"",""space"",""space"",""space"",""space"",""space"",""space"",""space"",""space"",""space"",""space"",""space"",""space"",""space"",""space"",""space"",""space"",""space"",""space"",""space""]","[3.734150000032969,4.400970000075176,5.15904500009492,5.906435000011697,6.641745000029914,7.4116450001019984,8.21749000006821,9.039650000049733,9.87471500004176,10.677325000055134,11.46964000002481,12.172970000072382,12.942320000031032,13.76967000006698,14.603800000040792,15.372330000041984,16.229700000025332,17.022600000025705,17.7784850000171,18.54093500005547]",space,5.513145,0.0,26.0,26.0,10.0,1.0,,
,,,,,,,,,,,block_2/medium_t_119_1.wav,timbre,t,medium,119.0,2.133191859,13.15799912,,,,yes,Final Audio E3000,18,no,f,33,R,yes,1,2020-10-01_10h17.21.641,kura-A1,2020.1.2,Win32,60,,,,,,,,,,,,,,"[""space"",""space"",""space"",""space"",""space"",""space"",""space"",""space"",""space"",""space"",""space"",""space"",""space""]","[4.836744999978691,5.3523150000255555,5.935419999994338,6.465540000004694,7.065624999930151,7.582104999921285,8.149139999994077,8.673829999985173,9.202055000001565,9.73223500000313,10.248799999943003,10.76121000002604,11.322524999966845]",space,2.076775,0.0,27.0,27.0,34.0,1.0,,
,,,,,,,,,,,block_2/weak_t_119_2.wav,timbre,t,weak,119.0,2.381776461,12.65062,,,,yes,Final Audio E3000,18,no,f,33,R,yes,1,2020-10-01_10h17.21.641,kura-A1,2020.1.2,Win32,60,,,,,,,,,,,,,,"[""space"",""space"",""space"",""space"",""space"",""space"",""space"",""space"",""space"",""space"",""space"",""space"",""space"",""space"",""space"",""space""]","[3.7939750000368804,4.151745000039227,4.56277499999851,5.0134600000455976,5.443030000082217,5.902430000016466,6.368600000045262,6.839090000023134,7.317055000108667,7.806375000043772,8.284035000018775,8.761960000032559,9.223615000024438,9.700485000037588,10.146540000103414,10.609540000092238]",space,3.96901,0.0,28.0,28.0,13.0,1.0,,
,,,,,,,,,,,block_2/weak_t_119_1.wav,timbre,t,weak,119.0,2.44047477,12.74986253,,,,yes,Final Audio E3000,18,no,f,33,R,yes,1,2020-10-01_10h17.21.641,kura-A1,2020.1.2,Win32,60,,,,,,,,,,,,,,"[""space"",""space"",""space"",""space"",""space"",""space"",""space"",""space"",""space"",""space"",""space"",""space"",""space"",""space""]","[4.400080000050366,4.8108300000894815,5.240805000066757,5.658195000025444,6.186455000075512,6.603564999997616,7.042944999993779,7.492369999992661,7.965124999987893,8.427155000041239,8.918170000077225,9.367395000066608,9.802585000055842,10.262685000081547]",space,4.112455,0.0,29.0,29.0,12.0,1.0,,
,,,,,,,,,,,block_2/weak_t_81_1.wav,timbre,t,weak,81.0,1.591601339,16.65690746,,,,yes,Final Audio E3000,18,no,f,33,R,yes,1,2020-10-01_10h17.21.641,kura-A1,2020.1.2,Win32,60,,,,,,,,,,,,,,"[""space"",""space"",""space"",""space"",""space"",""space"",""space"",""space"",""space"",""space"",""space"",""space"",""space"",""space"",""space""]","[2.9656899999827147,3.699235000065528,4.465779999969527,5.250179999973625,6.195175000000745,7.041945000062697,7.8885550000704825,8.736200000043027,9.549710000050254,10.432514999993145,11.284225000068545,12.2326400000602,13.102190000005066,13.945330000016838,14.782280000043102]",space,9.90924,0.0,30.0,30.0,8.0,1.0,,
,,,,,,,,,,,block_2/medium_t_81_2.wav,timbre,t,medium,81.0,1.338539444,16.50597709,,,,yes,Final Audio E3000,18,no,f,33,R,yes,1,2020-10-01_10h17.21.641,kura-A1,2020.1.2,Win32,60,,,,,,,,,,,,,,"[""space"",""space"",""space"",""space"",""space"",""space"",""space"",""space"",""space"",""space"",""space"",""space"",""space"",""space"",""space"",""space"",""space""]","[2.978389999945648,3.7145549999549985,4.517460000002757,5.287469999981113,6.06855500000529,6.8144000000320375,7.619925000006333,8.450904999976046,9.243799999938346,10.050444999942556,10.820219999994151,11.619324999977835,12.40211000002455,13.180285000009462,13.960100000025705,14.696349999983795,15.522875000024214]",space,6.125625,0.0,31.0,31.0,7.0,1.0,,
,,,,,,,,,,,block_2/none_t_105_2.wav,timbre,t,none,105.0,1.468449628,14.54844963,,,,yes,Final Audio E3000,18,no,f,33,R,yes,1,2020-10-01_10h17.21.641,kura-A1,2020.1.2,Win32,60,,,,,,,,,,,,,,"[""space"",""space"",""space"",""space"",""space"",""space"",""space"",""space"",""space"",""space"",""space"",""space"",""space"",""space"",""space""]","[4.047085000085644,4.630380000104196,5.300450000097044,5.99737500003539,6.7072100000223145,7.347335000056773,7.984030000050552,8.565425000037067,9.184690000023693,9.797990000108257,10.45647000009194,11.084025000105612,11.766045000054874,12.534990000072867,13.248960000113584]",space,8.767965,0.0,32.0,32.0,14.0,1.0,,
,,,,,,,,,,,block_2/strong_t_72_1.wav,timbre,t,strong,72.0,1.104397067,17.67881884,,,,yes,Final Audio E3000,18,no,f,33,R,yes,1,2020-10-01_10h17.21.641,kura-A1,2020.1.2,Win32,60,,,,,,,,,,,,,,"[""space"",""space"",""space"",""space"",""space"",""space"",""space"",""space"",""space"",""space"",""space"",""space"",""space"",""space"",""space"",""space"",""space"",""space"",""space""]","[2.086665000068024,2.8996550000738353,3.77999000006821,4.632890000008047,5.4280049999943,6.242369999992661,7.068690000101924,7.956980000017211,8.782825000002049,9.60741500009317,10.453510000021197,11.288085000007413,12.099335000035353,12.949575000093319,13.77332999999635,14.596770000061952,15.39991000003647,16.202410000027157,17.005300000077114]",space,2.31694,0.0,33.0,33.0,9.0,1.0,,
,,,,,,,,,,,block_2/none_t_92_1.wav,timbre,t,none,92.0,2.07216362,14.90350149,,,,yes,Final Audio E3000,18,no,f,33,R,yes,1,2020-10-01_10h17.21.641,kura-A1,2020.1.2,Win32,60,,,,,,,,,,,,,,"[""space"",""space"",""space"",""space"",""space"",""space"",""space"",""space"",""space"",""space"",""space"",""space"",""space"",""space"",""space"",""space""]","[3.471549999900162,4.076829999918118,4.717684999923222,5.2849099999293685,5.947904999949969,6.497719999984838,7.120544999954291,7.693144999910146,8.353334999992512,8.912819999968633,9.560614999965765,10.16810499993153,10.80447499989532,11.387445000000298,12.064409999991767,12.639265000005253]",space,6.026215,0.0,34.0,34.0,15.0,1.0,,
,,,,,,,,,,,block_2/strong_t_105_2.wav,timbre,t,strong,105.0,1.902812304,12.72943362,,,,yes,Final Audio E3000,18,no,f,33,R,yes,1,2020-10-01_10h17.21.641,kura-A1,2020.1.2,Win32,60,,,,,,,,,,,,,,"[""space"",""space"",""space"",""space"",""space"",""space"",""space"",""space"",""space"",""space"",""space"",""space"",""space"",""space"",""space"",""space"",""space"",""space""]","[1.6968549999874085,2.246779999928549,2.8134649998974055,3.3637949998956174,3.930419999989681,4.514024999924004,5.047099999967031,5.547304999898188,6.130514999968,6.680379999917932,7.230109999887645,7.781589999911375,8.331825000001118,8.881734999944456,9.463999999919906,10.013809999916703,10.565089999930933,11.114024999900721]",space,1.755655,0.0,35.0,35.0,22.0,1.0,,
,,,,,,,,,,,block_2/none_t_72_2.wav,timbre,t,none,72.0,2.345629585,20.60318061,,,,yes,Final Audio E3000,18,no,f,33,R,yes,1,2020-10-01_10h17.21.641,kura-A1,2020.1.2,Win32,60,,,,,,,,,,,,,,"[""space"",""space"",""space"",""space"",""space"",""space"",""space"",""space"",""space"",""space"",""space"",""space"",""space"",""space"",""space"",""space"",""space"",""space"",""space"",""space"",""space"",""space"",""space"",""space"",""space"",""space"",""space"",""space""]","[3.541384999989532,4.02436999999918,4.519145000027493,5.025030000018887,5.581660000025295,6.131820000009611,6.640735000022687,7.165329999988899,7.731789999990724,8.279115000041202,8.75179999996908,9.315285000018775,9.931964999996126,10.542445000028238,11.165350000024773,11.715274999965914,12.324030000017956,12.918940000003204,13.511030000052415,14.051794999977574,14.582335000042804,15.098684999975376,15.709310000063851,16.250935000018217,16.776575000025332,17.332015000050887,17.93212000001222,18.482139999978244]",space,6.946275,0.0,36.0,36.0,21.0,1.0,,
,,,,,,,,,,,block_2/medium_t_92_2.wav,timbre,t,medium,92.0,2.383848972,15.42820271,,,,yes,Final Audio E3000,18,no,f,33,R,yes,1,2020-10-01_10h17.21.641,kura-A1,2020.1.2,Win32,60,,,,,,,,,,,,,,"[""space"",""space"",""space"",""space"",""space"",""space"",""space"",""space"",""space"",""space"",""space"",""space"",""space"",""space"",""space"",""space"",""space""]","[2.9508100000675768,3.5383399999700487,4.117300000041723,4.767360000056215,5.500690000015311,6.188650000025518,6.857700000051409,7.55609500000719,8.234060000046156,8.87132500007283,9.529119999962859,10.201185000012629,10.850919999997132,11.472145000007004,12.119150000042282,12.750635000062175,13.351450000074692]",space,6.45889,0.0,37.0,37.0,32.0,1.0,,
,,,,,,,,,,,block_2/weak_t_72_2.wav,timbre,t,weak,72.0,2.280914128,17.55202524,,,,yes,Final Audio E3000,18,no,f,33,R,yes,1,2020-10-01_10h17.21.641,kura-A1,2020.1.2,Win32,60,,,,,,,,,,,,,,"[""space"",""space"",""space"",""space"",""space"",""space"",""space"",""space"",""space"",""space"",""space"",""space"",""space"",""space"",""space""]","[4.598074999987148,5.324009999982081,6.164939999929629,6.90183500002604,7.748219999950379,8.548300000024028,9.318465000018477,10.115204999921843,10.93476999993436,11.713134999969043,12.500114999944344,13.265729999984615,14.031979999970645,14.831729999976233,15.638204999966547]",space,4.68172,0.0,38.0,38.0,25.0,1.0,,
,,,,,,,,,,,block_2/weak_t_105_2.wav,timbre,t,weak,105.0,2.1216156,16.06451809,,,,yes,Final Audio E3000,18,no,f,33,R,yes,1,2020-10-01_10h17.21.641,kura-A1,2020.1.2,Win32,60,,,,,,,,,,,,,,"[""space"",""space"",""space"",""space"",""space"",""space"",""space"",""space"",""space"",""space"",""space"",""space"",""space"",""space"",""space"",""space""]","[3.3981550000607967,4.095704999985173,4.831424999982119,5.546670000068843,6.338815000024624,7.17441500001587,7.948945000069216,8.637445000000298,9.229865000001155,9.916620000032708,10.57089500001166,11.283569999970496,11.96694000007119,12.682155000045896,13.40719000005629,14.089245000039227]",space,5.04759,0.0,39.0,39.0,2.0,1.0,,
,,,,,,,,,,,,,,,,,,,,,yes,Final Audio E3000,18,no,f,33,R,yes,1,2020-10-01_10h17.21.641,kura-A1,2020.1.2,Win32,60,,,,,,,,,,,,,,,,,,,,,,,space,34.27522
