key_resp.keys,key_resp.rt,practice_taps.keys,practice_taps.rt,keyresp.keys,keyresp.rt,practice_stims_loop.thisRepN,practice_stims_loop.thisTrialN,practice_stims_loop.thisN,practice_stims_loop.thisIndex,practice_stims_loop.ran,sndfile,type,tempo,cond,version,delay,dur,Participant Initials,"If you are a MTurk worker, what is your MTurk worker ID?","If you are not an MTurk worker, please provide your email address",Are you wearing headphones?,What are the headphone make and model?,"How many years of musical training, if any, do you have?",Do you have any hearing problems? Please describe,What is your sex (f/m/decline)?,What is your age?,What is your handedness (R/L/ambi)?,Are you currently in a secure and quiet room without a possible interruption?,session,date,expName,psychopyVersion,OS,frameRate,instructions_prompt.keys,instructions_prompt.rt,block1_taps.keys,block1_taps.rt,key_resp_2.keys,key_resp_2.rt,trials.thisRepN,trials.thisTrialN,trials.thisN,trials.thisIndex,trials.ran,key_resp2.keys,key_resp2.rt,block2_taps.keys,block2_taps.rt,key_resp_3.keys,key_resp_3.rt,trials_2.thisRepN,trials_2.thisTrialN,trials_2.thisN,trials_2.thisIndex,trials_2.ran,key_resp_4.keys,key_resp_4.rt
space,14.62686,"[""space"",""space"",""space"",""space"",""space"",""space"",""space"",""space"",""space"",""space"",""space"",""space"",""space"",""space"",""space"",""space"",""space"",""space"",""space"",""space"",""space"",""space"",""space"",""space"",""space"",""space"",""space"",""space"",""space"",""space""]","[0.5584599999710917,1.4846050000051036,2.6507850000052713,3.4497749999864027,4.116934999998193,4.794129999994766,5.7282450000057,6.511274999997113,7.200499999977183,7.585510000004433,7.812485000002198,8.126594999979716,8.582919999957085,8.766889999969862,8.971480000007432,9.220794999971986,9.416834999981802,9.650759999989532,9.890940000012051,10.122029999969527,10.334884999960195,10.543974999978673,10.755044999998063,11.131044999987353,11.567009999998845,11.972260000009555,12.412149999989197,12.840214999974705,13.237229999969713,13.597629999974743]",space,3.61855,0.0,0.0,0.0,1.0,1.0,block_2/none_t_119_1.wav,timbre,t,none,119.0,1.172164666,14.53370662,,,,Yes,Tribit XFree Tune,1,No,f,24,R,Yes,1,2020-10-05_11h28.35.951,kura-A1,2020.1.2,Win32,60,,,,,,,,,,,,,,,,,,,,,,,,
,,"[""space"",""space"",""space"",""space"",""space"",""space"",""space"",""space"",""space"",""space"",""space"",""space"",""space"",""space"",""space"",""space"",""space"",""space"",""space"",""space"",""space""]","[0.9092549999477342,1.5805949999485165,2.2067299999762326,2.8809049999690615,3.616814999957569,4.3400649999966845,5.0711149999988265,5.821349999983795,6.562414999993052,7.274429999990389,8.073554999951739,8.829639999952633,9.596839999954682,10.351884999952745,11.130884999991395,11.879524999996647,12.607174999953713,13.377339999948163,14.12136999994982,14.90156999998726,15.661854999954812]",space,2.15578,0.0,1.0,1.0,0.0,1.0,block_1/strong_n_81_2.wav,no,n,strong,81.0,1.560205308,16.72288105,,,,Yes,Tribit XFree Tune,1,No,f,24,R,Yes,1,2020-10-05_11h28.35.951,kura-A1,2020.1.2,Win32,60,,,,,,,,,,,,,,,,,,,,,,,,
,,"[""space"",""space"",""space"",""space"",""space"",""space"",""space"",""space"",""space"",""space"",""space"",""space"",""space"",""space"",""space"",""space"",""space"",""space"",""space"",""space"",""space"",""space"",""space"",""space"",""space"",""space"",""space"",""space"",""space"",""space"",""space"",""space"",""space"",""space"",""space"",""space"",""space"",""space"",""space"",""space"",""space""]","[0.6005100000184029,0.7842449999880046,0.9567849999875762,1.1307350000133738,1.3001550000044517,1.462809999997262,1.6334449999849312,1.8001599999843165,1.9788900000276044,2.2069350000238046,2.404945000016596,2.761980000010226,2.9300350000266917,3.1640600000391714,3.416785000008531,3.6071050000027753,3.8292099999962375,4.050335000036284,4.278325000021141,4.589380000019446,4.77043000003323,5.060410000034608,5.245340000023134,5.547385000041686,5.7334200000041164,6.0094500000122935,6.200650000013411,6.466745000041556,6.65353499999037,6.9505800000042655,7.10159500001464,7.423680000007153,7.587760000023991,7.900060000014491,8.078815000015311,8.402880000008736,8.575799999991432,8.846034999995027,9.033370000019204,9.350964999990538,9.529030000034254]",space,1.71022,0.0,2.0,2.0,2.0,1.0,block_1/weak_n_119_1.wav,no,n,weak,119.0,1.75153664,11.06591306,,,,Yes,Tribit XFree Tune,1,No,f,24,R,Yes,1,2020-10-05_11h28.35.951,kura-A1,2020.1.2,Win32,60,,,,,,,,,,,,,,,,,,,,,,,,
,,"[""space"",""space"",""space"",""space"",""space"",""space"",""space"",""space"",""space"",""space"",""space"",""space"",""space"",""space"",""space"",""space"",""space"",""space"",""space"",""space"",""space"",""space"",""space"",""space"",""space"",""space"",""space"",""space"",""space"",""space"",""space"",""space"",""space"",""space"",""space"",""space"",""space"",""space"",""space"",""space"",""space"",""space"",""space"",""space"",""space"",""space"",""space"",""space"",""space""]","[0.6026749999728054,0.8406749999849126,1.037784999993164,1.2178549999953248,1.3888249999727122,1.5332799999741837,1.6517650000168942,1.8039049999788404,1.9789049999671988,2.1369399999966845,2.291879999975208,2.460915000003297,2.67005999997491,2.8640899999882095,3.0401100000017323,3.2210349999950267,3.3900699999649078,3.5531750000081956,3.7370499999960884,3.9400349999777973,4.133259999973234,4.317299999995157,4.508334999962244,4.8412050000042655,5.03424000000814,5.33037499996135,5.678350000001956,6.050569999963045,6.363414999970701,6.596489999967162,6.807484999997541,6.98851499997545,7.2017350000096485,7.402620000008028,7.619550000003073,7.830309999990277,8.013649999978952,8.19799499999499,8.383544999989681,8.593720000004396,8.833249999966938,9.029869999969378,9.213899999973364,9.39809500001138,9.571984999987762,9.766594999993686,10.15109499997925,10.444034999993164,10.664199999999255]",space,0.920895,0.0,3.0,3.0,3.0,1.0,block_2/weak_t_119_2.wav,timbre,t,weak,119.0,2.180699762,12.4495433,,,,Yes,Tribit XFree Tune,1,No,f,24,R,Yes,1,2020-10-05_11h28.35.951,kura-A1,2020.1.2,Win32,60,,,,,,,,,,,,,,,,,,,,,,,,
,,,,,,,,,,,block_1/none_n_72_1.wav,no,n,none,72.0,1.339316998,21.90480453,,,,Yes,Tribit XFree Tune,1,No,f,24,R,Yes,1,2020-10-05_11h28.35.951,kura-A1,2020.1.2,Win32,60,space,8.47111,"[""space"",""space"",""space"",""space"",""space"",""space"",""space"",""space"",""space"",""space"",""space"",""space"",""space"",""space"",""space"",""space"",""space"",""space"",""space"",""space"",""space"",""space"",""space"",""space"",""space"",""space"",""space"",""space"",""space"",""space"",""space"",""space"",""space"",""space"",""space"",""space"",""space"",""space"",""space"",""space"",""space"",""space"",""space"",""space"",""space"",""space"",""space"",""space"",""space"",""space"",""space"",""space"",""space"",""space"",""space"",""space"",""space"",""space"",""space"",""space"",""space"",""space"",""space"",""space"",""space"",""space"",""space"",""space"",""space"",""space"",""space"",""space"",""space"",""space"",""space"",""space"",""space"",""space"",""space"",""space"",""space"",""space"",""space"",""space"",""space"",""space"",""space"",""space"",""space"",""space"",""space"",""space"",""space"",""space"",""space"",""space"",""space"",""space"",""space"",""space"",""space"",""space"",""space"",""space""]","[0.505765000008978,0.7387849999940954,0.9541900000185706,1.1638200000161305,1.3678400000208057,1.5668799999984913,1.7530099999858066,1.9428900000057183,2.121915000025183,2.305950000009034,2.490140000008978,2.6800250000087544,2.853029999998398,3.0231950000161305,3.211094999976922,3.384109999984503,3.5772350000333972,3.767185000004247,3.9623649999848567,4.1543599999859,4.32324499997776,4.504300000029616,4.686419999983627,4.870440000027884,5.066700000024866,5.258380000013858,5.452570000023115,5.640505000017583,5.8244399999966845,6.00451499997871,6.203645000001416,6.364724999992177,6.516745000029914,6.702720000001136,6.889755000011064,7.069770000001881,7.262604999996256,7.462639999983367,7.663715000031516,7.86174000002211,8.059895000013057,8.263740000023972,8.443759999994654,8.634930000000168,8.833370000007562,9.035069999983534,9.241990000009537,9.433405000017956,9.61695499997586,9.81414000003133,9.988030000007711,10.161075000010896,10.348225000023376,10.553239999979269,10.775245000026189,10.990289999986999,11.193165000004228,11.400079999992158,11.591275000013411,11.77646999998251,11.967479999992065,12.156490000023041,12.350290000031237,12.537475000019185,12.72941999998875,12.927880000032019,13.124639999994542,13.295470000011846,13.473509999981616,13.652705000014976,13.849984999978915,14.037769999995362,14.226599999994505,14.413790000020526,14.609860000025947,14.775765000027604,14.929780000005849,15.102774999977555,15.307870000018738,15.502939999976661,15.701965000014752,15.900075000012293,16.091919999977108,16.263105000020005,16.43501999997534,16.637240000010934,16.81301500002155,17.002700000011828,17.180999999982305,17.390090000000782,17.59324999997625,17.794165000028443,18.046195000002626,18.31832999998005,18.62234499998158,18.866775000002235,19.068365000013728,19.300445000000764,19.585399999981746,19.829420000023674,20.054460000013933,20.275459999975283,20.518530000001192,20.739635000005364]",space,3.01695,0.0,0.0,0.0,18.0,1.0,,,,,,,,,,,,,
,,,,,,,,,,,block_1/none_n_81_1.wav,no,n,none,81.0,1.16825706,17.43084209,,,,Yes,Tribit XFree Tune,1,No,f,24,R,Yes,1,2020-10-05_11h28.35.951,kura-A1,2020.1.2,Win32,60,,,"[""space"",""space"",""space"",""space"",""space"",""space"",""space"",""space"",""space"",""space"",""space"",""space"",""space"",""space"",""space"",""space"",""space"",""space"",""space"",""space"",""space"",""space"",""space"",""space"",""space"",""space"",""space"",""space"",""space"",""space"",""space"",""space"",""space"",""space"",""space"",""space"",""space"",""space"",""space"",""space"",""space"",""space"",""space"",""space"",""space"",""space"",""space"",""space"",""space"",""space"",""space"",""space"",""space"",""space"",""space"",""space"",""space"",""space"",""space"",""space"",""space"",""space"",""space"",""space"",""space"",""space"",""space"",""space"",""space"",""space"",""space"",""space"",""space"",""space"",""space"",""space"",""space"",""space"",""space"",""space"",""space"",""space""]","[0.3922749999910593,0.5912150000222027,0.7835900000063702,0.956319999997504,1.144399999990128,1.338350000034552,1.5316400000010617,1.7233650000416674,1.9336250000051223,2.1275050000404008,2.33156500000041,2.541525000007823,2.7346850000321865,2.9353550000232644,3.150255000044126,3.425710000039544,3.6176850000047125,3.837805000017397,4.04173500003526,4.223700000031386,4.386865000007674,4.568889999995008,4.734085000003688,4.911835000035353,5.09385000000475,5.257964999997057,5.418950000021141,5.593905000016093,5.767195000022184,5.9381000000284985,6.10503500001505,6.283545000012964,6.472115000011399,6.628170000039972,6.784169999998994,6.980110000004061,7.157275000005029,7.363195000041742,7.563179999997374,7.7932650000439025,8.001350000035018,8.211405000009108,8.412795000011101,8.600215000042226,8.800235000031535,8.987499999988358,9.195600000035483,9.400200000032783,9.587460000009742,9.810655000037514,10.034560000000056,10.35062000004109,10.534760000009555,10.737650000024587,10.939875000040047,11.238825000007637,11.397690000012517,11.603765000007115,11.810805000015534,12.024060000025202,12.184840000001714,12.340900000010151,12.530895000032615,12.700245000014547,12.879935000033583,13.066900000034366,13.281019999994896,13.505999999993946,13.768184999993537,13.96100499999011,14.145260000019334,14.355120000021998,14.610355000011623,14.830249999999069,15.018335000029765,15.223220000043511,15.419395000033546,15.614340000029188,15.806474999990314,16.00047500000801,16.236429999989923,16.46682500001043]",space,1.39044,0.0,1.0,1.0,29.0,1.0,,,,,,,,,,,,,
,,,,,,,,,,,block_1/strong_n_81_2.wav,no,n,strong,81.0,1.452361164,16.6150369,,,,Yes,Tribit XFree Tune,1,No,f,24,R,Yes,1,2020-10-05_11h28.35.951,kura-A1,2020.1.2,Win32,60,,,"[""space"",""space"",""space"",""space"",""space"",""space"",""space"",""space"",""space"",""space"",""space"",""space"",""space"",""space"",""space"",""space"",""space"",""space"",""space"",""space"",""space""]","[0.7057600000407547,1.4678800000110641,2.1030400000163354,2.800634999992326,3.5335700000287034,4.246255000005476,5.016800000041258,5.740600000019185,6.483455000037793,7.2446750000235625,8.007290000037756,8.72896000003675,9.47194000001764,10.318250000011176,11.001289999985602,11.70955500000855,12.450210000039078,13.240159999986645,13.958670000021812,14.733479999995325,15.494940000004135]",space,2.557935,0.0,2.0,2.0,8.0,1.0,,,,,,,,,,,,,
,,,,,,,,,,,block_1/strong_n_81_1.wav,no,n,strong,81.0,1.003745174,15.96537783,,,,Yes,Tribit XFree Tune,1,No,f,24,R,Yes,1,2020-10-05_11h28.35.951,kura-A1,2020.1.2,Win32,60,,,"[""space"",""space"",""space"",""space"",""space"",""space"",""space"",""space"",""space"",""space"",""space"",""space"",""space"",""space"",""space"",""space"",""space"",""space"",""space"",""space"",""space""]","[0.6845500000054017,1.3018099999753758,2.0248249999713153,2.757930000021588,3.4898099999991246,4.242239999992307,5.00533999997424,5.721414999978151,6.471375000022817,7.244529999967199,7.961584999982733,8.744759999972302,9.560880000004545,10.253209999995306,10.978064999973867,11.745104999979958,12.500179999973625,13.273500000010245,14.058329999970738,14.810679999995045,15.495675000012852]",space,0.976215,0.0,3.0,3.0,12.0,1.0,,,,,,,,,,,,,
,,,,,,,,,,,block_1/weak_n_105_1.wav,no,n,weak,105.0,1.735757625,11.75240162,,,,Yes,Tribit XFree Tune,1,No,f,24,R,Yes,1,2020-10-05_11h28.35.951,kura-A1,2020.1.2,Win32,60,,,"[""space"",""space"",""space"",""space"",""space"",""space"",""space"",""space"",""space"",""space"",""space"",""space"",""space"",""space"",""space"",""space"",""space"",""space"",""space"",""space"",""space"",""space"",""space"",""space"",""space"",""space"",""space"",""space"",""space"",""space"",""space"",""space"",""space""]","[0.44228499999735504,0.8170050000189804,1.1083050000015646,1.4444150000344962,1.6793300000135787,2.037430000025779,2.3344950000173412,2.6685600000200793,2.9306800000485964,3.1896850000484847,3.4405900000128895,3.800790000008419,4.075720000022557,4.408730000024661,4.58363000000827,4.891860000032466,5.235870000033174,5.420535000041127,5.844985000032466,6.021925000008196,6.376010000007227,6.571005000034347,6.878105000010692,7.267170000006445,7.444090000004508,7.794310000026599,7.973370000021532,8.283530000015162,8.65143500000704,9.05940000002738,9.527419999998529,9.906600000045728,10.32458499999484]",space,1.00293,0.0,4.0,4.0,27.0,1.0,,,,,,,,,,,,,
,,,,,,,,,,,block_1/none_n_105_2.wav,no,n,none,105.0,1.949697166,16.59064955,,,,Yes,Tribit XFree Tune,1,No,f,24,R,Yes,1,2020-10-05_11h28.35.951,kura-A1,2020.1.2,Win32,60,,,"[""space"",""space"",""space"",""space"",""space"",""space"",""space"",""space"",""space"",""space"",""space"",""space"",""space"",""space"",""space"",""space"",""space"",""space"",""space"",""space"",""space"",""space"",""space"",""space"",""space"",""space"",""space"",""space"",""space"",""space"",""space"",""space"",""space"",""space"",""space"",""space"",""space"",""space"",""space"",""space"",""space"",""space"",""space"",""space"",""space"",""space"",""space"",""space"",""space"",""space"",""space"",""space"",""space"",""space"",""space"",""space"",""space"",""space"",""space"",""space"",""space"",""space"",""space"",""space"",""space"",""space""]","[0.4168550000176765,0.7432849999750033,1.078609999967739,1.3957700000028126,1.7407750000129454,1.9642199999652803,2.1459150000009686,2.324829999997746,2.5089999999618158,2.709340000001248,2.9198900000192225,3.144930000009481,3.3750949999666773,3.610984999977518,3.823999999964144,4.064094999979716,4.2781250000116415,4.5731399999931455,4.783705000008922,5.060315000009723,5.278210000018589,5.489490000007208,5.764299999980722,5.968349999981001,6.357465000008233,6.534444999997504,6.756434999988414,6.970800000010058,7.169504999998026,7.37851499998942,7.583799999963958,7.80014000000665,8.006634999997914,8.204755000013392,8.40769999998156,8.628729999996722,8.833489999989979,9.068909999972675,9.283895000000484,9.505949999962468,9.72284000000218,9.923934999969788,10.1229099999764,10.324974999995902,10.52504500001669,10.728134999983013,10.93977499997709,11.152029999997467,11.360155000002123,11.560179999971297,11.77013999997871,11.97219000000041,12.19836999999825,12.42538999998942,12.638399999996182,12.84023500001058,13.047429999976885,13.27536999998847,13.491524999961257,13.70038499997463,13.903449999983422,14.116860000009183,14.328529999998864,14.537529999972321,14.750094999966677,14.957545000012033]",space,1.736495,0.0,5.0,5.0,4.0,1.0,,,,,,,,,,,,,
,,,,,,,,,,,block_1/weak_n_119_2.wav,no,n,weak,119.0,2.480463378,12.4427763,,,,Yes,Tribit XFree Tune,1,No,f,24,R,Yes,1,2020-10-05_11h28.35.951,kura-A1,2020.1.2,Win32,60,,,"[""space"",""space"",""space"",""space"",""space"",""space"",""space"",""space"",""space"",""space"",""space"",""space"",""space"",""space"",""space"",""space"",""space"",""space"",""space"",""space"",""space"",""space"",""space"",""space"",""space"",""space"",""space"",""space"",""space"",""space"",""space"",""space"",""space"",""space"",""space"",""space"",""space"",""space"",""space"",""space"",""space"",""space"",""space"",""space"",""space"",""space"",""space""]","[0.5268299999879673,0.7755999999935739,0.978754999989178,1.1797050000168383,1.3536549999844283,1.5187750000040978,1.7077949999948032,1.9648049999959767,2.125784999981988,2.3835199999739416,2.575849999964703,2.7590349999954924,2.9341150000109337,3.150904999987688,3.3269950000103563,3.5129650000017136,3.693989999999758,3.888154999993276,4.084020000009332,4.293179999978747,4.489049999974668,4.689394999993965,4.880209999973886,5.069130000018049,5.262144999986049,5.469429999997374,5.676229999982752,5.878289999964181,6.058429999975488,6.392534999991767,6.556470000010449,6.836554999987129,7.016854999994393,7.2674649999826215,7.458500000007916,7.724664999986999,7.90669999999227,8.144759999995586,8.33355500001926,8.612879999971483,8.791825000022072,9.05599500000244,9.26288499997463,9.58597999997437,9.78782999998657,10.096870000008494,10.28586499998346]",space,2.214375,0.0,6.0,6.0,36.0,1.0,,,,,,,,,,,,,
,,,,,,,,,,,block_1/none_n_92_1.wav,no,n,none,92.0,1.720415177,18.30862379,,,,Yes,Tribit XFree Tune,1,No,f,24,R,Yes,1,2020-10-05_11h28.35.951,kura-A1,2020.1.2,Win32,60,,,"[""space"",""space"",""space"",""space"",""space"",""space"",""space"",""space"",""space"",""space"",""space"",""space"",""space"",""space"",""space"",""space"",""space"",""space"",""space"",""space"",""space"",""space"",""space"",""space"",""space"",""space"",""space"",""space"",""space"",""space"",""space"",""space"",""space"",""space"",""space"",""space"",""space"",""space"",""space"",""space"",""space"",""space"",""space"",""space"",""space"",""space"",""space"",""space"",""space"",""space"",""space"",""space"",""space"",""space"",""space"",""space"",""space"",""space"",""space"",""space"",""space"",""space"",""space"",""space"",""space"",""space"",""space"",""space"",""space"",""space"",""space"",""space"",""space"",""space"",""space"",""space"",""space"",""space"",""space"",""space"",""space"",""space"",""space"",""space"",""space"",""space""]","[0.5058699999935925,0.733490000013262,0.9308750000200234,1.1430200000177138,1.3501750000286847,1.5631249999860302,1.7741399999940768,1.9701500000082888,2.1571100000292063,2.318245000031311,2.4891800000332296,2.6673000000300817,2.8371700000134297,3.0093000000342727,3.172339999990072,3.3283350000274368,3.488390000013169,3.666834999981802,3.843265000032261,4.021435000002384,4.197450000036042,4.380449999996927,4.573455000005197,4.764605000033043,4.941434999986086,5.128599999996368,5.320605000015348,5.502695000031963,5.706500000029337,5.88576000003377,6.0626500000362284,6.25478000001749,6.433735000027809,6.603824999998324,6.772724999987986,6.971820000035223,7.138960000011139,7.32777500001248,7.505984999996144,7.694855000008829,7.884895000024699,8.057840000023134,8.238899999996647,8.469645000004675,8.626954999985173,8.804119999986142,9.005984999996144,9.16302999999607,9.354059999983292,9.588140000007115,9.793164999980945,9.996169999998529,10.195324999978766,10.397210000024643,10.588564999983646,10.77329500002088,10.968295000027865,11.172469999990426,11.369500000029802,11.564394999993965,11.7694050000282,11.95942999998806,12.162614999979269,12.353545000019949,12.541840000019874,12.71954000002006,12.904589999991003,13.122600000002421,13.333444999996573,13.550225000013597,13.741715000011027,13.919664999993984,14.11391499999445,14.31078499997966,14.513789999997243,14.812005000014324,15.009915000002366,15.200164999987464,15.403105000033975,15.592905000026803,15.804100000008475,16.00398999999743,16.234155000012834,16.423294999985956,16.62313500000164,16.818199999979697]",space,2.251495,0.0,7.0,7.0,20.0,1.0,,,,,,,,,,,,,
,,,,,,,,,,,block_1/strong_n_72_2.wav,no,n,strong,72.0,1.592838259,18.92930084,,,,Yes,Tribit XFree Tune,1,No,f,24,R,Yes,1,2020-10-05_11h28.35.951,kura-A1,2020.1.2,Win32,60,,,"[""space"",""space"",""space"",""space"",""space"",""space"",""space"",""space"",""space"",""space"",""space"",""space"",""space"",""space"",""space"",""space"",""space"",""space"",""space"",""space"",""space""]","[0.5093099999940023,1.121404999983497,1.837534999998752,2.7406799999880604,3.607789999980014,4.4835800000000745,5.380119999987073,6.233514999970794,7.0621899999678135,7.967489999951795,8.945164999982808,9.83871999999974,10.743264999997336,11.668909999949392,12.554039999959059,13.418099999951664,14.279309999954421,15.168420000001788,16.200179999985266,17.03762999997707,17.93570999999065]",space,1.819675,0.0,8.0,8.0,30.0,1.0,,,,,,,,,,,,,
,,,,,,,,,,,block_1/medium_n_105_2.wav,no,n,medium,105.0,2.100494097,12.22140113,,,,Yes,Tribit XFree Tune,1,No,f,24,R,Yes,1,2020-10-05_11h28.35.951,kura-A1,2020.1.2,Win32,60,,,"[""space"",""space"",""space"",""space"",""space"",""space"",""space"",""space"",""space"",""space"",""space"",""space"",""space"",""space"",""space"",""space"",""space"",""space"",""space"",""space"",""space"",""space"",""space"",""space"",""space"",""space"",""space"",""space"",""space"",""space"",""space"",""space"",""space"",""space"",""space"",""space"",""space"",""space""]","[0.4432999999844469,0.7005050000152551,1.0032599999685772,1.21830000000773,1.5403199999709614,1.717464999994263,2.085544999979902,2.2684550000121817,2.5564899999881163,2.7624899999937043,3.000515000021551,3.3691349999862723,3.542780000017956,3.895719999971334,4.0736850000103,4.450754999998026,4.617800000007264,4.980854999972507,5.133519999973942,5.480964999995194,5.634000000020023,6.002939999976661,6.170960000017658,6.538989999971818,6.701130000001285,7.051165000011679,7.213095000013709,7.5602250000229105,7.736269999993965,8.117050000000745,8.269469999999274,8.646269999968354,8.791365000011865,9.147485000023153,9.584525000012945,9.783745000022464,10.167704999970738,10.351525000005495]",space,0.72235,0.0,9.0,9.0,3.0,1.0,,,,,,,,,,,,,
,,,,,,,,,,,block_1/strong_n_92_2.wav,no,n,strong,92.0,2.185421936,15.68737205,,,,Yes,Tribit XFree Tune,1,No,f,24,R,Yes,1,2020-10-05_11h28.35.951,kura-A1,2020.1.2,Win32,60,,,"[""space"",""space"",""space"",""space"",""space"",""space"",""space"",""space"",""space"",""space"",""space"",""space"",""space"",""space"",""space"",""space"",""space"",""space"",""space"",""space"",""space""]","[0.5337050000089221,0.9883799999952316,1.6234399999957532,2.1966750000137836,2.8217949999962,3.4623300000093877,4.07992499996908,4.783454999967944,5.481169999984559,6.196230000001378,6.892200000002049,7.603289999999106,8.26248500001384,8.99150499998359,9.690605000010692,10.35683499998413,11.126879999996163,11.841874999983702,12.489019999979064,13.1710599999642,13.816835000005085]",space,1.460415,0.0,10.0,10.0,39.0,1.0,,,,,,,,,,,,,
,,,,,,,,,,,block_1/weak_n_81_2.wav,no,n,weak,81.0,1.567957537,13.4515403,,,,Yes,Tribit XFree Tune,1,No,f,24,R,Yes,1,2020-10-05_11h28.35.951,kura-A1,2020.1.2,Win32,60,,,"[""space"",""space"",""space"",""space"",""space"",""space"",""space"",""space"",""space"",""space"",""space"",""space"",""space"",""space"",""space"",""space"",""space"",""space"",""space"",""space"",""space"",""space"",""space"",""space"",""space"",""space"",""space"",""space"",""space"",""space"",""space"",""space"",""space"",""space"",""space"",""space"",""space"",""space"",""space"",""space"",""space"",""space"",""space"",""space""]","[0.5046199999633245,0.7295799999847077,0.9196949999895878,1.0938149999710731,1.3937549999682233,1.5966699999989942,1.923804999969434,2.1247349999612197,2.3699199999682605,2.677994999976363,2.8700949999620207,3.2179899999755435,3.407034999981988,3.7612300000037067,3.9335100000025705,4.296195000002626,4.4890899999882095,4.8952099999878556,5.083524999965448,5.512904999952298,5.689259999955539,6.083709999977145,6.283554999972694,6.693524999951478,6.872440000006463,7.318529999989551,7.5055049999500625,7.876824999984819,8.063619999971706,8.469790000002831,8.660709999967366,9.053744999982882,9.270779999962542,9.66183999995701,9.867389999970328,10.257914999965578,10.44507999997586,10.852090000000317,10.986034999950789,11.251019999966957,11.595035000005737,11.76423499995144,12.109215000004042,12.278344999998808]",space,1.100295,0.0,11.0,11.0,32.0,1.0,,,,,,,,,,,,,
,,,,,,,,,,,block_1/strong_n_119_2.wav,no,n,strong,119.0,2.088876798,11.35100832,,,,Yes,Tribit XFree Tune,1,No,f,24,R,Yes,1,2020-10-05_11h28.35.951,kura-A1,2020.1.2,Win32,60,,,"[""space"",""space"",""space"",""space"",""space"",""space"",""space"",""space"",""space"",""space"",""space"",""space"",""space"",""space"",""space"",""space"",""space"",""space"",""space"",""space"",""space""]","[0.45019499998306856,0.9338849999476224,1.2525849999510683,1.6254749999498017,2.0917349999654107,2.5316299999831244,2.9888199999695644,3.4118000000016764,3.9004299999796785,4.3588849999941885,4.7899299999699,5.239144999999553,5.720079999999143,6.158199999947101,6.65029499999946,7.0944000000017695,7.575459999963641,8.033654999977443,8.533589999948163,9.005539999983739,9.477754999999888]",space,0.659565,0.0,12.0,12.0,17.0,1.0,,,,,,,,,,,,,
,,,,,,,,,,,block_1/strong_n_105_1.wav,no,n,strong,105.0,1.182925411,14.58124741,,,,Yes,Tribit XFree Tune,1,No,f,24,R,Yes,1,2020-10-05_11h28.35.951,kura-A1,2020.1.2,Win32,60,,,"[""space"",""space"",""space"",""space"",""space"",""space"",""space"",""space"",""space"",""space"",""space"",""space"",""space"",""space"",""space"",""space"",""space"",""space"",""space"",""space"",""space""]","[0.6270599999697879,1.2466699999640696,1.8285649999743327,2.4308799999998882,3.055019999970682,3.692064999951981,4.370114999997895,5.028200000000652,5.6933699999935925,6.3564799999585375,7.001629999955185,7.612604999972973,8.285619999980554,8.904244999983348,9.59484999999404,10.230849999992643,10.917029999953229,11.546104999957606,12.238179999985732,12.880349999992177,13.501459999999497]",space,1.26434,0.0,13.0,13.0,13.0,1.0,,,,,,,,,,,,,
,,,,,,,,,,,block_1/strong_n_92_1.wav,no,n,strong,92.0,1.355123487,13.84328675,,,,Yes,Tribit XFree Tune,1,No,f,24,R,Yes,1,2020-10-05_11h28.35.951,kura-A1,2020.1.2,Win32,60,,,"[""space"",""space"",""space"",""space"",""space"",""space"",""space"",""space"",""space"",""space"",""space"",""space"",""space"",""space"",""space"",""space"",""space"",""space"",""space"",""space"",""space""]","[0.525359999970533,1.1094900000025518,1.6185050000203773,2.2012199999880977,2.7867800000240095,3.406684999994468,4.040794999978971,4.700190000003204,5.321040000009816,5.950320000003558,6.607354999985546,7.226250000006985,7.8945999999996275,8.4668599999859,9.116834999993443,9.806589999992866,10.333749999990687,10.992889999994077,11.512975000019651,12.183919999981299,12.807640000013635]",space,0.900425,0.0,14.0,14.0,37.0,1.0,,,,,,,,,,,,,
,,,,,,,,,,,block_1/medium_n_92_1.wav,no,n,medium,92.0,2.383742627,17.50115759,,,,Yes,Tribit XFree Tune,1,No,f,24,R,Yes,1,2020-10-05_11h28.35.951,kura-A1,2020.1.2,Win32,60,,,"[""space"",""space"",""space"",""space"",""space"",""space"",""space"",""space"",""space"",""space"",""space"",""space"",""space"",""space"",""space"",""space"",""space"",""space"",""space"",""space"",""space"",""space"",""space"",""space"",""space"",""space"",""space"",""space"",""space"",""space"",""space"",""space"",""space"",""space"",""space"",""space"",""space"",""space"",""space"",""space"",""space"",""space"",""space"",""space"",""space"",""space"",""space"",""space"",""space"",""space"",""space""]","[0.38564499997301027,0.639664999966044,0.9358699999866076,1.3017699999618344,1.4648600000073202,1.8448199999984354,2.009989999991376,2.4290749999927357,2.607964999973774,2.9641349999583326,3.218124999955762,3.607144999958109,3.787190000002738,4.296180000004824,4.460319999954663,5.016839999996591,5.180430000007618,5.738045000005513,5.9334649999509566,6.617084999976214,6.786529999983031,7.3387649999931455,7.52474500000244,8.170749999990221,8.329729999997653,8.816804999951273,9.163919999962673,9.333634999988135,9.747114999976475,9.960084999969695,10.135004999989178,10.505154999962542,10.762059999979101,10.924109999963548,11.321315000008326,11.562154999992345,11.705304999952205,12.154329999990296,12.388304999971297,12.533534999995027,12.966974999988452,13.139510000008158,13.304539999982808,13.711674999969546,13.93378500000108,14.07764999999199,14.500709999992978,14.700190000003204,14.862679999961983,15.269744999997783,15.50027499999851]",space,1.398325,0.0,15.0,15.0,5.0,1.0,,,,,,,,,,,,,
,,,,,,,,,,,block_1/medium_n_105_1.wav,no,n,medium,105.0,2.470231961,15.66819115,,,,Yes,Tribit XFree Tune,1,No,f,24,R,Yes,1,2020-10-05_11h28.35.951,kura-A1,2020.1.2,Win32,60,,,"[""space"",""space"",""space"",""space"",""space"",""space"",""space"",""space"",""space"",""space"",""space"",""space"",""space"",""space"",""space"",""space"",""space"",""space"",""space"",""space"",""space"",""space"",""space"",""space"",""space"",""space"",""space"",""space"",""space"",""space"",""space"",""space"",""space"",""space"",""space"",""space"",""space"",""space"",""space"",""space"",""space"",""space"",""space"",""space"",""space"",""space"",""space"",""space"",""space"",""space"",""space"",""space"",""space"",""space"",""space"",""space"",""space"",""space"",""space""]","[0.41736500000115484,0.7366550000151619,0.9965100000263192,1.2086600000038743,1.3965249999891967,1.5806200000224635,1.8016700000152923,1.9966150000109337,2.2386500000138767,2.4447350000264123,2.618819999974221,2.79398499999661,2.969920000003185,3.140934999973979,3.3577749999822117,3.554969999997411,3.7628849999746308,3.9420999999856576,4.167060000007041,4.374079999979585,4.588980000000447,4.806144999980461,4.975150000012945,5.161179999995511,5.355189999972936,5.568244999973103,5.770190000010189,5.9782000000122935,6.184339999977965,6.386315000010654,6.564300000027288,6.762280000024475,6.9523300000000745,7.178439999988768,7.388465000025462,7.613000000012107,7.8170350000145845,8.018504999985453,8.309874999977183,8.533654999977443,8.800210000015795,9.03768000000855,9.28765499999281,9.48981499997899,9.866949999995995,10.043714999977965,10.428810000012163,10.640970000007655,10.854014999989886,11.239995000010822,11.429999999993015,11.636954999994487,11.933484999986831,12.125289999996312,12.577214999997523,12.733509999990929,13.163210000027902,13.374254999973346,13.638289999973495]",space,1.607115,0.0,16.0,16.0,7.0,1.0,,,,,,,,,,,,,
,,,,,,,,,,,block_1/none_n_105_1.wav,no,n,none,105.0,1.562974393,15.68542337,,,,Yes,Tribit XFree Tune,1,No,f,24,R,Yes,1,2020-10-05_11h28.35.951,kura-A1,2020.1.2,Win32,60,,,"[""space"",""space"",""space"",""space"",""space"",""space"",""space"",""space"",""space"",""space"",""space"",""space"",""space"",""space"",""space"",""space"",""space"",""space"",""space"",""space"",""space"",""space"",""space"",""space"",""space"",""space"",""space"",""space"",""space"",""space"",""space"",""space"",""space"",""space"",""space"",""space"",""space"",""space"",""space"",""space"",""space"",""space"",""space"",""space"",""space"",""space"",""space"",""space"",""space"",""space"",""space"",""space"",""space"",""space"",""space"",""space"",""space"",""space"",""space"",""space"",""space"",""space"",""space"",""space"",""space"",""space"",""space"",""space"",""space"",""space"",""space"",""space"",""space"",""space""]","[0.37273499998264015,0.6733600000152364,0.8710849999915808,1.1462150000152178,1.3583299999590963,1.55066499998793,1.7273350000032224,1.9264449999900535,2.1453350000083447,2.3703849999583326,2.5874600000097416,2.792394999996759,2.987829999998212,3.1936400000122376,3.3955449999775738,3.58752000000095,3.7168349999701604,3.9395999999833293,4.133540000009816,4.313625000009779,4.500224999967031,4.669614999962505,4.853839999996126,5.019809999968857,5.161744999990333,5.338729999959469,5.498229999968316,5.659829999960493,5.824989999993704,5.977979999966919,6.127919999998994,6.291859999997541,6.478899999987334,6.659029999980703,6.840024999983143,6.993979999970179,7.150239999988116,7.3080750000081025,7.580119999998715,7.789199999999255,8.001104999973904,8.173164999985602,8.350159999972675,8.467249999986961,8.65757499996107,8.89124999998603,9.100195000006352,9.312444999988656,9.541414999985136,9.735530000005383,9.939520000014454,10.129435000009835,10.324469999992289,10.533609999984037,10.738469999982044,10.937960000010207,11.123610000009649,11.32359499996528,11.542674999975134,11.751709999982268,11.960674999980256,12.162719999963883,12.38467999995919,12.593794999993406,12.809919999970589,13.027904999966267,13.246884999971371,13.44297999999253,13.629000000015367,13.812095000001136,13.962919999961741,14.12696500000311,14.328960000013467,14.529994999989867]",space,1.894615,0.0,17.0,17.0,0.0,1.0,,,,,,,,,,,,,
,,,,,,,,,,,block_1/weak_n_105_2.wav,no,n,weak,105.0,1.25756433,14.19910628,,,,Yes,Tribit XFree Tune,1,No,f,24,R,Yes,1,2020-10-05_11h28.35.951,kura-A1,2020.1.2,Win32,60,,,"[""space"",""space"",""space"",""space"",""space"",""space"",""space"",""space"",""space"",""space"",""space"",""space"",""space"",""space"",""space"",""space"",""space"",""space"",""space"",""space"",""space"",""space"",""space"",""space"",""space"",""space"",""space"",""space"",""space"",""space"",""space"",""space"",""space"",""space"",""space"",""space"",""space"",""space"",""space"",""space"",""space"",""space"",""space"",""space"",""space"",""space"",""space"",""space"",""space"",""space"",""space"",""space"",""space"",""space"",""space"",""space"",""space"",""space"",""space"",""space""]","[0.3901799999875948,0.642264999973122,0.8021200000075623,0.9835449999663979,1.1482349999714643,1.335259999963455,1.5168449999764562,1.7148900000029244,1.8972549999598414,2.0913999999756925,2.3203799999901094,2.496355000010226,2.686424999963492,2.8924000000115484,3.0895649999729358,3.294484999962151,3.5003499999875203,3.700574999966193,3.900150000001304,4.109539999975823,4.310679999995045,4.578645000001416,4.810674999956973,5.046719999983907,5.286800000001676,5.505750000011176,5.707824999990407,5.9008649999741465,6.085849999974016,6.278965000004973,6.4549649999826215,6.698080000001937,6.893129999982193,7.108970000001136,7.322989999956917,7.548199999961071,7.764179999998305,7.99311999999918,8.22016500000609,8.447189999977127,8.668294999981299,8.8963399999775,9.143284999998286,9.359434999991208,9.569499999983236,9.77354500000365,10.166924999968614,10.35160499997437,10.668454999977257,10.852514999976847,11.197739999974146,11.383899999957066,11.591769999999087,11.900314999977127,12.10025499999756,12.268794999981765,12.552785000007134,12.755769999988843,13.01686500001233,13.246029999980237]",space,1.52631,0.0,18.0,18.0,26.0,1.0,,,,,,,,,,,,,
,,,,,,,,,,,block_1/weak_n_92_2.wav,no,n,weak,92.0,1.763778337,14.00087584,,,,Yes,Tribit XFree Tune,1,No,f,24,R,Yes,1,2020-10-05_11h28.35.951,kura-A1,2020.1.2,Win32,60,,,"[""space"",""space"",""space"",""space"",""space"",""space"",""space"",""space"",""space"",""space"",""space"",""space"",""space"",""space"",""space"",""space"",""space"",""space"",""space"",""space"",""space"",""space"",""space"",""space"",""space"",""space"",""space"",""space"",""space"",""space"",""space"",""space"",""space"",""space"",""space"",""space"",""space"",""space"",""space"",""space"",""space"",""space"",""space"",""space"",""space"",""space"",""space"",""space"",""space"",""space"",""space"",""space"",""space"",""space"",""space"",""space"",""space""]","[0.4675299999653362,0.687694999971427,0.8668699999689125,1.045769999967888,1.2182799999718554,1.5338549999869429,1.6886649999651127,1.8287099999724887,2.078884999966249,2.2557899999665096,2.4502249999786727,2.677915000007488,2.857994999969378,3.034914999967441,3.267959999968298,3.446909999998752,3.6168849999667145,3.840039999980945,4.018004999961704,4.200420000008307,4.517809999990277,4.71820000000298,4.931494999967981,5.166859999997541,5.368284999975003,5.578249999962281,5.828355000005104,6.005294999980833,6.3354899999685585,6.507394999964163,6.841599999985192,7.0215449999668635,7.162435000005644,7.491470000008121,7.68767499999376,7.950639999995474,8.171704999986105,8.36685499997111,8.709799999953248,8.910834999987856,9.083534999983385,9.394784999953117,9.580799999996088,9.744859999977052,10.00987000000896,10.196865000005346,10.39314999995986,10.60016499995254,10.768509999965318,11.06711499998346,11.250319999991916,11.433579999953508,11.794099999999162,11.980129999981727,12.140164999989793,12.442219999968074,12.625219999987166]",space,0.809405,0.0,19.0,19.0,6.0,1.0,,,,,,,,,,,,,
,,,,,,,,,,,block_1/medium_n_81_1.wav,no,n,medium,81.0,1.755173496,15.75716896,,,,Yes,Tribit XFree Tune,1,No,f,24,R,Yes,1,2020-10-05_11h28.35.951,kura-A1,2020.1.2,Win32,60,,,"[""space"",""space"",""space"",""space"",""space"",""space"",""space"",""space"",""space"",""space"",""space"",""space"",""space"",""space"",""space"",""space"",""space"",""space"",""space"",""space"",""space"",""space"",""space"",""space"",""space"",""space"",""space"",""space"",""space"",""space"",""space"",""space"",""space"",""space"",""space"",""space"",""space"",""space"",""space"",""space"",""space"",""space"",""space"",""space"",""space"",""space"",""space"",""space"",""space"",""space"",""space"",""space"",""space"",""space"",""space"",""space"",""space"",""space"",""space"",""space"",""space""]","[0.3738850000081584,0.5348550000344403,0.7050150000141002,1.0199150000116788,1.1760249999933876,1.5109750000410713,1.6850900000426918,1.8432050000410527,2.245185000007041,2.390190000005532,2.53351500001736,2.925229999993462,3.0793200000189245,3.2433450000244193,3.6144250000361353,3.781684999994468,3.9273950000060722,4.310610000044107,4.472570000041742,4.614465000049677,5.011555000033695,5.166960000002291,5.3196450000396,5.72759500000393,5.874580000003334,6.050210000015795,6.411690000037197,6.561760000011418,6.706815000041388,7.071939999994356,7.2339450000436045,7.393800000019837,7.726005000004079,7.918880000011995,8.039875000016764,8.20591499999864,8.509575000032783,8.69713500002399,8.859215000004042,9.266839999996591,9.450280000048224,9.668140000023413,9.98148499999661,10.176350000023376,10.3232699999935,10.73364000004949,10.879285000031814,11.40056000003824,11.569465000007767,11.700135000050068,12.092555000039283,12.272534999996424,12.410570000007283,12.783730000024661,12.966815000050701,13.100120000017341,13.453789999999572,13.619770000048447,13.786710000014864,14.156810000014957,14.327780000050552]",space,1.47255,0.0,20.0,20.0,31.0,1.0,,,,,,,,,,,,,
,,,,,,,,,,,block_1/medium_n_72_1.wav,no,n,medium,72.0,1.188923945,17.15940014,,,,Yes,Tribit XFree Tune,1,No,f,24,R,Yes,1,2020-10-05_11h28.35.951,kura-A1,2020.1.2,Win32,60,,,"[""space"",""space"",""space"",""space"",""space"",""space"",""space"",""space"",""space"",""space"",""space"",""space"",""space"",""space"",""space"",""space"",""space"",""space"",""space"",""space"",""space"",""space"",""space"",""space"",""space"",""space"",""space"",""space"",""space"",""space"",""space"",""space"",""space"",""space"",""space"",""space"",""space"",""space"",""space"",""space"",""space"",""space"",""space"",""space"",""space"",""space"",""space"",""space"",""space"",""space"",""space"",""space"",""space"",""space""]","[0.3790349999908358,0.5355100000160746,0.8475350000080653,1.000125000020489,1.164809999987483,1.710625000006985,1.8396749999956228,1.9806099999696016,2.6117249999661,2.7777149999747053,2.9289349999744445,3.403829999966547,3.5448900000192225,3.7002900000079535,3.916989999997895,4.258024999988265,4.43378500000108,4.562084999983199,5.029255000001285,5.179034999979194,5.334154999989551,5.72336499998346,5.898189999978058,6.1169799999915995,6.650344999972731,6.8212949999724515,6.959274999971967,7.386520000000019,7.53954500000691,7.709464999963529,8.163499999966007,8.304539999982808,8.426534999976866,8.992689999984577,9.141594999993686,9.780870000016876,9.916830000001937,10.594845000014175,10.75398999999743,11.450354999979027,11.587094999966212,12.207209999964107,12.347315000020899,13.066829999967013,13.225199999986216,13.951394999981858,14.083609999972396,14.746500000008382,14.844515000004321,14.99762500001816,15.556704999995418,15.703630000003614,16.27866999997059,16.435874999966472]",space,1.45644,0.0,21.0,21.0,10.0,1.0,,,,,,,,,,,,,
,,,,,,,,,,,block_1/strong_n_72_1.wav,no,n,strong,72.0,1.207870441,16.92877747,,,,Yes,Tribit XFree Tune,1,No,f,24,R,Yes,1,2020-10-05_11h28.35.951,kura-A1,2020.1.2,Win32,60,,,"[""space"",""space"",""space"",""space"",""space"",""space"",""space"",""space"",""space"",""space"",""space"",""space"",""space"",""space"",""space"",""space"",""space"",""space"",""space"",""space"",""space""]","[0.46021499997004867,1.0850499999942258,1.9005799999576993,2.6976399999693967,3.4636699999682605,4.23871499998495,5.0568599999533035,5.851139999984298,6.667319999949541,7.478364999988116,8.270359999965876,9.075444999965839,9.852584999985993,10.641719999955967,11.476459999976214,12.290124999999534,13.104024999949615,13.943304999964312,14.757354999950621,15.545339999953285,16.296524999954272]",space,1.13557,0.0,22.0,22.0,33.0,1.0,,,,,,,,,,,,,
,,,,,,,,,,,block_1/weak_n_72_2.wav,no,n,weak,72.0,2.426446225,22.38744396,,,,Yes,Tribit XFree Tune,1,No,f,24,R,Yes,1,2020-10-05_11h28.35.951,kura-A1,2020.1.2,Win32,60,,,"[""space"",""space"",""space"",""space"",""space"",""space"",""space"",""space"",""space"",""space"",""space"",""space"",""space"",""space"",""space"",""space"",""space"",""space"",""space"",""space"",""space"",""space"",""space"",""space"",""space"",""space"",""space"",""space"",""space"",""space"",""space"",""space"",""space"",""space"",""space"",""space"",""space"",""space"",""space"",""space"",""space"",""space"",""space"",""space"",""space"",""space"",""space"",""space"",""space"",""space"",""space"",""space"",""space"",""space"",""space"",""space"",""space"",""space"",""space"",""space"",""space"",""space"",""space"",""space"",""space"",""space"",""space"",""space"",""space"",""space"",""space"",""space"",""space"",""space"",""space"",""space"",""space"",""space"",""space"",""space"",""space"",""space"",""space"",""space"",""space"",""space"",""space"",""space"",""space""]","[0.44662499998230487,0.6607150000054389,0.986269999993965,1.1796249999897555,1.3458199999877252,1.4787299999734387,1.879839999950491,2.0687549999565817,2.4519599999766797,2.6418249999987893,2.8718949999893084,3.0689349999884143,3.2378849999513477,3.387899999972433,3.55021499999566,3.893004999961704,4.250254999962635,4.425164999964181,4.633524999953806,4.843179999967106,5.197309999959543,5.351219999953173,5.514224999991711,5.775344999972731,5.944294999993872,6.123299999977462,6.295469999953639,6.4383449999731965,6.779439999954775,6.95248499995796,7.11712999996962,7.228574999957345,7.36451499996474,7.772735000005923,7.933739999949466,8.074739999952726,8.41696999996202,8.883860000001732,9.061839999980293,9.262944999965839,9.469784999964759,9.883864999981597,10.123074999952223,10.364014999999199,10.574099999968894,10.76410999998916,11.162824999948498,11.351165000000037,11.54426999995485,11.74411999998847,11.956179999979213,12.186189999978524,12.40834999998333,12.644244999974035,12.91123999998672,13.205304999952205,13.369484999973793,13.539324999961536,13.786540000000969,14.24655999999959,14.440559999959078,14.626494999974966,14.906740000005811,15.093544999952428,15.274584999948274,15.434695000003558,15.602610000001732,15.787669999990612,16.051669999957085,16.227725000004284,16.42687999998452,16.611009999993257,16.78383499995107,17.018929999961983,17.204934999987017,17.38703499996336,17.567079999949783,17.71296999999322,17.876064999960363,18.350234999961685,18.529379999963567,18.676184999989346,19.074239999987185,19.250214999949094,19.438194999995176,19.594184999994468,19.74721999996109,19.872195000003558,20.117310000001453]",space,0.874305,0.0,23.0,23.0,11.0,1.0,,,,,,,,,,,,,
,,,,,,,,,,,block_1/medium_n_81_2.wav,no,n,medium,81.0,2.424750646,16.12729033,,,,Yes,Tribit XFree Tune,1,No,f,24,R,Yes,1,2020-10-05_11h28.35.951,kura-A1,2020.1.2,Win32,60,,,"[""space"",""space"",""space"",""space"",""space"",""space"",""space"",""space"",""space"",""space"",""space"",""space"",""space"",""space"",""space"",""space"",""space"",""space"",""space"",""space"",""space"",""space"",""space"",""space"",""space"",""space"",""space"",""space"",""space"",""space"",""space"",""space"",""space"",""space"",""space"",""space"",""space"",""space"",""space"",""space"",""space"",""space"",""space"",""space"",""space"",""space"",""space"",""space"",""space"",""space"",""space"",""space"",""space"",""space"",""space"",""space"",""space""]","[0.4916199999861419,0.6945100000011735,0.8344400000059977,1.0034800000139512,1.1435799999744631,1.3188549999613315,1.4946249999920838,1.6426600000122562,1.9786399999866262,2.1636449999641627,2.2948749999632128,2.4196849999716505,2.783464999985881,2.9448299999930896,3.0698299999930896,3.462854999990668,3.6559249999700114,3.7529949999880046,4.224984999978915,4.387040000001434,4.554024999961257,4.937274999974761,5.108154999965336,5.2531749999616295,5.6621699999668635,5.826154999958817,6.033530000015162,6.408384999958798,6.572219999972731,7.006369999959134,7.176384999998845,7.687084999983199,7.853479999990668,8.055464999983087,8.450704999966547,8.64458999998169,8.813945000001695,9.150190000014845,9.340724999958184,9.500230000005104,9.88078999996651,10.067019999958575,10.221904999983963,10.601839999959338,10.928024999971967,11.338089999975637,11.514135000004899,11.685109999962151,12.072014999983367,12.251069999998435,12.668219999992289,12.883484999998473,13.059290000004694,13.360285000002477,13.564294999989215,13.716810000012629,13.972260000009555]",space,0.91917,0.0,24.0,24.0,34.0,1.0,,,,,,,,,,,,,
,,,,,,,,,,,block_1/weak_n_92_1.wav,no,n,weak,92.0,2.164314711,15.90903126,,,,Yes,Tribit XFree Tune,1,No,f,24,R,Yes,1,2020-10-05_11h28.35.951,kura-A1,2020.1.2,Win32,60,,,"[""space"",""space"",""space"",""space"",""space"",""space"",""space"",""space"",""space"",""space"",""space"",""space"",""space"",""space"",""space"",""space"",""space"",""space"",""space"",""space"",""space"",""space"",""space"",""space"",""space"",""space"",""space"",""space"",""space"",""space"",""space"",""space"",""space"",""space"",""space"",""space"",""space"",""space"",""space"",""space"",""space"",""space"",""space"",""space"",""space"",""space"",""space"",""space"",""space"",""space"",""space"",""space"",""space"",""space"",""space"",""space"",""space"",""space"",""space"",""space""]","[0.4191899999859743,0.6096149999648333,0.7646550000063144,0.9176950000110082,1.0865650000050664,1.22164000000339,1.383609999960754,1.5586100000073202,1.7408299999660812,2.1237550000078045,2.290724999969825,2.450810000009369,2.8708950000000186,2.994929999986198,3.1618749999906868,3.5220749999862164,3.684019999986049,3.8680149999563582,4.217184999957681,4.372244999976829,4.7761699999682605,4.956234999990556,5.359259999997448,5.52123000001302,5.735064999957103,6.1433149999938905,6.310360000003129,6.508449999964796,6.800249999971129,6.971495000005234,7.390659999975469,7.5554750000010245,7.72353999997722,8.144519999972545,8.303695000009611,8.517159999988507,8.809754999994766,8.980829999956768,9.380839999997988,9.55018999997992,9.724724999978207,10.108884999994189,10.288024999957997,10.484360000002198,10.789954999985639,10.976094999990892,11.158004999975674,11.512140000006184,11.719169999996666,11.90039500000421,12.075089999998454,12.362304999958724,12.545199999993201,12.74621000001207,12.983804999967106,13.175255000009201,13.400389999966137,13.625520000001416,13.833944999962114,14.030455000000075]",space,0.53714,0.0,25.0,25.0,2.0,1.0,,,,,,,,,,,,,
,,,,,,,,,,,block_1/strong_n_105_2.wav,no,n,strong,105.0,2.465472491,15.61086932,,,,Yes,Tribit XFree Tune,1,No,f,24,R,Yes,1,2020-10-05_11h28.35.951,kura-A1,2020.1.2,Win32,60,,,"[""space"",""space"",""space"",""space"",""space"",""space"",""space"",""space"",""space"",""space"",""space"",""space"",""space"",""space"",""space"",""space"",""space"",""space"",""space"",""space"",""space""]","[0.6629049999755807,1.1310899999807589,1.7537000000011176,2.369109999970533,2.985289999982342,3.654244999983348,4.32533500000136,4.958634999988135,5.626664999988861,6.240734999999404,6.906864999968093,7.550225000013597,8.202029999985825,8.834195000003092,9.533820000011474,10.196140000014566,10.829289999965113,11.462479999987409,12.120409999974072,12.800244999991264,13.457579999987502]",space,0.56033,0.0,26.0,26.0,9.0,1.0,,,,,,,,,,,,,
,,,,,,,,,,,block_1/medium_n_119_2.wav,no,n,medium,119.0,1.29591098,10.35291778,,,,Yes,Tribit XFree Tune,1,No,f,24,R,Yes,1,2020-10-05_11h28.35.951,kura-A1,2020.1.2,Win32,60,,,"[""space"",""space"",""space"",""space"",""space"",""space"",""space"",""space"",""space"",""space"",""space"",""space"",""space"",""space"",""space"",""space"",""space"",""space"",""space"",""space"",""space"",""space"",""space"",""space"",""space"",""space"",""space"",""space"",""space"",""space"",""space"",""space"",""space"",""space"",""space"",""space"",""space"",""space"",""space"",""space"",""space"",""space"",""space"",""space"",""space"",""space"",""space"",""space""]","[0.44603000005008653,0.6180250000325032,0.7630850000423379,0.9122300000162795,1.0522000000346452,1.2012000000104308,1.3169050000142306,1.4951150000561029,1.6372450000490062,1.793115000007674,1.9612500000512227,2.316850000002887,2.6003550000023097,2.7712800000444986,2.9432750000269152,3.1355050000129268,3.313670000003185,3.485415000002831,3.650225000048522,3.822470000013709,4.0104600000195205,4.222540000046138,4.3927150000236,4.587725000048522,4.821295000030659,5.001720000000205,5.224675000004936,5.433520000020508,5.857755000004545,6.034845000016503,6.223925000056624,6.413925000000745,6.61697000003187,6.795895000046585,6.984995000006165,7.1834750000271015,7.353085000009742,7.643145000038203,7.83383000001777,8.01113500003703,8.192040000052657,8.388335000025108,8.547090000007302,8.727195000043139,8.933580000011716,9.117090000014286,9.287240000034217,9.483495000051335]",space,0.483685,0.0,27.0,27.0,21.0,1.0,,,,,,,,,,,,,
,,,,,,,,,,,block_1/none_n_92_2.wav,no,n,none,92.0,1.514588051,14.14982615,,,,Yes,Tribit XFree Tune,1,No,f,24,R,Yes,1,2020-10-05_11h28.35.951,kura-A1,2020.1.2,Win32,60,,,"[""space"",""space"",""space"",""space"",""space"",""space"",""space"",""space"",""space"",""space"",""space"",""space"",""space"",""space"",""space"",""space"",""space"",""space"",""space"",""space"",""space"",""space"",""space"",""space"",""space"",""space"",""space"",""space"",""space"",""space"",""space"",""space"",""space"",""space"",""space"",""space"",""space"",""space"",""space"",""space"",""space"",""space"",""space"",""space"",""space"",""space"",""space"",""space"",""space"",""space"",""space"",""space"",""space"",""space"",""space"",""space"",""space"",""space"",""space"",""space"",""space"",""space""]","[0.4453450000146404,0.6783950000535697,0.8455750000430271,1.0294900000444613,1.2005400000489317,1.3745700000436045,1.5536800000118092,1.744795000005979,1.922710000013467,2.1057550000259653,2.2787650000536814,2.4583700000075623,2.653870000038296,2.839940000034403,3.0420450000092387,3.2359200000064448,3.419820000010077,3.625850000011269,3.8389550000429153,4.037980000022799,4.240020000026561,4.45022500003688,4.652029999997467,4.833515000005718,5.039130000048317,5.239250000042375,5.435195000027306,5.6462049999972805,5.845275000028778,6.0512650000164285,6.500270000018645,6.6413700000266545,6.850190000026487,7.050275000045076,7.268380000023171,7.494555000041146,7.703525000018999,7.892555000027642,8.086585000040941,8.28376500000013,8.49655000003986,8.708500000007916,8.895645000040531,9.1416400000453,9.3287400000263,9.513820000051055,9.69180500000948,9.990190000040457,10.17573000001721,10.351875000051223,10.5335400000331,10.69090500002494,10.851935000042431,11.033585000026505,11.22889500000747,11.416840000019874,11.593990000023041,11.762030000041705,11.952990000019781,12.350475000042934,12.733615000033751,12.920135000022128]",space,1.75699,0.0,28.0,28.0,23.0,1.0,,,,,,,,,,,,,
,,,,,,,,,,,block_1/medium_n_119_1.wav,no,n,medium,119.0,1.649869951,11.21667267,,,,Yes,Tribit XFree Tune,1,No,f,24,R,Yes,1,2020-10-05_11h28.35.951,kura-A1,2020.1.2,Win32,60,,,"[""space"",""space"",""space"",""space"",""space"",""space"",""space"",""space"",""space"",""space"",""space"",""space"",""space"",""space"",""space"",""space"",""space"",""space"",""space"",""space"",""space"",""space"",""space"",""space"",""space"",""space"",""space"",""space"",""space"",""space"",""space"",""space"",""space"",""space"",""space"",""space"",""space"",""space"",""space"",""space"",""space"",""space"",""space""]","[0.48349499999312684,0.7088700000313111,0.8619049999979325,1.039969999983441,1.2280899999896064,1.3931650000158697,1.5579799999832176,1.7530600000172853,1.9240650000283495,2.157225000031758,2.3742700000293553,2.5561650000163354,2.7691450000274926,2.9532250000047497,3.205275000014808,3.405269999988377,3.5835899999947287,3.7974750000284985,3.985370000009425,4.258410000009462,4.4573700000182725,4.727439999987837,4.931534999981523,5.2642350000096485,5.41457000002265,5.7536350000300445,5.921595000021625,6.214834999991581,6.387670000025537,6.705805000034161,6.879735000024084,7.186755000031553,7.37003500002902,7.69489500002237,7.883484999998473,8.177934999985155,8.324965000036173,8.603270000021439,8.784054999996442,9.159155000001192,9.340064999996684,9.684095000033267,9.844145000039134]",space,0.48991,0.0,29.0,29.0,24.0,1.0,,,,,,,,,,,,,
,,,,,,,,,,,block_1/weak_n_119_1.wav,no,n,weak,119.0,2.415285966,11.72966238,,,,Yes,Tribit XFree Tune,1,No,f,24,R,Yes,1,2020-10-05_11h28.35.951,kura-A1,2020.1.2,Win32,60,,,"[""space"",""space"",""space"",""space"",""space"",""space"",""space"",""space"",""space"",""space"",""space"",""space"",""space"",""space"",""space"",""space"",""space"",""space"",""space"",""space"",""space"",""space"",""space"",""space"",""space"",""space"",""space"",""space"",""space"",""space"",""space"",""space"",""space"",""space"",""space"",""space"",""space"",""space"",""space"",""space"",""space"",""space"",""space"",""space"",""space"",""space""]","[0.471529999980703,0.6537749999552034,0.8335300000035204,1.0008449999731965,1.1923449999885634,1.3737249999539927,1.5508200000040233,1.7638799999840558,1.9181799999787472,2.087904999963939,2.3429100000066683,2.4789999999920838,2.6689349999651313,2.860854999977164,3.0569599999580532,3.254350000002887,3.4580999999889173,3.6630149999982677,3.863149999990128,4.072184999997262,4.2670649999636225,4.459244999976363,4.661184999975376,4.8683149999706075,5.074214999971446,5.269280000007711,5.47625499998685,5.658279999974184,5.847384999971837,6.033569999970496,6.234034999972209,6.436564999981783,6.652434999996331,6.839454999950249,7.042584999988321,7.252099999983329,7.4536649999790825,7.788714999973308,7.979619999998249,8.20683999999892,8.371645000006538,8.602659999975003,8.809849999961443,9.012864999996964,9.194924999959767,9.4278049999848]",space,1.733635,0.0,30.0,30.0,38.0,1.0,,,,,,,,,,,,,
,,,,,,,,,,,block_1/none_n_72_2.wav,no,n,none,72.0,1.052198767,23.70630308,,,,Yes,Tribit XFree Tune,1,No,f,24,R,Yes,1,2020-10-05_11h28.35.951,kura-A1,2020.1.2,Win32,60,,,"[""space"",""space"",""space"",""space"",""space"",""space"",""space"",""space"",""space"",""space"",""space"",""space"",""space"",""space"",""space"",""space"",""space"",""space"",""space"",""space"",""space"",""space"",""space"",""space"",""space"",""space"",""space"",""space"",""space"",""space"",""space"",""space"",""space"",""space"",""space"",""space"",""space"",""space"",""space"",""space"",""space"",""space"",""space"",""space"",""space"",""space"",""space"",""space"",""space"",""space"",""space"",""space"",""space"",""space"",""space"",""space"",""space"",""space"",""space"",""space"",""space"",""space"",""space"",""space"",""space"",""space"",""space"",""space"",""space"",""space"",""space"",""space"",""space"",""space"",""space"",""space"",""space"",""space"",""space"",""space"",""space"",""space"",""space"",""space"",""space"",""space"",""space"",""space"",""space"",""space"",""space"",""space"",""space"",""space"",""space"",""space"",""space"",""space"",""space"",""space"",""space"",""space"",""space"",""space"",""space"",""space"",""space"",""space"",""space"",""space"",""space"",""space""]","[0.4446199999656528,0.6334599999827333,0.8116049999953248,1.0007949999999255,1.174814999976661,1.3476649999502115,1.5170049999724142,1.6839150000014342,1.8197849999996834,2.0170799999614246,2.1917999999714084,2.372994999983348,2.537944999989122,2.7208949999767356,2.8835399999516085,3.0810049999854527,3.2560199999716133,3.4671499999822117,3.6581899999873713,3.8669349999981932,4.0680649999994785,4.266839999996591,4.453169999993406,4.653315000003204,4.8542799999704584,5.0463699999963865,5.264234999951441,5.460344999970403,5.664384999952745,5.837484999967273,6.010459999961313,6.229434999986552,6.390379999997094,6.600454999948852,6.813414999982342,7.0366700000013225,7.222634999954607,7.400659999984782,7.671629999997094,7.859594999987166,8.028705000004265,8.20474999997532,8.376764999993611,8.578834999992978,8.800404999987222,8.976474999974016,9.200274999951944,9.400434999959543,9.60483500000555,9.810904999962077,10.028879999998026,10.235939999984112,10.42204999999376,10.629984999948647,10.843169999949168,11.052124999987427,11.250429999956395,11.428134999994654,11.606174999964423,11.871169999998529,12.080209999985527,12.274239999998827,12.471319999953266,12.672389999963343,12.86124999995809,13.036499999987427,13.227339999983087,13.410329999984242,13.61695499997586,13.795504999987315,13.992649999971036,14.166849999979604,14.366834999993443,14.569539999996778,14.772564999992028,14.97757999994792,15.192614999949,15.37273499998264,15.571854999987409,15.779189999972004,15.983589999959804,16.1699849999859,16.744859999977052,16.947964999999385,17.31797499995446,17.516979999956675,17.71718499995768,17.90708499995526,18.125139999960084,18.338229999993928,18.564104999997653,18.76411999994889,18.969179999956395,19.18584499997087,19.525399999984074,19.725324999948498,19.93037999997614,20.130424999981187,20.32428499998059,20.49543499998981,20.69549499999266,20.881460000004154,21.037409999989904,21.241449999972247,21.416879999975208,21.57648499996867,21.762814999965485,21.944599999987986,22.320709999999963,22.510649999952875,22.68346999998903,22.867109999991953]",space,1.36796,0.0,31.0,31.0,16.0,1.0,,,,,,,,,,,,,
,,,,,,,,,,,block_1/none_n_119_1.wav,no,n,none,119.0,2.383659144,14.54474758,,,,Yes,Tribit XFree Tune,1,No,f,24,R,Yes,1,2020-10-05_11h28.35.951,kura-A1,2020.1.2,Win32,60,,,"[""space"",""space"",""space"",""space"",""space"",""space"",""space"",""space"",""space"",""space"",""space"",""space"",""space"",""space"",""space"",""space"",""space"",""space"",""space"",""space"",""space"",""space"",""space"",""space"",""space"",""space"",""space"",""space"",""space"",""space"",""space"",""space"",""space"",""space"",""space"",""space"",""space"",""space"",""space"",""space"",""space"",""space"",""space"",""space"",""space"",""space"",""space"",""space"",""space"",""space"",""space"",""space"",""space"",""space"",""space"",""space"",""space"",""space"",""space"",""space"",""space"",""space"",""space"",""space"",""space"",""space"",""space"",""space"",""space"",""space""]","[0.3962150000152178,0.5910900000017136,0.7693200000212528,0.9353450000053272,1.0982100000255741,1.257305000035558,1.4002150000305846,1.5592649999889545,1.7335350000066683,1.9053950000088662,2.1024900000193156,2.291475000034552,2.4514400000334717,2.6006599999964237,2.775580000015907,2.9502099999808706,3.1306600000243634,3.3115450000041164,3.4937599999830127,3.6915850000223145,3.883635000034701,4.067604999989271,4.264859999995679,4.451835000014398,4.633544999989681,4.819784999999683,5.002864999987651,5.18605000001844,5.368835000030231,5.550195000017993,5.716880000021774,5.872990000003483,6.0310499999905005,6.20801499998197,6.372979999985546,6.5340849999920465,6.692110000003595,6.864140000019688,7.046154999989085,7.218059999984689,7.408095000020694,7.593114999996033,7.775164999999106,7.957295000029262,8.150390000024345,8.333515000005718,8.500775000022259,8.681534999981523,8.860320000036154,9.052435000019614,9.23644000000786,9.409435000037774,9.573550000030082,9.73940500000026,9.894469999999274,10.08649499999592,10.25057500001276,10.39165000000503,10.528715000022203,10.683550000016112,10.860719999996945,11.027860000031069,11.189630000037141,11.322745000012219,11.576799999980722,11.764465000014752,11.942885000025854,12.1268900000141,12.300935000006575,12.466935000033118]",space,0.688215,0.0,32.0,32.0,22.0,1.0,,,,,,,,,,,,,
,,,,,,,,,,,block_1/strong_n_119_1.wav,no,n,strong,119.0,2.241065743,12.1104535,,,,Yes,Tribit XFree Tune,1,No,f,24,R,Yes,1,2020-10-05_11h28.35.951,kura-A1,2020.1.2,Win32,60,,,"[""space"",""space"",""space"",""space"",""space"",""space"",""space"",""space"",""space"",""space"",""space"",""space"",""space"",""space"",""space"",""space"",""space"",""space"",""space"",""space""]","[0.5706150000332855,1.0335150000173599,1.4670700000133365,1.8978399999905378,2.396970000001602,2.8929099999950267,3.400305000017397,3.9281400000327267,4.421704999986105,4.944235000002664,5.459450000023935,6.000219999987166,6.517055000003893,7.050189999979921,7.550150000024587,8.08076500002062,8.586850000021514,9.074755000008736,9.572025000001304,10.092089999991003]",space,0.683705,0.0,33.0,33.0,19.0,1.0,,,,,,,,,,,,,
,,,,,,,,,,,block_1/weak_n_72_1.wav,no,n,weak,72.0,1.347131367,16.2574715,,,,Yes,Tribit XFree Tune,1,No,f,24,R,Yes,1,2020-10-05_11h28.35.951,kura-A1,2020.1.2,Win32,60,,,"[""space"",""space"",""space"",""space"",""space"",""space"",""space"",""space"",""space"",""space"",""space"",""space"",""space"",""space"",""space"",""space"",""space"",""space"",""space"",""space"",""space"",""space"",""space"",""space"",""space"",""space"",""space"",""space"",""space"",""space"",""space"",""space"",""space"",""space"",""space"",""space"",""space"",""space"",""space"",""space"",""space"",""space"",""space"",""space"",""space"",""space"",""space"",""space"",""space"",""space"",""space"",""space"",""space"",""space"",""space"",""space"",""space""]","[0.44595000002300367,0.6350950000341982,0.8004850000143051,0.9504099999903701,1.1061350000090897,1.2531200000084937,1.4260550000471994,1.5672150000464171,1.846140000037849,2.025125000043772,2.154305000032764,2.534125000005588,2.697195000015199,2.819405000016559,3.35015499999281,3.5171449999907054,3.64433000003919,4.011415000015404,4.261510000040289,4.400205000012647,4.769590000039898,4.9706500000320375,5.112660000042524,5.550725000037346,5.683665000018664,5.8247449999907985,6.316945000027772,6.456869999994524,6.601790000044275,7.060969999991357,7.209960000007413,7.355985000031069,7.806039999995846,7.988990000041667,8.136040000012144,8.580119999998715,8.73011000000406,8.916904999990948,9.376220000034664,9.523455000016838,10.10044500004733,10.25333000003593,10.456395000044722,10.883880000037607,11.018420000036713,11.561535000044387,11.700205000001006,12.258680000028107,12.404580000031274,12.979749999998603,13.120764999999665,13.264835000038147,13.719810000038706,13.867175000021234,14.496920000005048,14.636880000005476,15.316840000043157]",space,0.583665,0.0,34.0,34.0,15.0,1.0,,,,,,,,,,,,,
,,,,,,,,,,,block_1/medium_n_92_2.wav,no,n,medium,92.0,1.321097132,12.85819464,,,,Yes,Tribit XFree Tune,1,No,f,24,R,Yes,1,2020-10-05_11h28.35.951,kura-A1,2020.1.2,Win32,60,,,"[""space"",""space"",""space"",""space"",""space"",""space"",""space"",""space"",""space"",""space"",""space"",""space"",""space"",""space"",""space"",""space"",""space"",""space"",""space"",""space"",""space"",""space"",""space"",""space"",""space"",""space"",""space"",""space"",""space"",""space"",""space"",""space"",""space"",""space"",""space"",""space"",""space"",""space"",""space"",""space"",""space"",""space"",""space"",""space"",""space"",""space""]","[0.5503299999982119,0.7072099999641068,0.8851600000052713,1.0252200000104494,1.2873299999628216,1.4514649999910034,1.6193750000093132,1.8083549999864772,2.00017499999376,2.290434999973513,2.483665000007022,2.702469999960158,3.0518300000112504,3.1854849999654107,3.5135649999720044,3.6847299999790266,4.009655000001658,4.150214999972377,4.462839999992866,4.6217999999644235,5.039764999994077,5.1707900000037625,5.552824999962468,5.700164999987464,6.074014999961946,6.210994999972172,6.566884999978356,6.719014999980573,7.053309999988414,7.2061549999634735,7.561184999998659,7.726309999998193,8.126319999981206,8.266869999992196,8.739284999959636,8.876394999970216,9.342590000014752,9.483829999982845,10.02763500000583,10.161640000005718,10.71720000001369,10.83391499996651,11.23970500001451,11.397750000003725,11.83487999998033,11.980975000013132]",space,0.64188,0.0,35.0,35.0,1.0,1.0,,,,,,,,,,,,,
,,,,,,,,,,,block_1/none_n_119_2.wav,no,n,none,119.0,2.128313718,13.68559263,,,,Yes,Tribit XFree Tune,1,No,f,24,R,Yes,1,2020-10-05_11h28.35.951,kura-A1,2020.1.2,Win32,60,,,"[""space"",""space"",""space"",""space"",""space"",""space"",""space"",""space"",""space"",""space"",""space"",""space"",""space"",""space"",""space"",""space"",""space"",""space"",""space"",""space"",""space"",""space"",""space"",""space"",""space"",""space"",""space"",""space"",""space"",""space"",""space"",""space"",""space"",""space"",""space"",""space"",""space"",""space"",""space"",""space"",""space"",""space"",""space"",""space"",""space"",""space"",""space"",""space"",""space"",""space"",""space"",""space"",""space"",""space"",""space"",""space"",""space""]","[0.4263599999831058,0.6195300000254065,0.9169000000110827,1.105474999989383,1.2854950000182725,1.4624300000141375,1.6669750000000931,1.8464849999872968,2.0446799999917857,2.2616450000205077,2.4626050000078976,2.653630000015255,2.8458250000257976,3.0357749999966472,3.227789999975357,3.4018599999835715,3.6178300000028685,3.8409250000258908,4.066909999994095,4.233505000011064,4.412040000024717,4.583954999980051,4.800285000004806,5.00804500002414,5.271999999997206,5.494010000023991,5.7070650000241585,5.963195000018459,6.150145000021439,6.318154999986291,6.514329999976326,6.781490000023041,7.000189999991562,7.216904999979306,7.500164999975823,7.6804899999988265,7.862420000019483,8.058039999974426,8.258425000007264,8.447459999995772,8.666889999993145,8.850755000021309,9.046655000012834,9.252719999989495,9.438625000009779,9.628644999989774,9.807845000002999,10.00181500002509,10.311724999977741,10.50877999997465,10.686745000013616,10.879759999981616,11.067909999983385,11.25785499997437,11.447029999981169,11.667145000013988,11.84003500000108]",space,0.39335,0.0,36.0,36.0,25.0,1.0,,,,,,,,,,,,,
,,,,,,,,,,,block_1/medium_n_72_2.wav,no,n,medium,72.0,1.502389402,18.53467965,,,,Yes,Tribit XFree Tune,1,No,f,24,R,Yes,1,2020-10-05_11h28.35.951,kura-A1,2020.1.2,Win32,60,,,"[""space"",""space"",""space"",""space"",""space"",""space"",""space"",""space"",""space"",""space"",""space"",""space"",""space"",""space"",""space"",""space"",""space"",""space"",""space"",""space"",""space"",""space"",""space"",""space"",""space"",""space"",""space"",""space"",""space"",""space"",""space"",""space"",""space"",""space"",""space"",""space"",""space"",""space"",""space"",""space"",""space"",""space"",""space"",""space"",""space"",""space"",""space"",""space"",""space"",""space"",""space"",""space"",""space"",""space"",""space"",""space"",""space"",""space"",""space"",""space"",""space"",""space"",""space"",""space"",""space"",""space"",""space"",""space""]","[0.3348600000026636,0.5559750000247732,0.8591400000150315,1.0338549999869429,1.3630750000011176,1.5460350000066683,1.746065000013914,1.94039000000339,2.267084999999497,2.456865000014659,2.6671849999693222,2.872410000010859,3.209320000023581,3.392475000000559,3.5837349999928847,3.735594999976456,4.10060499998508,4.333685000019614,4.539630000013858,4.730634999985341,5.109705000009853,5.294814999972004,5.483529999968596,5.855664999980945,6.097009999968577,6.300485000014305,6.637820000003558,6.886790000018664,7.0609999999869615,7.312864999985322,7.667154999973718,7.850444999989122,8.052024999982677,8.268125000002328,8.67917999997735,8.855099999986123,9.03854500001762,9.479170000005979,9.669545000011567,9.845314999984112,10.45130999997491,10.617014999967068,10.76938999997219,10.97749499999918,11.352450000005774,11.511434999993071,11.687540000013541,11.933774999983143,12.300675000005867,12.49539499997627,12.723609999986365,13.11072499997681,13.283519999997225,13.473720000009052,13.900290000019595,14.07891500002006,14.287859999982174,14.719039999996312,14.90993000002345,15.133619999978691,15.73382500000298,15.918124999967404,16.09020999999484,16.475159999972675,16.6503200000152,16.850419999973383,17.29649999999674,17.464449999970384]",space,0.5691,0.0,37.0,37.0,14.0,1.0,,,,,,,,,,,,,
,,,,,,,,,,,block_1/none_n_81_2.wav,no,n,none,81.0,1.043160571,20.19454379,,,,Yes,Tribit XFree Tune,1,No,f,24,R,Yes,1,2020-10-05_11h28.35.951,kura-A1,2020.1.2,Win32,60,,,"[""space"",""space"",""space"",""space"",""space"",""space"",""space"",""space"",""space"",""space"",""space"",""space"",""space"",""space"",""space"",""space"",""space"",""space"",""space"",""space"",""space"",""space"",""space"",""space"",""space"",""space"",""space"",""space"",""space"",""space"",""space"",""space"",""space"",""space"",""space"",""space"",""space"",""space"",""space"",""space"",""space"",""space"",""space"",""space"",""space"",""space"",""space"",""space"",""space"",""space"",""space"",""space"",""space"",""space"",""space"",""space"",""space"",""space"",""space"",""space"",""space"",""space"",""space"",""space"",""space"",""space"",""space"",""space"",""space"",""space"",""space"",""space"",""space"",""space"",""space"",""space"",""space"",""space"",""space"",""space"",""space"",""space"",""space"",""space"",""space""]","[0.42719499999657273,0.6667949999682605,0.8668999999645166,1.088965000002645,1.296169999986887,1.4921650000032969,1.6732600000104867,1.8673149999813177,2.066865000000689,2.283660000015516,2.4779449999914505,2.690260000003036,2.9006850000005215,3.123329999973066,3.333585000014864,3.5503700000117533,3.7669950000126846,3.96847500000149,4.179509999987204,4.400064999994356,4.656604999967385,4.883734999981243,5.096559999976307,5.312685000011697,5.521810000005644,5.739654999983031,5.961729999980889,6.179765000008047,6.401780000014696,6.619799999985844,6.842865000013262,7.053919999976642,7.283935000014026,7.5299099999829195,7.768119999964256,7.993190000008326,8.212034999975003,8.450239999976475,8.667124999978114,8.860134999966249,9.064154999970924,9.293200000014622,9.497214999981225,9.733814999985043,9.924364999984391,10.150384999986272,10.3564100000076,10.566980000003241,10.779379999963567,11.00047500000801,11.216855000006035,11.433484999986831,11.650834999978542,11.87768999999389,12.106625000014901,12.324734999972861,12.589295000012498,12.775655000004917,13.035774999996647,13.567299999995157,13.80014000000665,14.033530000015162,14.283534999995027,14.513044999970589,14.766680000000633,15.002630000002682,15.245155000011437,15.500409999978729,15.750245000002906,15.983435000001919,16.239219999988563,16.497154999990016,16.73344999999972,16.933424999995623,17.133399999991525,17.335369999986142,17.563510000007227,17.800370000011753,18.038434999994934,18.283530000015162,18.497444999986328,18.761554999975488,18.994654999987688,19.266989999974612,19.50034999998752]",space,1.84834,0.0,38.0,38.0,28.0,1.0,,,,,,,,,,,,,
,,,,,,,,,,,block_1/weak_n_81_1.wav,no,n,weak,81.0,1.583230306,14.42368382,,,,Yes,Tribit XFree Tune,1,No,f,24,R,Yes,1,2020-10-05_11h28.35.951,kura-A1,2020.1.2,Win32,60,,,"[""space"",""space"",""space"",""space"",""space"",""space"",""space"",""space"",""space"",""space"",""space"",""space"",""space"",""space"",""space"",""space"",""space"",""space"",""space"",""space"",""space"",""space"",""space"",""space"",""space"",""space"",""space"",""space"",""space"",""space"",""space"",""space"",""space"",""space"",""space"",""space"",""space"",""space"",""space"",""space"",""space"",""space"",""space"",""space"",""space"",""space"",""space"",""space"",""space"",""space"",""space"",""space"",""space"",""space"",""space"",""space"",""space"",""space""]","[0.4801350000197999,0.7135000000125729,0.8844950000056997,1.0335750000085682,1.2186900000087917,1.4045899999910034,1.5668700000387616,1.7475950000225566,1.933530000038445,2.1217499999911524,2.341740000003483,2.567060000030324,2.755920000025071,2.9459100000094622,3.170024999999441,3.378995000035502,3.607875000045169,3.802960000000894,3.9730750000453554,4.285990000003949,4.507235000026412,4.795985000033397,5.014060000015888,5.234135000035167,5.569049999990966,5.786194999993313,5.9838350000209175,6.20628000004217,6.380265000043437,6.750155000016093,6.927320000017062,7.357435000012629,7.52357000001939,7.676615000003949,8.057655000011437,8.23367500002496,8.377695000031963,8.701555000036024,8.895765000022948,9.317050000012387,9.466995000024326,9.590835000039078,9.95040999999037,10.109835000010207,10.275870000012219,10.635390000010375,10.80031500000041,10.951065000030212,11.28902000002563,11.467545000021346,11.65714000002481,12.033709999988787,12.188260000024457,12.383535000029951,12.653140000009444,12.835160000016913,13.07223500002874,13.266850000014529]",space,0.70275,0.0,39.0,39.0,35.0,1.0,,,,,,,,,,,,,
,,,,,,,,,,,block_2/medium_t_105_1.wav,timbre,t,medium,105.0,1.073604292,13.26340021,,,,Yes,Tribit XFree Tune,1,No,f,24,R,Yes,1,2020-10-05_11h28.35.951,kura-A1,2020.1.2,Win32,60,,,,,,,,,,,,space,30.317195,"[""space"",""space"",""space"",""space"",""space"",""space"",""space"",""space"",""space"",""space"",""space"",""space"",""space"",""space"",""space"",""space"",""space"",""space"",""space"",""space"",""space"",""space"",""space"",""space"",""space"",""space"",""space"",""space"",""space"",""space"",""space"",""space"",""space"",""space"",""space"",""space"",""space"",""space"",""space"",""space"",""space"",""space"",""space"",""space"",""space"",""space"",""space"",""space"",""space"",""space"",""space""]","[1.0222100000246428,1.2333499999949709,1.4184849999728613,1.6330900000175461,1.8339500000001863,2.018419999978505,2.2331300000078045,2.4165899999788962,2.5996399999712594,2.8164850000175647,3.0388699999894015,3.2496899999678135,3.449945000000298,3.6696050000027753,3.884989999991376,4.116459999990184,4.316920000012033,4.566419999988284,4.790854999970179,5.0058200000203215,5.233369999972638,5.426809999975376,5.6460949999745935,5.88322999997763,6.116474999987986,6.363929999992251,6.7079999999841675,6.897159999993164,7.117214999976568,7.333609999972396,7.549780000001192,7.766475000011269,7.999934999970719,8.20023499999661,8.416335000016261,8.633244999975432,8.847650000010617,9.083174999977928,9.316715000022668,9.524604999984149,9.899949999991804,10.073655000014696,10.300334999978077,10.566649999993388,10.766520000004675,11.054699999978766,11.266839999996591,11.63332999998238,11.808224999986123,12.233260000008158,12.433214999968186]",space,1.775525,0.0,0.0,0.0,16.0,1.0,,
,,,,,,,,,,,block_2/weak_t_81_1.wav,timbre,t,weak,81.0,1.591601339,16.65690746,,,,Yes,Tribit XFree Tune,1,No,f,24,R,Yes,1,2020-10-05_11h28.35.951,kura-A1,2020.1.2,Win32,60,,,,,,,,,,,,,,"[""space"",""space"",""space"",""space"",""space"",""space"",""space"",""space"",""space"",""space"",""space"",""space"",""space"",""space"",""space"",""space"",""space"",""space"",""space"",""space"",""space"",""space"",""space"",""space"",""space"",""space"",""space"",""space"",""space"",""space"",""space"",""space"",""space"",""space"",""space"",""space"",""space"",""space"",""space"",""space"",""space"",""space"",""space"",""space"",""space"",""space"",""space"",""space"",""space"",""space"",""space"",""space"",""space"",""space"",""space"",""space"",""space"",""space"",""space"",""space"",""space"",""space"",""space"",""space"",""space""]","[0.3467700000037439,0.5669050000142306,0.7667699999874458,0.9500750000006519,1.151899999997113,1.3641199999838136,1.5899699999717996,1.8001349999685772,1.984984999988228,2.167075000004843,2.3621449999627657,2.5617000000202097,2.75,3.0667849999736063,3.2453349999850616,3.4500399999669753,3.684914999990724,3.8514950000098906,4.050155000004452,4.37826500000665,4.557395000010729,4.73348499997519,4.9123750000144355,5.316569999966305,5.471525000000838,5.972479999996722,6.111589999985881,6.299984999990556,6.483364999992773,6.950199999962933,7.109869999985676,7.301199999987148,7.716940000012983,7.916804999986198,8.116920000000391,8.338195000018459,8.576914999983273,8.866924999980256,9.083515000005718,9.268210000009276,9.472085000015795,9.700320000003558,9.916874999995343,10.266680000000633,10.451460000011139,10.66925999999512,10.963204999978188,11.150064999994356,11.33941000001505,11.616709999972954,11.78349000000162,11.999955000006594,12.35025499999756,12.533270000014454,12.733469999977387,13.145725000009406,13.349994999996852,13.50471499998821,13.962609999987762,14.15573499997845,14.350144999974873,14.749955000006594,14.93323500000406,15.13342999998713,15.472970000002533]",space,0.817395,0.0,1.0,1.0,8.0,1.0,,
,,,,,,,,,,,block_2/medium_t_119_2.wav,timbre,t,medium,119.0,1.931946566,12.84791029,,,,Yes,Tribit XFree Tune,1,No,f,24,R,Yes,1,2020-10-05_11h28.35.951,kura-A1,2020.1.2,Win32,60,,,,,,,,,,,,,,"[""space"",""space"",""space"",""space"",""space"",""space"",""space"",""space"",""space"",""space"",""space"",""space"",""space"",""space"",""space"",""space"",""space"",""space"",""space"",""space"",""space"",""space"",""space"",""space"",""space"",""space"",""space"",""space"",""space"",""space"",""space"",""space"",""space"",""space"",""space"",""space"",""space"",""space"",""space"",""space"",""space"",""space"",""space"",""space"",""space"",""space"",""space"",""space"",""space"",""space"",""space""]","[0.369330000015907,0.566945000027772,0.7612799999769777,0.953319999971427,1.1671649999916553,1.3673999999882653,1.5668600000208244,1.7836349999997765,1.96703499997966,2.167134999996051,2.325375000014901,2.566835000005085,2.7670250000082888,2.942594999971334,3.1670399999711663,3.367180000001099,3.602729999984149,3.7948800000012852,3.9866150000016205,4.312804999994114,4.500304999994114,4.6841199999907985,4.924714999971911,5.133785000012722,5.386914999980945,5.584154999989551,5.79281000001356,6.000479999987874,6.1670349999913014,6.435274999996182,6.650659999984782,6.86705499998061,7.052045000018552,7.286179999995511,7.493055000028107,7.71224500000244,7.909719999996014,8.134115000022575,8.34033500001533,8.554245000006631,8.772394999978133,8.985155000002123,9.179300000017975,9.537509999994654,9.733565000002272,9.951549999997951,10.183605000027455,10.42862999998033,10.872570000006817,11.057990000001155,11.300779999990482]",space,0.60061,0.0,2.0,2.0,38.0,1.0,,
,,,,,,,,,,,block_2/weak_t_119_2.wav,timbre,t,weak,119.0,2.381776461,12.65062,,,,Yes,Tribit XFree Tune,1,No,f,24,R,Yes,1,2020-10-05_11h28.35.951,kura-A1,2020.1.2,Win32,60,,,,,,,,,,,,,,"[""space"",""space"",""space"",""space"",""space"",""space"",""space"",""space"",""space"",""space"",""space"",""space"",""space"",""space"",""space"",""space"",""space"",""space"",""space"",""space"",""space"",""space"",""space"",""space"",""space"",""space"",""space"",""space"",""space"",""space"",""space"",""space"",""space"",""space"",""space"",""space"",""space"",""space"",""space"",""space"",""space"",""space"",""space"",""space"",""space"",""space"",""space"",""space"",""space""]","[0.3891849999781698,0.6373550000134856,0.833760000008624,1.0335850000265054,1.2168449999880977,1.4134799999883398,1.6003700000001118,1.7895099999732338,2.0000250000157394,2.218619999999646,2.4333999999798834,2.6506800000206567,2.833600000012666,2.997555000009015,3.1834950000047684,3.3696099999942817,3.583519999985583,3.766895000007935,3.9508200000273064,4.150774999987334,4.338864999997895,4.5502700000070035,4.770105000003241,4.977865000022575,5.2003399999812245,5.406034999992698,5.600144999974873,5.883534999971744,6.08397999999579,6.334015000029467,6.531134999997448,6.890599999984261,7.073229999979958,7.322135000023991,7.521279999986291,7.766905000025872,7.974214999994729,8.190275000000838,8.400214999972377,8.601499999989755,8.803384999977425,9.050150000024587,9.290474999987055,9.517229999997653,9.750330000009853,9.945475000014994,10.155629999993835,10.37569999997504,10.6004950000206]",space,0.450375,0.0,3.0,3.0,13.0,1.0,,
,,,,,,,,,,,block_2/none_t_81_2.wav,timbre,t,none,81.0,2.376288721,21.12975811,,,,Yes,Tribit XFree Tune,1,No,f,24,R,Yes,1,2020-10-05_11h28.35.951,kura-A1,2020.1.2,Win32,60,,,,,,,,,,,,,,"[""space"",""space"",""space"",""space"",""space"",""space"",""space"",""space"",""space"",""space"",""space"",""space"",""space"",""space"",""space"",""space"",""space"",""space"",""space"",""space"",""space"",""space"",""space"",""space"",""space"",""space"",""space"",""space"",""space"",""space"",""space"",""space"",""space"",""space"",""space"",""space"",""space"",""space"",""space"",""space"",""space"",""space"",""space"",""space"",""space"",""space"",""space"",""space"",""space"",""space"",""space"",""space"",""space"",""space"",""space"",""space"",""space"",""space"",""space"",""space"",""space"",""space"",""space"",""space"",""space"",""space"",""space"",""space"",""space"",""space"",""space"",""space"",""space"",""space"",""space"",""space"",""space"",""space"",""space"",""space"",""space"",""space"",""space"",""space"",""space"",""space"",""space"",""space"",""space"",""space"",""space"",""space"",""space"",""space"",""space""]","[0.3837150000035763,0.5466949999681674,0.6977249999763444,0.8877050000010058,1.088080000015907,1.3002850000048056,1.4957399999839254,1.700444999965839,1.8967149999807589,2.103904999967199,2.3004450000007637,2.4669649999705143,2.613859999983106,2.7758749999920838,2.9539199999999255,3.150550000020303,3.3429550000000745,3.5601299999980256,3.759024999977555,3.9506149999797344,4.200379999994766,4.381144999992102,4.553230000019539,4.80517000000691,4.997410000010859,5.233639999991283,5.435590000008233,5.668290000001434,5.878274999966379,6.083749999990687,6.283649999997579,6.518455000012182,6.743399999977555,6.933684999996331,7.217624999990221,7.418829999980517,7.629490000021178,7.983744999975897,8.137564999982715,8.351755000010598,8.61368000000948,8.790685000014491,9.078715000010561,9.264859999995679,9.484040000010282,9.839990000007674,10.017995000001974,10.267044999985956,10.453035000013188,10.619955000001937,10.773965000000317,10.957010000012815,11.24820999999065,11.418969999998808,11.58624500001315,11.793100000009872,11.98719000001438,12.17536499997368,12.383964999986347,12.587204999988899,12.795415000000503,13.005390000005718,13.206375000008848,13.383960000006482,13.568369999993593,13.70556500001112,13.878469999996014,14.045449999975972,14.250494999985676,14.441509999975096,14.611519999976736,14.825680000009015,14.99469500000123,15.18660000001546,15.383725000021514,15.543629999971017,15.741655000019819,15.958700000017416,16.153894999995828,16.318840000021737,16.529864999989513,16.70029499998782,16.838884999975562,17.024839999969117,17.184889999974985,17.3610500000068,17.533794999995735,17.7003600000171,17.924010000017006,18.145034999994095,18.333749999990687,18.51702500000829,18.683520000020508,18.846084999968298,19.01686500001233]",space,0.845305,0.0,4.0,4.0,10.0,1.0,,
,,,,,,,,,,,block_2/none_t_105_2.wav,timbre,t,none,105.0,1.468449628,14.54844963,,,,Yes,Tribit XFree Tune,1,No,f,24,R,Yes,1,2020-10-05_11h28.35.951,kura-A1,2020.1.2,Win32,60,,,,,,,,,,,,,,"[""space"",""space"",""space"",""space"",""space"",""space"",""space"",""space"",""space"",""space"",""space"",""space"",""space"",""space"",""space"",""space"",""space"",""space"",""space"",""space"",""space"",""space"",""space"",""space"",""space"",""space"",""space"",""space"",""space"",""space"",""space"",""space"",""space"",""space"",""space"",""space"",""space"",""space"",""space"",""space"",""space"",""space"",""space"",""space"",""space"",""space"",""space"",""space"",""space"",""space"",""space"",""space"",""space"",""space"",""space"",""space"",""space"",""space"",""space"",""space"",""space"",""space"",""space"",""space"",""space"",""space"",""space"",""space"",""space"",""space"",""space"",""space""]","[0.38624000002164394,0.6026500000152737,0.8154050000011921,0.9896799999987707,1.181990000011865,1.3525750000262633,1.5320050000445917,1.6986550000146963,1.8487949999980628,2.007645000005141,2.172695000015665,2.3537600000272505,2.5329050000291318,2.705900000000838,2.8887700000195764,3.0818750000325963,3.248844999994617,3.4068600000464357,3.579859999998007,3.758030000026338,3.932990000001155,4.100039999990258,4.282055000017863,4.4500000000116415,4.624110000033397,4.8011549999937415,4.983700000040699,5.151095000037458,5.340280000003986,5.5272600000025705,5.715460000035819,5.898465000034776,6.115380000032019,6.309349999995902,6.5153900000150315,6.724235000030603,6.89857000001939,7.0500750000355765,7.215450000017881,7.382090000028256,7.548455000040121,7.765575000026729,7.965345000033267,8.15452500001993,8.361550000030547,8.565349999989849,8.783675000013318,8.965354999992996,9.132010000001173,9.298760000034235,9.479840000043623,9.67979500000365,9.87871499999892,10.079835000040475,10.271890000032727,10.482085000025108,10.6655449999962,10.876259999989998,11.083350000029895,11.315275000000838,11.506010000011884,11.69858500000555,11.865305000043008,11.998790000041481,12.132385000004433,12.298535000008997,12.482120000000577,12.654190000030212,12.865305000043008,13.036365000007208,13.215415000042412,13.341405000013765]",space,0.881245,0.0,5.0,5.0,14.0,1.0,,
,,,,,,,,,,,block_2/strong_t_119_2.wav,timbre,t,strong,119.0,1.752168489,11.36699842,,,,Yes,Tribit XFree Tune,1,No,f,24,R,Yes,1,2020-10-05_11h28.35.951,kura-A1,2020.1.2,Win32,60,,,,,,,,,,,,,,"[""space"",""space"",""space"",""space"",""space"",""space"",""space"",""space"",""space"",""space"",""space"",""space"",""space"",""space"",""space"",""space"",""space"",""space"",""space"",""space"",""space""]","[0.5417850000085309,0.9907300000195391,1.3842100000474602,1.7339700000011362,2.1679149999981746,2.5978849999955855,3.050790000008419,3.556849999993574,4.025245000026189,4.501775000011548,4.983624999993481,5.4384549999958836,5.933835000032559,6.381510000035632,6.82949000003282,7.317240000003949,7.797600000048988,8.258610000018962,8.716855000006035,9.200310000043828,9.700379999994766]",space,0.586705,0.0,6.0,6.0,31.0,1.0,,
,,,,,,,,,,,block_2/weak_t_119_1.wav,timbre,t,weak,119.0,2.44047477,12.74986253,,,,Yes,Tribit XFree Tune,1,No,f,24,R,Yes,1,2020-10-05_11h28.35.951,kura-A1,2020.1.2,Win32,60,,,,,,,,,,,,,,"[""space"",""space"",""space"",""space"",""space"",""space"",""space"",""space"",""space"",""space"",""space"",""space"",""space"",""space"",""space"",""space"",""space"",""space"",""space"",""space"",""space"",""space"",""space"",""space"",""space"",""space"",""space"",""space"",""space"",""space"",""space"",""space"",""space"",""space"",""space"",""space"",""space"",""space"",""space"",""space"",""space"",""space"",""space"",""space"",""space"",""space"",""space"",""space"",""space"",""space"",""space"",""space"",""space"",""space"",""space"",""space"",""space"",""space"",""space""]","[0.36691500002052635,0.5371900000027381,0.680164999968838,0.8301249999785796,0.9835500000044703,1.136034999974072,1.3008600000175647,1.4580800000112504,1.6004100000136532,1.8338300000177696,1.969600000011269,2.1339699999662116,2.28820499998983,2.466885000001639,2.6505599999800324,2.791235000011511,2.9684499999857508,3.133685000007972,3.317284999997355,3.483829999982845,3.6544400000129826,3.8338199999998324,3.9966199999907985,4.172520000021905,4.350819999992382,4.462605000007898,4.605549999978393,4.774664999975357,4.98499999998603,5.176619999983814,5.358620000013616,5.567304999975022,5.753785000008065,5.95185999997193,6.1298749999841675,6.300675000005867,6.50685499998508,6.70040999999037,6.866915000020526,7.0200150000164285,7.1729749999940395,7.3269299999810755,7.46713499998441,7.600220000022091,7.796109999995679,8.01714999997057,8.216994999966118,8.430200000002515,8.64110000000801,8.847085000015795,9.02220499998657,9.200399999972433,9.380285000021104,9.574329999973997,9.785284999990836,10.000464999990072,10.217000000004191,10.485014999983832,10.716970000008587]",space,0.800375,0.0,7.0,7.0,12.0,1.0,,
,,,,,,,,,,,block_2/medium_t_92_2.wav,timbre,t,medium,92.0,2.383848972,15.42820271,,,,Yes,Tribit XFree Tune,1,No,f,24,R,Yes,1,2020-10-05_11h28.35.951,kura-A1,2020.1.2,Win32,60,,,,,,,,,,,,,,"[""space"",""space"",""space"",""space"",""space"",""space"",""space"",""space"",""space"",""space"",""space"",""space"",""space"",""space"",""space"",""space"",""space"",""space"",""space"",""space"",""space"",""space"",""space"",""space"",""space"",""space"",""space"",""space"",""space"",""space"",""space"",""space"",""space"",""space"",""space"",""space"",""space"",""space"",""space"",""space"",""space"",""space"",""space"",""space"",""space"",""space"",""space"",""space"",""space"",""space"",""space"",""space"",""space""]","[0.48362999997334555,0.6675599999725819,0.8304999999818392,1.0044599999673665,1.1773399999947287,1.3583600000129081,1.567334999970626,1.7464349999791011,2.000304999994114,2.184644999972079,2.379495000001043,2.58408000000054,2.7837350000045262,2.9776200000196695,3.200569999986328,3.3797349999658763,3.6170299999648705,3.8507450000033714,4.13377000001492,4.317129999981262,4.5389049999648705,4.785544999991544,5.011044999992009,5.217010000022128,5.554094999970403,5.733769999991637,5.900444999977481,6.217015000001993,6.3860899999854155,7.017244999995455,7.150555000000168,7.552235000010114,7.700399999972433,8.151589999964926,8.287409999989904,8.751504999992903,8.879454999987502,9.371624999970663,9.533720000006724,9.700444999965839,10.117194999998901,10.263839999970514,10.500404999998864,10.831774999969639,10.983940000005532,11.350670000014361,11.493789999978617,11.968905000016093,12.10685999999987,12.583864999993239,12.728925000003073,13.266959999979008,13.419379999977536]",space,0.50038,0.0,8.0,8.0,32.0,1.0,,
,,,,,,,,,,,block_2/weak_t_92_2.wav,timbre,t,weak,92.0,1.897128492,17.06302418,,,,Yes,Tribit XFree Tune,1,No,f,24,R,Yes,1,2020-10-05_11h28.35.951,kura-A1,2020.1.2,Win32,60,,,,,,,,,,,,,,"[""space"",""space"",""space"",""space"",""space"",""space"",""space"",""space"",""space"",""space"",""space"",""space"",""space"",""space"",""space"",""space"",""space"",""space"",""space"",""space"",""space"",""space"",""space"",""space"",""space"",""space"",""space"",""space"",""space"",""space"",""space"",""space"",""space"",""space"",""space"",""space"",""space"",""space"",""space"",""space"",""space"",""space"",""space""]","[0.43460999999661,0.6466200000140816,0.8256999999866821,1.1638449999736622,1.329779999970924,1.5448900000192225,1.800310000020545,2.0336849999730475,2.3209550000028685,2.5183349999715574,2.6840049999882467,2.8837550000171177,3.1840400000219233,3.3560600000200793,3.8021799999987707,3.9452699999674223,4.533530000015162,4.7004350000061095,5.350340000004508,6.250289999996312,6.939680000010412,7.068525000009686,7.678684999991674,7.8176649999804795,8.55021499999566,8.683665000018664,9.200179999985266,9.367094999994151,10.044125000014901,10.18363500002306,10.825175000005402,10.983494999993127,11.670285000000149,11.800705000001471,12.427290000021458,12.600724999967497,13.220414999988861,13.383719999983441,14.00017499999376,14.1501200000057,14.819834999972954,14.969800000020768,15.450200000021141]",space,1.300495,0.0,9.0,9.0,37.0,1.0,,
,,,,,,,,,,,block_2/weak_t_72_1.wav,timbre,t,weak,72.0,1.161723604,18.236871,,,,Yes,Tribit XFree Tune,1,No,f,24,R,Yes,1,2020-10-05_11h28.35.951,kura-A1,2020.1.2,Win32,60,,,,,,,,,,,,,,"[""space"",""space"",""space"",""space"",""space"",""space"",""space"",""space"",""space"",""space"",""space"",""space"",""space"",""space"",""space"",""space"",""space"",""space"",""space"",""space"",""space"",""space"",""space"",""space"",""space"",""space"",""space"",""space"",""space"",""space"",""space"",""space"",""space"",""space"",""space"",""space"",""space"",""space"",""space"",""space"",""space"",""space"",""space"",""space"",""space"",""space"",""space"",""space"",""space"",""space"",""space"",""space"",""space"",""space""]","[0.3768699999782257,0.7066549999872223,1.0833650000276975,1.4653350000153296,1.8164649999816902,1.990494999976363,2.315790000022389,2.4794000000110827,2.8993500000215136,3.0653349999920465,3.5156999999890104,3.6735999999800697,4.257824999978766,4.86189000000013,5.482049999991432,5.665414999995846,5.904945000016596,6.365300000004936,6.515305000008084,6.693160000024363,7.149090000020806,7.309185000020079,7.648694999981672,7.8652100000181235,8.065249999985099,8.469480000028852,8.63432000001194,8.998554999998305,9.165510000020731,9.565330000012182,9.732049999991432,9.931954999978188,10.416499999992084,10.55372000002535,10.7322849999764,11.390190000005532,12.062845000007655,12.403289999987464,12.965354999992996,13.098690000013448,13.715589999977965,13.861000000033528,14.448589999985415,14.793240000028163,14.959320000023581,15.387700000021141,15.537315000023227,15.699280000000726,16.185494999983348,16.332159999990836,16.46954000002006,17.048705000022892,17.178560000029393,17.369530000025406]",space,1.41157,0.0,10.0,10.0,29.0,1.0,,
,,,,,,,,,,,block_2/weak_t_81_2.wav,timbre,t,weak,81.0,1.659662472,15.06274637,,,,Yes,Tribit XFree Tune,1,No,f,24,R,Yes,1,2020-10-05_11h28.35.951,kura-A1,2020.1.2,Win32,60,,,,,,,,,,,,,,"[""space"",""space"",""space"",""space"",""space"",""space"",""space"",""space"",""space"",""space"",""space"",""space"",""space"",""space"",""space"",""space"",""space"",""space"",""space"",""space"",""space"",""space"",""space"",""space"",""space"",""space"",""space"",""space"",""space"",""space"",""space"",""space"",""space"",""space"",""space"",""space"",""space"",""space"",""space"",""space"",""space"",""space"",""space"",""space"",""space"",""space"",""space"",""space"",""space"",""space"",""space"",""space"",""space"",""space"",""space"",""space"",""space"",""space"",""space"",""space"",""space""]","[0.42072999995434657,0.6320999999879859,0.9822350000031292,1.1824099999503233,1.3752549999626353,1.7988099999492988,1.9823899999610148,2.144289999967441,2.6783699999796227,2.865529999951832,3.365619999996852,3.5274899999494664,4.11560499999905,4.299239999963902,4.488794999953825,4.688649999967311,4.871784999966621,5.042724999948405,5.342789999966044,5.5377649999572895,5.736264999955893,5.925984999979846,6.132144999981392,6.340029999963008,6.509024999977555,6.69886999996379,6.91302999999607,7.315584999974817,7.482389999961015,7.905074999958742,8.046164999948815,8.232139999978244,8.415449999971315,8.578214999986812,8.770299999974668,8.948789999994915,9.28222499997355,9.448799999954645,9.615744999959134,9.798879999958444,9.965524999948684,10.165469999948982,10.508239999995567,10.69896999996854,10.855949999997392,11.008524999953806,11.141604999953415,11.299234999984037,11.735834999999497,11.898879999993369,12.082419999991544,12.248829999996815,12.400724999955855,12.598804999957792,12.705809999955818,12.898864999995567,13.249064999981783,13.432589999982156,13.59878999995999,13.735054999997374,13.867004999949131]",space,0.571135,0.0,11.0,11.0,5.0,1.0,,
,,,,,,,,,,,block_2/none_t_105_1.wav,timbre,t,none,105.0,2.049885048,16.17201657,,,,Yes,Tribit XFree Tune,1,No,f,24,R,Yes,1,2020-10-05_11h28.35.951,kura-A1,2020.1.2,Win32,60,,,,,,,,,,,,,,"[""space"",""space"",""space"",""space"",""space"",""space"",""space"",""space"",""space"",""space"",""space"",""space"",""space"",""space"",""space"",""space"",""space"",""space"",""space"",""space"",""space"",""space"",""space"",""space"",""space"",""space"",""space"",""space"",""space"",""space"",""space"",""space"",""space"",""space"",""space"",""space"",""space"",""space"",""space"",""space"",""space"",""space"",""space"",""space"",""space"",""space"",""space"",""space"",""space"",""space"",""space"",""space"",""space"",""space"",""space"",""space"",""space"",""space"",""space"",""space"",""space"",""space"",""space"",""space"",""space"",""space"",""space"",""space"",""space"",""space"",""space"",""space"",""space"",""space""]","[0.5169650000170805,0.7007300000404939,0.85648499999661,1.061519999988377,1.361559999990277,1.5627049999893643,1.7504949999856763,1.9067350000259466,2.0917849999968894,2.2850300000282004,2.4671349999844097,2.6587949999957345,2.8373300000093877,3.02185499999905,3.2005150000331923,3.4002650000038557,3.575765000015963,3.7533849999890663,3.952095000015106,4.1169949999894015,4.300445000000764,4.461055000021588,4.6503450000309385,4.807070000038948,4.988345000019763,5.200330000021495,5.417149999993853,5.583855000033509,5.791090000013355,5.984159999992698,6.283709999988787,6.50082499999553,6.6642550000105985,6.850390000035986,7.033715000026859,7.200730000040494,7.351460000034422,7.52556999999797,7.70339999999851,7.860389999987092,8.03448999999091,8.233645000029355,8.4414800000377,8.62554000003729,8.818514999991748,9.006700000027195,9.216914999997243,9.40380000002915,9.591625000000931,9.767370000015944,9.953125,10.136204999987967,10.312760000000708,10.50089000002481,10.675455000018701,10.853765000007115,11.050385000009555,11.219830000016373,11.417164999991655,11.617484999995213,11.983639999991283,12.152145000000019,12.324194999993779,12.498245000024326,12.667235000000801,12.892530000011902,13.053260000015143,13.238460000022314,13.479225000017323,13.71705000003567,13.917115000018384,14.095350000017788,14.317050000012387,14.461330000020098]",space,0.50042,0.0,12.0,12.0,17.0,1.0,,
