key_resp.keys,key_resp.rt,practice_taps.keys,keyresp.keys,keyresp.rt,practice_stims_loop.thisRepN,practice_stims_loop.thisTrialN,practice_stims_loop.thisN,practice_stims_loop.thisIndex,practice_stims_loop.ran,sndfile,type,tempo,cond,version,delay,dur,Participant Initials,"If you are a MTurk worker, what is your MTurk worker ID?'",Are you wearing headphones?,What are the headphone make and model?,"How many years of musical training, if any, do you have?",Do you have any hearing problems? Please describe,What is your sex (f/m/decline)?,What is your age?,What is your handedness (R/L/ambi)?,Are you currently in a secure and quiet room without a possible interruption?,session,date,expName,psychopyVersion,OS,frameRate,practice_taps.rt,instructions_prompt.keys,instructions_prompt.rt,block1_taps.keys,block1_taps.rt,key_resp_2.keys,key_resp_2.rt,trials.thisRepN,trials.thisTrialN,trials.thisN,trials.thisIndex,trials.ran,key_resp2.keys,key_resp2.rt,block2_taps.keys,block2_taps.rt,key_resp_3.keys,key_resp_3.rt,trials_2.thisRepN,trials_2.thisTrialN,trials_2.thisN,trials_2.thisIndex,trials_2.ran,key_resp_4.keys,key_resp_4.rt,"If you are not an MTurk worker, please provide your email address"
space,176.711,,space,2981.164,0.0,0.0,0.0,2.0,1.0,block_1/weak_n_72_4.wav,no,n,weak,72.0,1.922330121,17.89675189,,,no,,,no,F,35,R,yes,1,2020-08-28_09h24.01.653,kura-A2,2020.1.2,MacIntel,60,,,,,,,,,,,,,,,,,,,,,,,,,,
,,"[""space"",""space"",""space"",""space"",""space"",""space"",""space"",""space"",""space"",""space"",""space"",""space"",""space"",""space"",""space"",""space"",""space"",""space"",""space"",""space"",""space"",""space"",""space"",""space"",""space"",""space"",""space"",""space"",""space"",""space"",""space"",""space"",""space"",""space"",""space"",""space"",""space"",""space"",""space"",""space"",""space"",""space"",""space"",""space"",""space"",""space"",""space"",""space"",""space"",""space"",""space"",""space"",""space"",""space"",""space"",""space"",""space"",""space"",""space"",""space"",""space"",""space"",""space"",""space"",""space"",""space"",""space"",""space"",""space"",""space"",""space"",""space"",""space"",""space"",""space"",""space"",""space""]",space,5.998,0.0,1.0,1.0,0.0,1.0,block_1/medium_n_105_3.wav,no,n,medium,105.0,1.683245346,13.36533151,,,no,,,no,F,35,R,yes,1,2020-08-28_09h24.01.653,kura-A2,2020.1.2,MacIntel,60,"[0.581000000000131,0.900000000000091,1.0489999999999782,1.15099999999984,1.2999999999997272,1.4329999999999927,1.531999999999698,1.650000000000091,1.768999999999778,1.8969999999999345,2.0090000000000146,2.130999999999858,2.268000000000029,2.4149999999999636,2.6159999999999854,2.7489999999997963,2.880999999999858,2.9839999999999236,3.1159999999999854,3.2649999999998727,3.380999999999858,3.5149999999998727,3.6479999999996835,3.9329999999999927,4.164999999999964,4.299999999999727,4.45699999999988,4.610999999999876,4.666999999999916,4.815000000000055,4.916999999999916,5.081000000000131,5.23299999999972,5.366999999999734,5.530999999999949,5.697999999999865,5.846999999999753,5.980000000000018,6.1159999999999854,6.266999999999825,6.416999999999916,6.543999999999869,6.695999999999913,6.831000000000131,6.998000000000047,7.144999999999982,7.315000000000055,7.481999999999971,7.6469999999999345,7.882000000000062,8.031999999999698,8.166999999999916,8.331000000000131,8.465999999999894,8.601000000000113,8.748999999999796,8.880999999999858,9.018999999999778,9.184999999999945,9.415999999999713,9.565999999999804,9.728999999999814,9.898999999999887,10.032999999999902,10.184999999999945,10.31399999999985,10.46499999999969,10.632000000000062,10.782999999999902,10.947999999999865,11.121999999999844,11.281999999999698,11.431999999999789,11.572000000000116,11.713999999999942,11.86999999999989,12.016000000000076]",,,,,,,,,,,,,,,,,,,,,,,,,
,,"[""space"",""space"",""space"",""space"",""space"",""space"",""space"",""space"",""space"",""space"",""space"",""space"",""space"",""space"",""space"",""space"",""space"",""space"",""space"",""space"",""space"",""space"",""space"",""space"",""space"",""space"",""space"",""space"",""space"",""space"",""space""]",space,0.683,0.0,2.0,2.0,1.0,1.0,block_2/medium_t_119_4.wav,timbre,t,medium,119.0,2.073396767,11.89421309,,,no,,,no,F,35,R,yes,1,2020-08-28_09h24.01.653,kura-A2,2020.1.2,MacIntel,60,"[1.0190000000002328,1.168999999999869,1.3200000000001637,1.4700000000002547,1.6610000000000582,1.9949999999998909,2.2260000000001128,2.3830000000002656,2.5660000000002583,2.7849999999998545,2.9650000000001455,3.1669999999999163,3.411000000000058,3.7609999999999673,4.016000000000076,4.226000000000113,4.4340000000001965,4.682000000000244,4.945000000000164,5.21100000000024,5.443000000000211,5.682999999999993,5.942000000000007,6.360999999999876,6.833999999999833,7.333000000000084,7.860000000000127,8.384999999999764,8.921000000000276,9.409000000000106,9.943000000000211]",,,,,,,,,,,,,,,,,,,,,,,,,
,,"[""space"",""space"",""space"",""space"",""space"",""space"",""space"",""space"",""space"",""space"",""space"",""space"",""space"",""space"",""space"",""space"",""space"",""space"",""space""]",space,0.479,0.0,3.0,3.0,3.0,1.0,block_2/strong_t_119_4.wav,timbre,t,strong,119.0,2.380207574,12.24809873,,,no,,,no,F,35,R,yes,1,2020-08-28_09h24.01.653,kura-A2,2020.1.2,MacIntel,60,"[1.0850000000000364,1.5019999999999527,1.9789999999998145,2.5419999999999163,3.0239999999998872,3.5299999999997453,4.040999999999713,4.530999999999949,5.038000000000011,5.557999999999993,6.080999999999676,6.5659999999998035,7.074000000000069,7.539999999999964,8.031999999999698,8.545999999999822,9.047999999999774,9.570999999999913,10.077999999999975]",,,,,,,,,,,,,,,,,,,,,,,,,
,,,,,,,,,,block_1/weak_n_81_4.wav,no,n,weak,81.0,2.484743178,17.5438815,,,no,,,no,F,35,R,yes,1,2020-08-28_09h24.01.653,kura-A2,2020.1.2,MacIntel,60,,space,16.54,"[""space"",""space"",""space"",""space"",""space"",""space"",""space"",""space"",""space"",""space"",""space"",""space"",""space"",""space"",""space"",""space"",""space"",""space"",""space"",""space"",""space"",""space""]","[0.48699999999917054,0.6439999999993233,1.0309999999994943,1.7339999999994689,2.5419999999994616,3.3789999999994507,4.1929999999993015,4.958999999999378,5.677999999999429,6.418999999999414,6.9109999999996035,7.619999999999436,8.321999999999207,9.093999999999596,9.850999999999203,10.609999999999218,11.359999999999218,12.162999999999556,12.895999999999276,13.712999999999283,14.462999999999283,15.270999999999276]",space,1.389,0.0,0.0,0.0,36.0,1.0,,,,,,,,,,,,,,
,,,,,,,,,,block_1/strong_n_92_4.wav,no,n,strong,92.0,2.276261723,15.98016195,,,no,,,no,F,35,R,yes,1,2020-08-28_09h24.01.653,kura-A2,2020.1.2,MacIntel,60,,,,"[""space"",""space"",""space"",""space"",""space"",""space"",""space"",""space"",""space"",""space"",""space"",""space"",""space"",""space"",""space"",""space"",""space"",""space"",""space""]","[1.46100000000024,2.0270000000000437,2.700000000000273,3.407000000000153,4.1030000000000655,4.826000000000022,5.5340000000001055,6.235000000000127,6.937000000000353,7.699000000000069,8.383000000000266,9.108000000000175,9.766000000000076,10.501000000000204,11.187000000000353,11.959000000000287,12.69900000000007,13.329000000000178,14.094000000000051]",space,16.304,0.0,1.0,1.0,34.0,1.0,,,,,,,,,,,,,,
,,,,,,,,,,block_1/weak_n_92_3.wav,no,n,weak,92.0,1.887522896,14.6307882,,,no,,,no,F,35,R,yes,1,2020-08-28_09h24.01.653,kura-A2,2020.1.2,MacIntel,60,,,,"[""space"",""space"",""space"",""space"",""space"",""space"",""space"",""space"",""space"",""space"",""space"",""space"",""space"",""space"",""space"",""space"",""space"",""space"",""space""]","[1.3110000000001492,1.8910000000000764,2.493000000000393,3.199000000000069,3.82300000000032,4.4909999999999854,5.119000000000142,5.762000000000171,6.4900000000002365,7.124000000000251,7.786000000000058,8.460000000000036,9.084000000000287,9.768000000000029,10.390000000000327,11.057999999999993,11.635000000000218,12.273999999999887,12.928000000000338]",space,0.622,0.0,2.0,2.0,5.0,1.0,,,,,,,,,,,,,,
,,,,,,,,,,block_1/strong_n_81_4.wav,no,n,strong,81.0,1.727706814,17.69954355,,,no,,,no,F,35,R,yes,1,2020-08-28_09h24.01.653,kura-A2,2020.1.2,MacIntel,60,,,,"[""space"",""space"",""space"",""space"",""space"",""space"",""space"",""space"",""space"",""space"",""space"",""space"",""space"",""space"",""space"",""space"",""space"",""space"",""space"",""space""]","[1.167000000000371,1.7070000000003347,2.51700000000028,3.324000000000069,4.150000000000091,4.999000000000251,5.7710000000001855,6.567000000000007,7.387000000000171,8.173999999999978,8.981999999999971,9.850000000000364,10.656000000000404,11.429000000000087,12.252000000000407,13.044000000000324,13.875,14.702000000000226,15.518000000000029,16.333000000000084]",space,1.466,0.0,3.0,3.0,1.0,1.0,,,,,,,,,,,,,,
,,,,,,,,,,block_1/strong_n_92_3.wav,no,n,strong,92.0,1.754608557,14.24499404,,,no,,,no,F,35,R,yes,1,2020-08-28_09h24.01.653,kura-A2,2020.1.2,MacIntel,60,,,,"[""space"",""space"",""space"",""space"",""space"",""space"",""space"",""space"",""space"",""space"",""space"",""space"",""space"",""space"",""space"",""space"",""space"",""space"",""space"",""space""]","[0.9079999999999018,1.40099999999984,1.97400000000016,2.5579999999999927,3.1909999999998035,3.8339999999998327,4.518000000000029,5.135999999999967,5.744999999999891,6.44399999999996,7.045999999999822,7.692999999999756,8.328999999999724,8.972999999999956,9.53400000000056,10.161999999999807,10.806999999999789,11.411999999999807,12.052000000000135,12.652999999999793]",space,0.77,0.0,4.0,4.0,39.0,1.0,,,,,,,,,,,,,,
,,,,,,,,,,block_1/medium_n_105_3.wav,no,n,medium,105.0,2.417465983,14.09955215,,,no,,,no,F,35,R,yes,1,2020-08-28_09h24.01.653,kura-A2,2020.1.2,MacIntel,60,,,,"[""space"",""space"",""space"",""space"",""space"",""space"",""space"",""space"",""space"",""space"",""space"",""space"",""space"",""space"",""space"",""space"",""space"",""space"",""space"",""space""]","[0.9780000000000655,1.5019999999999527,2.0410000000001673,2.594000000000051,3.157000000000153,3.737999999999829,4.335000000000036,4.889000000000124,5.469000000000051,6.088999999999942,6.68100000000004,7.242000000000189,7.858000000000175,8.407000000000153,8.951000000000022,9.53500000000031,10.16000000000031,10.66800000000012,11.309999999999945,11.902000000000044]",space,0.5,0.0,5.0,5.0,0.0,1.0,,,,,,,,,,,,,,
,,,,,,,,,,block_1/none_n_81_3.wav,no,n,none,81.0,1.098648096,17.74277508,,,no,,,no,F,35,R,yes,1,2020-08-28_09h24.01.653,kura-A2,2020.1.2,MacIntel,60,,,,"[""space"",""space"",""space"",""space"",""space"",""space"",""space"",""space"",""space"",""space"",""space"",""space"",""space"",""space"",""space"",""space"",""space"",""space"",""space"",""space"",""space"",""space"",""space"",""space"",""space"",""space"",""space"",""space"",""space"",""space"",""space"",""space"",""space"",""space"",""space"",""space"",""space"",""space"",""space"",""space"",""space"",""space"",""space"",""space"",""space"",""space"",""space"",""space"",""space"",""space"",""space"",""space"",""space"",""space"",""space"",""space"",""space"",""space"",""space"",""space"",""space""]","[1.425000000000182,2.9890000000000327,3.451000000000022,3.6230000000000473,4.222999999999956,4.432000000000244,4.617000000000189,4.7840000000001055,4.968000000000302,5.148999999999887,5.34900000000016,5.552999999999884,5.769000000000233,5.983999999999924,6.20699999999988,6.416999999999916,6.6340000000000146,6.844000000000051,7.059999999999945,7.4909999999999854,7.718000000000302,7.951000000000022,8.190999999999804,8.427000000000135,8.651000000000295,8.885000000000218,9.110000000000127,9.349999999999909,9.592000000000098,9.852000000000317,10.07300000000032,10.273999999999887,10.489000000000033,10.719000000000051,10.92599999999993,11.151000000000295,11.376000000000204,11.576000000000022,11.789999999999964,12.00500000000011,12.204000000000178,12.41800000000012,12.617999999999938,12.838000000000193,13.041999999999916,13.222999999999956,13.405999999999949,13.625,13.81899999999996,14.018000000000029,14.224999999999909,14.451000000000022,14.639000000000124,14.958000000000084,15.16800000000012,15.360000000000127,15.554000000000087,15.818000000000211,16.027000000000044,16.251000000000204,16.704999999999927]",space,0.688,0.0,6.0,6.0,29.0,1.0,,,,,,,,,,,,,,
,,,,,,,,,,block_1/none_n_72_3.wav,no,n,none,72.0,1.892162994,23.61892036,,,no,,,no,F,35,R,yes,1,2020-08-28_09h24.01.653,kura-A2,2020.1.2,MacIntel,60,,,,"[""space"",""space"",""space"",""space"",""space"",""space"",""space"",""space"",""space"",""space"",""space"",""space"",""space"",""space"",""space"",""space"",""space"",""space"",""space"",""space"",""space"",""space"",""space"",""space"",""space"",""space"",""space"",""space"",""space"",""space"",""space""]","[1.3979999999996835,2.092999999999847,3.7039999999997235,4.335999999999785,5.213999999999942,5.856999999999516,6.631999999999607,7.389999999999873,8.088999999999942,8.856999999999516,9.514999999999873,10.355000000000018,10.914999999999964,12.039999999999964,12.703999999999724,13.340999999999894,13.974999999999909,14.542999999999665,15.204999999999927,15.907999999999902,16.498999999999796,17.3149999999996,17.868999999999687,18.497999999999593,19.139999999999873,19.703999999999724,20.281999999999698,20.866999999999734,21.39099999999962,21.916999999999916,22.859999999999673]",space,0.462,0.0,7.0,7.0,18.0,1.0,,,,,,,,,,,,,,
,,,,,,,,,,block_1/none_n_72_4.wav,no,n,none,72.0,1.118979514,23.86124709,,,no,,,no,F,35,R,yes,1,2020-08-28_09h24.01.653,kura-A2,2020.1.2,MacIntel,60,,,,"[""space"",""space"",""space"",""space"",""space"",""space"",""space"",""space"",""space"",""space"",""space"",""space"",""space"",""space"",""space"",""space"",""space"",""space"",""space"",""space"",""space"",""space"",""space"",""space"",""space"",""space"",""space"",""space"",""space"",""space"",""space"",""space""]","[1.1880000000001019,2.086999999999989,2.938999999999851,3.6269999999999527,4.183999999999742,4.867999999999938,5.549999999999727,6.257999999999811,6.967000000000098,7.817000000000007,8.50799999999981,9.275000000000091,10.018000000000029,10.572999999999865,11.125,11.615999999999985,12.498999999999796,13.206000000000131,14.023999999999887,14.63299999999981,15.315999999999804,15.916999999999916,16.65000000000009,17.25799999999981,17.942999999999756,18.605999999999767,19.273999999999887,19.889999999999873,20.47699999999986,21.452999999999975,21.847999999999956,22.454999999999927]",space,1.292,0.0,8.0,8.0,21.0,1.0,,,,,,,,,,,,,,
,,,,,,,,,,block_1/medium_n_81_3.wav,no,n,medium,81.0,1.199970007,16.72060493,,,no,,,no,F,35,R,yes,1,2020-08-28_09h24.01.653,kura-A2,2020.1.2,MacIntel,60,,,,"[""space"",""space"",""space"",""space"",""space"",""space"",""space"",""space"",""space"",""space"",""space"",""space"",""space"",""space"",""space"",""space"",""space"",""space"",""space""]","[1.2449999999998909,1.9949999999998909,2.793999999999869,3.650000000000091,4.434999999999945,5.26299999999992,6.066000000000258,6.883000000000266,7.7159999999998945,8.461999999999989,9.284999999999854,10.05099999999993,10.876000000000204,11.677999999999884,12.503999999999905,13.416999999999916,14.114999999999782,14.927000000000135,15.651000000000295]",space,0.674,0.0,9.0,9.0,33.0,1.0,,,,,,,,,,,,,,
,,,,,,,,,,block_1/medium_n_92_3.wav,no,n,medium,92.0,1.602440637,13.28810957,,,no,,,no,F,35,R,yes,1,2020-08-28_09h24.01.653,kura-A2,2020.1.2,MacIntel,60,,,,"[""space"",""space"",""space"",""space"",""space"",""space"",""space"",""space"",""space"",""space"",""space"",""space"",""space"",""space"",""space"",""space"",""space"",""space"",""space""]","[1.3230000000003201,1.662000000000262,2.1580000000003565,2.7090000000002874,3.3719999999998436,3.96100000000024,4.64200000000028,5.1840000000001965,5.726000000000113,6.356999999999971,6.983999999999924,7.617999999999938,8.184999999999945,8.827999999999975,9.373000000000047,9.985000000000127,10.586999999999989,11.184999999999945,11.825000000000273]",space,1.586,0.0,10.0,10.0,2.0,1.0,,,,,,,,,,,,,,
,,,,,,,,,,block_1/strong_n_72_4.wav,no,n,strong,72.0,1.599228342,16.96784512,,,no,,,no,F,35,R,yes,1,2020-08-28_09h24.01.653,kura-A2,2020.1.2,MacIntel,60,,,,"[""space"",""space"",""space"",""space"",""space"",""space"",""space"",""space"",""space"",""space"",""space"",""space"",""space"",""space"",""space"",""space"",""space"",""space"",""space"",""space""]","[0.9290000000000873,1.3159999999998035,2.20699999999988,3.0119999999997162,3.800999999999931,4.600999999999658,5.380999999999858,6.1720000000000255,6.954999999999927,7.750999999999749,8.567999999999756,9.389999999999873,10.13000000000011,10.94900000000007,11.672999999999774,12.462999999999738,13.26299999999992,14.080999999999676,14.820999999999913,15.672999999999774]",space,0.483,0.0,11.0,11.0,35.0,1.0,,,,,,,,,,,,,,
,,,,,,,,,,block_1/weak_n_105_3.wav,no,n,weak,105.0,1.738990723,13.41450093,,,no,,,no,F,35,R,yes,1,2020-08-28_09h24.01.653,kura-A2,2020.1.2,MacIntel,60,,,,"[""space"",""space"",""space"",""space"",""space"",""space"",""space"",""space"",""space"",""space"",""space"",""space"",""space"",""space"",""space"",""space"",""space"",""space"",""space""]","[0.9679999999998472,1.4880000000002838,2.2780000000002474,3.0100000000002183,3.7899999999999636,4.544000000000324,5.119000000000142,5.742000000000189,6.317000000000007,6.79300000000012,7.38799999999992,7.941000000000258,8.55600000000004,9.139000000000124,9.710000000000036,10.258000000000266,10.775000000000091,11.360000000000127,11.91800000000012]",space,0.332,0.0,12.0,12.0,27.0,1.0,,,,,,,,,,,,,,
,,,,,,,,,,block_1/none_n_81_4.wav,no,n,none,81.0,2.242955119,22.19488256,,,no,,,no,F,35,R,yes,1,2020-08-28_09h24.01.653,kura-A2,2020.1.2,MacIntel,60,,,,"[""space"",""space"",""space"",""space"",""space"",""space"",""space"",""space"",""space"",""space"",""space"",""space"",""space"",""space"",""space"",""space"",""space"",""space"",""space"",""space"",""space"",""space"",""space"",""space"",""space"",""space"",""space"",""space"",""space"",""space"",""space"",""space"",""space"",""space"",""space"",""space"",""space"",""space"",""space"",""space"",""space"",""space"",""space"",""space"",""space"",""space"",""space"",""space"",""space"",""space"",""space"",""space"",""space"",""space"",""space"",""space"",""space"",""space"",""space"",""space"",""space"",""space"",""space"",""space"",""space"",""space"",""space"",""space"",""space"",""space"",""space"",""space"",""space"",""space"",""space"",""space"",""space"",""space"",""space"",""space"",""space"",""space"",""space"",""space"",""space"",""space"",""space"",""space"",""space"",""space"",""space"",""space"",""space"",""space"",""space"",""space""]","[0.48900000000003274,0.9900000000002365,1.410000000000764,1.9520000000002256,2.21100000000024,2.6390000000001237,2.8580000000001746,3.155999999999949,3.437000000000353,3.73700000000008,4.001000000000204,4.369000000000142,4.637000000000171,4.9520000000002256,5.277000000000044,5.4780000000000655,5.688999999999851,5.901000000000295,6.300000000000182,6.4909999999999854,6.66800000000012,6.850000000000364,7.050000000000182,7.251999999999953,7.437000000000353,7.626999999999953,7.825000000000273,7.994000000000142,8.167000000000371,8.350000000000364,8.518000000000029,8.677000000000135,8.836999999999989,9,9.169000000000324,9.344000000000051,9.501000000000204,9.687000000000353,9.83600000000024,10.01700000000028,10.167000000000371,10.423999999999978,10.557999999999993,10.706000000000131,10.978000000000065,11.167000000000371,11.327000000000226,11.489000000000033,11.66800000000012,11.827999999999975,11.99200000000019,12.169000000000324,12.33600000000024,12.507000000000062,12.700000000000273,12.867999999999938,13.039999999999964,13.390000000000327,13.539999999999964,14.026000000000295,14.184000000000196,14.32300000000032,14.452999999999975,14.702999999999975,14.876999999999953,15.057000000000244,15.217000000000098,15.519000000000233,15.691000000000258,15.838999999999942,15.99200000000019,16.138000000000375,16.307000000000244,16.475000000000364,16.61700000000019,16.75,16.888000000000375,17.01800000000003,17.157000000000153,17.289000000000215,17.43899999999985,17.588999999999942,17.702000000000226,18.009000000000015,18.149000000000342,18.437000000000353,18.55099999999993,18.675000000000182,18.81899999999996,18.96600000000035,19.139000000000124,19.294000000000324,19.467999999999847,19.756000000000313,19.873000000000047,20.01800000000003]",space,0.334,0.0,13.0,13.0,26.0,1.0,,,,,,,,,,,,,,
,,,,,,,,,,block_1/strong_n_119_4.wav,no,n,strong,119.0,1.980480326,12.048825,,,no,,,no,F,35,R,yes,1,2020-08-28_09h24.01.653,kura-A2,2020.1.2,MacIntel,60,,,,"[""space"",""space"",""space"",""space"",""space"",""space"",""space"",""space"",""space"",""space"",""space"",""space"",""space"",""space"",""space"",""space"",""space"",""space"",""space"",""space""]","[0.849999999999909,1.2210000000000036,1.6599999999998545,2.118999999999687,2.600999999999658,3.094000000000051,3.5859999999997854,4.083000000000084,4.588999999999942,5.132000000000062,5.6340000000000146,6.154999999999745,6.650000000000091,7.152000000000044,7.682999999999993,8.157999999999902,8.67699999999968,9.138999999999669,9.63299999999981,10.138999999999669]",space,0.866,0.0,14.0,14.0,23.0,1.0,,,,,,,,,,,,,,
,,,,,,,,,,block_1/none_n_92_3.wav,no,n,none,92.0,2.336707073,18.23675242,,,no,,,no,F,35,R,yes,1,2020-08-28_09h24.01.653,kura-A2,2020.1.2,MacIntel,60,,,,"[""space"",""space"",""space"",""space"",""space"",""space"",""space"",""space"",""space"",""space"",""space"",""space"",""space"",""space"",""space"",""space"",""space"",""space"",""space"",""space"",""space"",""space"",""space"",""space""]","[0.8040000000000873,1.4030000000002474,2.1530000000002474,2.8170000000000073,3.5230000000001382,4.133000000000266,4.753999999999905,5.425000000000182,6.106999999999971,6.643000000000029,7.31899999999996,8,8.534000000000106,9.204000000000178,9.816000000000258,10.510000000000218,11.139999999999873,11.816000000000258,12.467000000000098,13.16800000000012,13.784999999999854,14.403999999999996,15.121999999999844,15.659000000000106]",space,178.985,0.0,15.0,15.0,25.0,1.0,,,,,,,,,,,,,,
,,,,,,,,,,block_1/none_n_105_4.wav,no,n,none,105.0,1.493653366,16.97025201,,,no,,,no,F,35,R,yes,1,2020-08-28_09h24.01.653,kura-A2,2020.1.2,MacIntel,60,,,,"[""space"",""space"",""space"",""space"",""space"",""space"",""space"",""space"",""space"",""space"",""space"",""space"",""space"",""space"",""space"",""space"",""space"",""space"",""space"",""space"",""space"",""space"",""space"",""space"",""space"",""space"",""space""]","[0.9099999999998545,1.293999999999869,1.9659999999998945,2.344000000000051,2.7970000000000255,3.3109999999996944,3.8600000000001273,4.438000000000102,4.960000000000036,5.568000000000211,6.1550000000002,6.766999999999825,7.382000000000062,7.932999999999993,8.503000000000156,9.052000000000135,9.666000000000167,10.277999999999793,10.820000000000164,11.351000000000113,11.909000000000106,12.483999999999924,13.195000000000164,13.811999999999898,14.360999999999876,14.938000000000102,15.496000000000095]",space,8.923,0.0,16.0,16.0,14.0,1.0,,,,,,,,,,,,,,
,,,,,,,,,,block_1/medium_n_119_4.wav,no,n,medium,119.0,1.261396351,9.568471181,,,no,,,no,F,35,R,yes,1,2020-08-28_09h24.01.653,kura-A2,2020.1.2,MacIntel,60,,,,"[""space"",""space"",""space"",""space"",""space"",""space"",""space"",""space"",""space"",""space"",""space"",""space"",""space"",""space"",""space"",""space"",""space"",""space"",""space""]","[0.5500000000001819,1.080000000000382,1.5340000000001055,2.0210000000001855,2.350000000000364,2.7020000000002256,3.0790000000001783,3.4840000000003783,3.907000000000153,4.304000000000087,4.782000000000153,5.205000000000382,5.6720000000000255,6.135999999999967,6.570000000000164,7.015000000000327,7.486000000000331,7.891000000000076,8.351000000000113]",space,0.671,0.0,17.0,17.0,17.0,1.0,,,,,,,,,,,,,,
,,,,,,,,,,block_1/medium_n_119_3.wav,no,n,medium,119.0,1.238363393,11.09976929,,,no,,,no,F,35,R,yes,1,2020-08-28_09h24.01.653,kura-A2,2020.1.2,MacIntel,60,,,,"[""space"",""space"",""space"",""space"",""space"",""space"",""space"",""space"",""space"",""space"",""space"",""space"",""space"",""space"",""space"",""space"",""space"",""space"",""space"",""space"",""space"",""space"",""space""]","[0.6329999999998108,1.1019999999998618,1.5010000000002037,1.8530000000000655,2.186999999999898,2.4520000000002256,2.8049999999998363,3.132999999999811,3.4830000000001746,3.8769999999999527,4.278999999999996,4.663000000000011,5.094000000000051,5.652999999999793,6.130000000000109,6.648999999999887,7.110000000000127,7.576000000000022,8.050000000000182,8.545000000000073,9.003999999999905,9.498000000000047,9.976999999999862]",space,0.348,0.0,18.0,18.0,22.0,1.0,,,,,,,,,,,,,,
,,,,,,,,,,block_1/weak_n_119_3.wav,no,n,weak,119.0,2.459758036,10.81612992,,,no,,,no,F,35,R,yes,1,2020-08-28_09h24.01.653,kura-A2,2020.1.2,MacIntel,60,,,,"[""space"",""space"",""space"",""space"",""space"",""space"",""space"",""space"",""space"",""space"",""space"",""space"",""space"",""space"",""space"",""space"",""space"",""space""]","[1.2330000000001746,1.6380000000003747,2.0340000000001055,2.4220000000000255,2.8760000000002037,3.3079999999999927,3.6849999999999454,4.119000000000142,4.541000000000167,5.001999999999953,5.405999999999949,5.84900000000016,6.258000000000266,6.717000000000098,7.149000000000342,7.56899999999996,8.034000000000106,8.46600000000035]",space,0.457,0.0,19.0,19.0,37.0,1.0,,,,,,,,,,,,,,
,,,,,,,,,,block_1/medium_n_105_4.wav,no,n,medium,105.0,1.402482856,15.80924023,,,no,,,no,F,35,R,yes,1,2020-08-28_09h24.01.653,kura-A2,2020.1.2,MacIntel,60,,,,"[""space"",""space"",""space"",""space"",""space"",""space"",""space"",""space"",""space"",""space"",""space"",""space"",""space"",""space"",""space"",""space"",""space"",""space"",""space"",""space""]","[0.569999999999709,1.0519999999996799,1.8659999999999854,2.711999999999989,3.500999999999749,4.101000000000113,4.826000000000022,5.851000000000113,6.580999999999676,7.307999999999993,7.998999999999796,8.826000000000022,9.567999999999756,10.310999999999694,11.025000000000091,11.782999999999902,12.458999999999833,13.17599999999993,13.866999999999734,14.650000000000091]",space,0.525,0.0,20.0,20.0,12.0,1.0,,,,,,,,,,,,,,
,,,,,,,,,,block_1/medium_n_81_4.wav,no,n,medium,81.0,1.742854158,16.25138024,,,no,,,no,F,35,R,yes,1,2020-08-28_09h24.01.653,kura-A2,2020.1.2,MacIntel,60,,,,"[""space"",""space"",""space"",""space"",""space"",""space"",""space"",""space"",""space"",""space"",""space"",""space"",""space"",""space"",""space"",""space"",""space"",""space"",""space"",""space""]","[0.5589999999997417,1.3159999999998035,2.063999999999851,2.7899999999999636,3.507000000000062,4.230999999999767,4.964999999999691,5.697999999999865,6.504999999999654,7.251999999999953,7.904999999999745,8.603000000000065,9.35799999999972,10.080999999999676,10.871999999999844,11.58999999999969,12.536999999999807,13.402999999999793,14.009000000000015,14.648999999999887]",space,6.225,0.0,21.0,21.0,38.0,1.0,,,,,,,,,,,,,,
,,,,,,,,,,block_1/medium_n_72_3.wav,no,n,medium,72.0,2.102023577,18.17590113,,,no,,,no,F,35,R,yes,1,2020-08-28_09h24.01.653,kura-A2,2020.1.2,MacIntel,60,,,,"[""space"",""space"",""space"",""space"",""space"",""space"",""space"",""space"",""space"",""space"",""space"",""space"",""space"",""space"",""space"",""space"",""space"",""space"",""space"",""space""]","[0.5770000000002256,1.6210000000000946,2.323000000000775,3.0350000000003092,3.8020000000001346,4.6710000000002765,5.544000000000324,6.3840000000000146,7.195000000000164,7.934999999999945,8.827999999999975,9.620000000000346,10.490000000000236,11.251000000000204,12.093000000000302,12.869000000000142,13.69399999999996,14.52200000000039,15.22400000000016,16.06100000000015]",space,0.555,0.0,22.0,22.0,13.0,1.0,,,,,,,,,,,,,,
,,,,,,,,,,block_1/medium_n_92_4.wav,no,n,medium,92.0,1.438882438,14.02917722,,,no,,,no,F,35,R,yes,1,2020-08-28_09h24.01.653,kura-A2,2020.1.2,MacIntel,60,,,,"[""space"",""space"",""space"",""space"",""space"",""space"",""space"",""space"",""space"",""space"",""space"",""space"",""space"",""space"",""space"",""space"",""space"",""space"",""space"",""space""]","[0.7890000000002146,1.3049999999998363,2.0419999999999163,2.650000000000091,3.2590000000000146,3.923000000000229,4.539999999999964,5.188999999999851,5.7710000000001855,6.371000000000095,7.001000000000204,7.657000000000153,8.25,8.873000000000047,9.414000000000215,10.041000000000167,10.637000000000171,11.456000000000131,11.992999999999938,12.58199999999988]",space,0.727,0.0,23.0,23.0,11.0,1.0,,,,,,,,,,,,,,
,,,,,,,,,,block_1/medium_n_72_4.wav,no,n,medium,72.0,1.204769933,15.71334136,,,no,,,no,F,35,R,yes,1,2020-08-28_09h24.01.653,kura-A2,2020.1.2,MacIntel,60,,,,"[""space"",""space"",""space"",""space"",""space"",""space"",""space"",""space"",""space"",""space"",""space"",""space"",""space"",""space"",""space"",""space"",""space"",""space"",""space"",""space""]","[0.6059999999997672,1.3489999999997053,2.0859999999997854,2.9279999999998836,3.6269999999999527,4.308999999999742,5.045000000000073,5.760999999999967,6.6030000000000655,7.23700000000008,8.038000000000011,8.759999999999764,9.356999999999971,10.400000000000091,11.005999999999858,11.67599999999993,12.384000000000015,13.155999999999949,13.85799999999972,14.57400000000007]",space,154.983,0.0,24.0,24.0,7.0,1.0,,,,,,,,,,,,,,
,,,,,,,,,,block_1/weak_n_72_3.wav,no,n,weak,72.0,1.008682366,16.87657352,,,no,,,no,F,35,R,yes,1,2020-08-28_09h24.01.653,kura-A2,2020.1.2,MacIntel,60,,,,,,space,6.058,0.0,25.0,25.0,8.0,1.0,,,,,,,,,,,,,,
,,,,,,,,,,block_1/strong_n_81_3.wav,no,n,strong,81.0,1.6043637,15.60930701,,,no,,,no,F,35,R,yes,1,2020-08-28_09h24.01.653,kura-A2,2020.1.2,MacIntel,60,,,,,,space,90.705,0.0,26.0,26.0,10.0,1.0,,,,,,,,,,,,,,
,,,,,,,,,,block_1/none_n_119_4.wav,no,n,none,119.0,2.009432028,15.37111003,,,no,,,no,F,35,R,yes,1,2020-08-28_09h24.01.653,kura-A2,2020.1.2,MacIntel,60,,,,"[""space"",""space"",""space"",""space"",""space"",""space"",""space"",""space"",""space"",""space"",""space"",""space"",""space"",""space"",""space"",""space"",""space"",""space"",""space"",""space"",""space"",""space"",""space"",""space"",""space"",""space"",""space"",""space"",""space"",""space"",""space"",""space"",""space"",""space"",""space"",""space"",""space"",""space"",""space"",""space""]","[0.2789999999995416,0.6289999999999054,1.1309999999994034,1.61200000000008,2.157999999999447,2.6390000000001237,3.0159999999996217,3.3149999999996,3.7219999999997526,4.143000000000029,4.493999999999687,4.7979999999997744,5.094999999999345,5.377999999999702,5.729999999999563,6.079999999999927,6.389999999999418,6.680999999999585,6.989999999999782,7.322999999999411,7.6299999999992,7.938999999999396,8.239999999999782,8.541000000000167,8.844999999999345,9.16399999999976,9.487999999999374,9.82799999999952,10.154999999999745,10.509999999999309,10.822000000001026,11.164999999999964,11.49199999999928,11.793999999999869,12.121999999999389,12.429999999999382,12.764000000000124,13.036999999999352,13.338999999999942,13.664999999999964]",space,0.434,0.0,27.0,27.0,20.0,1.0,,,,,,,,,,,,,,
,,,,,,,,,,block_1/weak_n_81_3.wav,no,n,weak,81.0,1.412334255,16.47029344,,,no,,,no,F,35,R,yes,1,2020-08-28_09h24.01.653,kura-A2,2020.1.2,MacIntel,60,,,,"[""space"",""space"",""space"",""space"",""space"",""space"",""space"",""space"",""space"",""space"",""space"",""space"",""space"",""space"",""space"",""space"",""space"",""space"",""space"",""space""]","[0.7579999999998108,1.3710000000000946,2.270999999999731,3.048999999999978,3.9229999999997744,4.617000000000189,5.335000000000036,6.119999999999891,6.890000000000327,7.507999999999811,8.219000000000051,8.949999999999818,9.806999999999789,10.574999999999818,11.225999999999658,12.109999999999673,12.88299999999981,13.748999999999796,14.414999999999964,15.199999999999818]",space,0.615,0.0,28.0,28.0,30.0,1.0,,,,,,,,,,,,,,
,,,,,,,,,,block_1/weak_n_105_4.wav,no,n,weak,105.0,1.436012468,12.20911904,,,no,,,no,F,35,R,yes,1,2020-08-28_09h24.01.653,kura-A2,2020.1.2,MacIntel,60,,,,"[""space"",""space"",""space"",""space"",""space"",""space"",""space"",""space"",""space"",""space"",""space"",""space"",""space"",""space"",""space"",""space"",""space"",""space"",""space"",""space"",""space"",""space""]","[0.5929999999998472,0.9570000000003347,1.4369999999998981,1.8230000000003201,2.243999999999687,2.6140000000004875,3.0219999999999345,3.4899999999997817,4.041000000000167,4.570999999999913,5.064000000000306,5.564000000000306,6.070999999999913,6.622000000000298,7.140000000000327,7.640000000000327,8.239999999999782,8.75500000000011,9.23700000000008,9.805000000000291,10.328999999999724,10.877000000000407]",space,0.888,0.0,29.0,29.0,28.0,1.0,,,,,,,,,,,,,,
,,,,,,,,,,block_1/weak_n_72_4.wav,no,n,weak,72.0,1.441009476,17.41543124,,,no,,,no,F,35,R,yes,1,2020-08-28_09h24.01.653,kura-A2,2020.1.2,MacIntel,60,,,,"[""space"",""space"",""space"",""space"",""space"",""space"",""space"",""space"",""space"",""space"",""space"",""space"",""space"",""space"",""space"",""space"",""space"",""space"",""space"",""space""]","[0.6089999999994689,1.1729999999997744,1.8589999999994689,2.661000000000058,3.7919999999994616,4.576000000000022,5.3400000000001455,6.155999999999949,6.967999999999847,7.719000000000051,8.59099999999944,9.433999999999287,10.220999999999549,10.958999999999833,11.850999999999658,12.716999999999643,13.55999999999949,14.349999999999454,15.310999999999694,16.131999999999607]",space,0.881,0.0,30.0,30.0,4.0,1.0,,,,,,,,,,,,,,
,,,,,,,,,,block_1/none_n_92_4.wav,no,n,none,92.0,1.296817987,15.18938035,,,no,,,no,F,35,R,yes,1,2020-08-28_09h24.01.653,kura-A2,2020.1.2,MacIntel,60,,,,"[""space"",""space"",""space"",""space"",""space"",""space"",""space"",""space"",""space"",""space"",""space"",""space"",""space"",""space"",""space"",""space"",""space"",""space"",""space"",""space"",""space""]","[0.6529999999993379,1.3719999999993888,1.9919999999992797,2.5869999999995343,3.149999999999636,3.7679999999991196,4.377999999999702,5.069999999999709,5.7590000000000146,6.389999999999418,7.17699999999968,7.839999999999236,8.569999999999709,9.282999999999447,9.884000000000015,10.621000000000095,11.292999999999665,12.03399999999965,12.768999999999323,13.42699999999968,14.089999999999236]",space,0.404,0.0,31.0,31.0,19.0,1.0,,,,,,,,,,,,,,
,,,,,,,,,,block_1/strong_n_119_3.wav,no,n,strong,119.0,1.213627968,10.9792062,,,no,,,no,F,35,R,yes,1,2020-08-28_09h24.01.653,kura-A2,2020.1.2,MacIntel,60,,,,"[""space"",""space"",""space"",""space"",""space"",""space"",""space"",""space"",""space"",""space"",""space"",""space"",""space"",""space"",""space"",""space"",""space"",""space"",""space"",""space""]","[0.7539999999999054,1.1619999999993524,1.6539999999995416,2.1049999999995634,2.587999999999738,3.088999999999942,3.5789999999997235,4.0900000000001455,4.563999999999396,5.070999999999913,5.501999999999498,5.9979999999995925,6.511999999999716,7.048999999999978,7.563999999999396,7.9539999999997235,8.462999999999738,8.938000000000102,9.536999999999352,10.203999999999724]",space,0.601,0.0,32.0,32.0,16.0,1.0,,,,,,,,,,,,,,
,,,,,,,,,,block_1/weak_n_119_4.wav,no,n,weak,119.0,2.305568033,13.07926418,,,no,,,no,F,35,R,yes,1,2020-08-28_09h24.01.653,kura-A2,2020.1.2,MacIntel,60,,,,"[""space"",""space"",""space"",""space"",""space"",""space"",""space"",""space"",""space"",""space"",""space"",""space"",""space"",""space"",""space"",""space"",""space"",""space"",""space"",""space""]","[0.5060000000003129,1.15099999999984,1.6040000000002692,2.2150000000001455,2.867000000000189,3.4049999999997453,4.036000000000058,4.533999999999651,5.119999999999891,5.7039999999997235,6.233000000000175,6.782000000000153,7.273000000000138,7.77599999999984,8.31000000000131,8.832000000000335,9.358000000000175,9.884000000000015,10.440999999999804,11.018000000000029]",space,0.515,0.0,33.0,33.0,31.0,1.0,,,,,,,,,,,,,,
,,,,,,,,,,block_1/strong_n_105_4.wav,no,n,strong,105.0,1.30585928,13.14087062,,,no,,,no,F,35,R,yes,1,2020-08-28_09h24.01.653,kura-A2,2020.1.2,MacIntel,60,,,,"[""space"",""space"",""space"",""space"",""space"",""space"",""space"",""space"",""space"",""space"",""space"",""space"",""space"",""space"",""space"",""space"",""space"",""space"",""space"",""space""]","[0.73700000000008,1.3109999999996944,1.8869999999997162,2.4909999999999854,3.1080000000001746,3.673999999999978,4.317000000000007,4.917000000000371,5.539999999999964,6.128999999999905,6.677999999999884,7.301000000000386,7.904000000000451,8.458999999999833,9.109999999999673,9.689000000000306,10.33600000000024,10.917000000000371,11.50799999999981,12.077000000000226]",space,0.521,0.0,34.0,34.0,3.0,1.0,,,,,,,,,,,,,,
,,,,,,,,,,block_1/weak_n_92_4.wav,no,n,weak,92.0,2.208253857,14.29442166,,,no,,,no,F,35,R,yes,1,2020-08-28_09h24.01.653,kura-A2,2020.1.2,MacIntel,60,,,,"[""space"",""space"",""space"",""space"",""space"",""space"",""space"",""space"",""space"",""space"",""space"",""space"",""space"",""space"",""space"",""space"",""space"",""space"",""space"",""space""]","[0.7310000000006767,1.3159999999998035,1.9710000000004584,2.57300000000032,3.1810000000004948,3.7899999999999636,4.387000000000626,5.190000000000509,5.657000000000153,6.213000000000648,6.801000000000386,7.402000000000044,7.970000000000255,8.57300000000032,9.182000000000698,9.774000000000342,10.391000000000531,10.96600000000035,11.613000000000284,12.225000000000364]",space,0.747,0.0,35.0,35.0,15.0,1.0,,,,,,,,,,,,,,
,,,,,,,,,,block_1/strong_n_72_3.wav,no,n,strong,72.0,2.03136762,17.09667374,,,no,,,no,F,35,R,yes,1,2020-08-28_09h24.01.653,kura-A2,2020.1.2,MacIntel,60,,,,"[""space"",""space"",""space"",""space"",""space"",""space"",""space"",""space"",""space"",""space"",""space"",""space"",""space"",""space"",""space"",""space"",""space"",""space"",""space"",""space""]","[0.6000000000003638,1.4600000000000364,2.193000000000211,3.019000000000233,3.8170000000000073,4.594000000000051,5.319000000000415,6.102000000000771,6.911000000000058,7.623000000000502,8.410000000000764,9.283000000000357,10.002000000000407,10.786000000000058,11.542000000000371,12.252000000000407,13.035000000000764,13.818000000000211,14.593000000000757,15.351000000000568]",space,0.334,0.0,36.0,36.0,32.0,1.0,,,,,,,,,,,,,,
,,,,,,,,,,block_1/strong_n_105_3.wav,no,n,strong,105.0,1.156897655,12.38746455,,,no,,,no,F,35,R,yes,1,2020-08-28_09h24.01.653,kura-A2,2020.1.2,MacIntel,60,,,,"[""space"",""space"",""space"",""space"",""space"",""space"",""space"",""space"",""space"",""space"",""space"",""space"",""space"",""space"",""space"",""space"",""space"",""space"",""space"",""space""]","[0.6270000000004075,1.0770000000002256,1.6459999999997308,2.145999999999731,2.786000000000058,3.3770000000004075,3.9520000000002256,4.519000000000233,5.087000000000444,5.63799999999992,6.268000000000029,6.796999999999571,7.4210000000002765,8.027000000000044,8.605999999999767,9.154000000000451,9.74499999999989,10.284999999999854,10.936999999999898,11.6850000000004]",space,0.682,0.0,37.0,37.0,9.0,1.0,,,,,,,,,,,,,,
,,,,,,,,,,block_1/none_n_119_3.wav,no,n,none,119.0,1.932281918,14.89500301,,,no,,,no,F,35,R,yes,1,2020-08-28_09h24.01.653,kura-A2,2020.1.2,MacIntel,60,,,,"[""space"",""space"",""space"",""space"",""space"",""space"",""space"",""space"",""space"",""space"",""space"",""space"",""space"",""space"",""space"",""space"",""space"",""space"",""space"",""space"",""space"",""space"",""space"",""space"",""space"",""space"",""space"",""space"",""space"",""space""]","[0.5779999999995198,1.1909999999998035,1.5770000000002256,1.9349999999994907,2.256999999999607,2.90099999999984,3.2409999999999854,3.587999999999738,3.938000000000102,4.337999999999738,4.670000000000073,5.126000000000204,5.539999999999964,5.876000000000204,6.173999999999978,6.439000000000306,6.786999999999352,7.149999999999636,7.826000000000022,9.028000000000247,9.568000000000211,10.141999999999825,10.411999999999352,10.769000000000233,11.041000000000167,11.377999999999702,11.778000000000247,12.199999999999818,12.524999999999636,12.90099999999984]",space,82.535,0.0,38.0,38.0,24.0,1.0,,,,,,,,,,,,,,
,,,,,,,,,,block_1/none_n_105_3.wav,no,n,none,105.0,2.216733946,14.87818519,,,no,,,no,F,35,R,yes,1,2020-08-28_09h24.01.653,kura-A2,2020.1.2,MacIntel,60,,,,"[""space"",""space"",""space"",""space"",""space"",""space"",""space"",""space"",""space"",""space"",""space"",""space"",""space"",""space"",""space"",""space"",""space"",""space"",""space"",""space"",""space"",""space"",""space"",""space"",""space"",""space"",""space"",""space"",""space"",""space"",""space"",""space"",""space"",""space"",""space"",""space"",""space"",""space"",""space"",""space"",""space"",""space"",""space"",""space"",""space"",""space"",""space"",""space"",""space"",""space"",""space"",""space"",""space"",""space"",""space"",""space"",""space"",""space"",""space""]","[0.4669999999996435,0.8159999999998035,1.2449999999998909,1.6469999999999345,2.149999999999636,2.393000000000029,2.5839999999998327,2.819999999999709,3.0189999999993233,3.2330000000001746,3.4290000000000873,3.6019999999998618,3.798999999999978,3.993999999999687,4.175999999999476,4.358999999999469,4.550000000000182,4.733999999999469,4.931999999999789,5.117000000000189,5.282999999999447,5.460999999999331,5.6359999999995125,5.826000000000022,6.027000000000044,6.219999999999345,6.408999999999651,6.617999999999483,6.802999999999884,7.158999999999651,7.32799999999952,7.509999999999309,7.685999999999694,7.867999999999483,8.081999999999425,8.27599999999984,8.458999999999833,8.649999999999636,8.849999999999454,9.028999999999542,9.201999999999316,9.376999999999498,9.541999999999462,9.760999999999513,9.953999999999724,10.1299999999992,10.317000000000007,10.509000000000015,10.708999999999833,10.893000000000029,11.087999999999738,11.469999999999345,11.677999999999884,11.860999999999876,12.076999999999316,12.268999999999323,12.478000000000065,12.659999999999854,12.859999999999673]",space,0.468,0.0,39.0,39.0,6.0,1.0,,,,,,,,,,,,,,
,,,,,,,,,,block_2/none_t_92_4.wav,timbre,t,none,92.0,1.414044957,16.25508804,,,no,,,no,F,35,R,yes,1,2020-08-28_09h24.01.653,kura-A2,2020.1.2,MacIntel,60,,,,,,,,,,,,,space,767.279,"[""space"",""space"",""space"",""space"",""space"",""space"",""space"",""space"",""space"",""space"",""space"",""space"",""space"",""space"",""space"",""space"",""space"",""space"",""space"",""space"",""space"",""space"",""space"",""space"",""space"",""space"",""space"",""space"",""space"",""space"",""space"",""space"",""space""]","[0.761000000000422,1.2280000000000655,1.6520000000000437,2.0340000000005602,2.5529999999998836,3.07300000000032,3.6090000000003783,4.050000000000182,4.567000000000007,5.092000000000553,5.539999999999964,6.128000000000611,6.628999999999905,7.091000000000349,7.518000000000029,8.017000000000735,8.410000000000764,8.655999999999949,9.059000000000196,9.489999999999782,9.941000000000713,10.352000000000771,10.789999999999964,11.301000000000386,11.77600000000075,12.24499999999989,12.645000000000437,13.048999999999978,13.52100000000064,13.877000000000407,14.286000000000058,14.60400000000027,14.890000000000327]",space,0.563,0.0,0.0,0.0,22.0,1.0,,,
,,,,,,,,,,block_2/strong_t_81_4.wav,timbre,t,strong,81.0,1.059530738,15.41717246,,,no,,,no,F,35,R,yes,1,2020-08-28_09h24.01.653,kura-A2,2020.1.2,MacIntel,60,,,,,,,,,,,,,,,"[""space"",""space"",""space"",""space"",""space"",""space"",""space"",""space"",""space"",""space"",""space"",""space"",""space"",""space"",""space"",""space"",""space"",""space"",""space"",""space""]","[0.7090000000007421,1.5410000000001673,2.2070000000003347,2.97400000000016,3.7160000000003492,4.367000000000189,5.209000000000742,5.899000000000342,6.624000000000706,7.550000000000182,8.108000000000175,8.837000000000444,9.556000000000495,10.261000000000422,10.994000000000597,11.675000000000182,12.503000000000611,13.210000000000036,13.80200000000059,14.735999999999876]",space,15.917,0.0,1.0,1.0,34.0,1.0,,,
,,,,,,,,,,block_2/none_t_81_3.wav,timbre,t,none,81.0,2.3234515,21.58667145,,,no,,,no,F,35,R,yes,1,2020-08-28_09h24.01.653,kura-A2,2020.1.2,MacIntel,60,,,,,,,,,,,,,,,"[""space"",""space"",""space"",""space"",""space"",""space"",""space"",""space"",""space"",""space"",""space"",""space"",""space"",""space"",""space"",""space"",""space"",""space"",""space"",""space"",""space"",""space"",""space"",""space"",""space"",""space"",""space"",""space"",""space"",""space"",""space"",""space"",""space"",""space"",""space"",""space"",""space"",""space"",""space"",""space"",""space"",""space"",""space""]","[0.22000000000025466,0.6550000000006548,1.2400000000006912,1.9010000000007494,2.3850000000002183,2.800000000000182,3.1959999999999127,3.5620000000008076,4.027000000000044,4.48700000000008,4.901000000000749,5.267000000000735,5.651000000000749,6.052000000000589,6.392000000000735,6.838999999999942,7.27100000000064,7.793000000000575,8.2450000000008,8.80200000000059,9.301000000000386,9.757000000000517,10.171000000000276,10.634000000000015,11.068000000000211,11.868000000000393,12.286000000000058,12.740999999999985,13.210000000000036,13.65100000000075,14.085000000000036,14.618000000000393,15.068000000000211,15.490999999999985,15.890000000000327,16.342000000000553,16.801000000000386,17.285000000000764,17.7450000000008,18.335000000000036,18.804000000000087,19.271999999999935,20.637000000000626]",space,0.07,0.0,2.0,2.0,10.0,1.0,,,
,,,,,,,,,,block_2/strong_t_92_3.wav,timbre,t,strong,92.0,2.058598996,15.10526566,,,no,,,no,F,35,R,yes,1,2020-08-28_09h24.01.653,kura-A2,2020.1.2,MacIntel,60,,,,,,,,,,,,,,,"[""space"",""space"",""space"",""space"",""space"",""space"",""space"",""space"",""space"",""space"",""space"",""space"",""space"",""space"",""space"",""space"",""space"",""space"",""space"",""space"",""space""]","[0.33700000000044383,0.8360000000002401,1.3410000000003492,1.9700000000002547,2.5770000000002256,3.25800000000163,3.9420000000000073,4.570999999999913,5.270000000000437,5.969000000000051,6.520000000000437,7.187000000000808,7.829999999999927,8.47400000000016,9.176000000000386,9.767000000000735,10.519000000000233,11.083000000000538,11.693000000000211,12.421000000000276,13.218000000000757]",space,0.354,0.0,3.0,3.0,3.0,1.0,,,
,,,,,,,,,,block_2/medium_t_105_4.wav,timbre,t,medium,105.0,1.80685877,13.54300389,,,no,,,no,F,35,R,yes,1,2020-08-28_09h24.01.653,kura-A2,2020.1.2,MacIntel,60,,,,,,,,,,,,,,,"[""space"",""space"",""space"",""space"",""space"",""space"",""space"",""space"",""space"",""space"",""space"",""space"",""space"",""space"",""space"",""space"",""space"",""space"",""space"",""space""]","[0.7749999999996362,1.3499999999994543,1.805000000000291,2.369999999999891,2.8779999999997017,3.418999999999869,4.020999999999731,4.572000000000116,5.168999999999869,5.811999999999898,6.417999999999665,7.03899999999976,7.680999999999585,8.349999999999454,8.930000000000291,9.417999999999665,9.9399999999996,10.537000000000262,11.186999999999898,11.820999999999913]",space,0.659,0.0,4.0,4.0,23.0,1.0,,,
,,,,,,,,,,block_2/medium_t_119_3.wav,timbre,t,medium,119.0,1.894752713,10.65330147,,,no,,,no,F,35,R,yes,1,2020-08-28_09h24.01.653,kura-A2,2020.1.2,MacIntel,60,,,,,,,,,,,,,,,"[""space"",""space"",""space"",""space"",""space"",""space"",""space"",""space"",""space"",""space"",""space"",""space"",""space"",""space"",""space"",""space"",""space"",""space"",""space"",""space""]","[0.20899999999892316,0.591999999998734,1.1239999999988868,1.5579999999981737,1.9829999999983556,2.4569999999985157,2.941999999999098,3.4089999999987413,3.8329999999987194,4.3069999999988795,4.74199999999837,5.233999999998559,5.625999999998385,6.059999999998581,6.5329999999985375,6.984999999998763,7.442999999998392,7.882999999998901,8.383999999999105,8.907999999998538]",space,1.109,0.0,5.0,5.0,37.0,1.0,,,
,,,,,,,,,,block_2/weak_t_119_4.wav,timbre,t,weak,119.0,2.497661912,13.1066415,,,no,,,no,F,35,R,yes,1,2020-08-28_09h24.01.653,kura-A2,2020.1.2,MacIntel,60,,,,,,,,,,,,,,,"[""space"",""space"",""space"",""space"",""space"",""space"",""space"",""space"",""space"",""space"",""space"",""space"",""space"",""space"",""space"",""space"",""space"",""space"",""space"",""space"",""space"",""space"",""space"",""space"",""space""]","[0.558999999999287,0.9219999999995707,1.3350000000000364,1.7819999999992433,2.2399999999997817,2.701999999999316,3.0909999999994398,3.464999999999236,3.8739999999997963,4.232999999999265,4.656999999999243,5.107999999999265,5.5919999999996435,6.055999999999585,6.437999999999192,6.80199999999968,7.2549999999992,7.756999999999607,8.30199999999968,8.75,9.22399999999925,9.667999999999665,10.114999999999782,10.665999999999258,12.548999999999978]",space,0.423,0.0,6.0,6.0,11.0,1.0,,,
,,,,,,,,,,block_2/weak_t_105_4.wav,timbre,t,weak,105.0,1.205192231,12.73516956,,,no,,,no,F,35,R,yes,1,2020-08-28_09h24.01.653,kura-A2,2020.1.2,MacIntel,60,,,,,,,,,,,,,,,"[""space"",""space"",""space"",""space"",""space"",""space"",""space"",""space"",""space"",""space"",""space"",""space"",""space"",""space"",""space"",""space"",""space"",""space"",""space""]","[0.6559999999999491,1.2379999999993743,1.8159999999998035,2.4069999999992433,2.980999999999767,3.5049999999991996,4.049999999999272,4.589999999999236,5.072999999999411,5.621999999999389,6.152000000000044,6.738999999999578,7.2739999999994325,7.904999999999745,8.4399999999996,9.031999999999243,9.548999999999978,10.752999999999702,11.159999999999854]",space,32.107,0.0,7.0,7.0,7.0,1.0,,,
,,,,,,,,,,block_2/none_t_119_3.wav,timbre,t,none,119.0,1.207484261,12.32644118,,,no,,,no,F,35,R,yes,1,2020-08-28_09h24.01.653,kura-A2,2020.1.2,MacIntel,60,,,,,,,,,,,,,,,"[""space"",""space"",""space"",""space"",""space"",""space"",""space"",""space"",""space"",""space"",""space"",""space"",""space"",""space"",""space"",""space"",""space"",""space"",""space"",""space"",""space"",""space"",""space"",""space"",""space"",""space""]","[0.48100000000067666,0.9050000000006548,1.4350000000004002,1.9070000000001528,2.316000000000713,2.8209999999999127,3.354000000000269,3.805000000000291,4.167000000000371,4.67200000000048,5.142000000000735,5.623000000000502,5.998000000000502,6.332000000000335,6.693000000000211,7.024000000000342,7.390000000000327,7.8400000000001455,8.25800000000072,8.706000000000131,9.056000000000495,9.53400000000056,9.850000000000364,10.231999999999971,10.654000000000451,11.132000000000517]",space,0.45,0.0,8.0,8.0,32.0,1.0,,,
,,,,,,,,,,block_2/medium_t_81_4.wav,timbre,t,medium,81.0,2.313262111,15.10881767,,,no,,,no,F,35,R,yes,1,2020-08-28_09h24.01.653,kura-A2,2020.1.2,MacIntel,60,,,,,,,,,,,,,,,"[""space"",""space"",""space"",""space"",""space"",""space"",""space"",""space"",""space"",""space"",""space"",""space"",""space"",""space"",""space"",""space"",""space"",""space"",""space"",""space"",""space"",""space""]","[0.2360000000007858,0.5420000000003711,0.9860000000007858,1.6030000000000655,2.423999999999978,3.0260000000007494,3.600000000000364,4.2409999999999854,4.988000000000284,5.584000000001652,6.1580000000003565,6.753000000000611,7.5090000000000146,8.202000000000226,8.942000000000007,9.516000000000531,10.271999999999935,10.9350000000004,11.618000000000393,12.20300000000043,12.858000000000175,14.358000000000175]",space,0.438,0.0,9.0,9.0,2.0,1.0,,,
,,,,,,,,,,block_2/medium_t_119_4.wav,timbre,t,medium,119.0,2.1713947,11.99221103,,,no,,,no,F,35,R,yes,1,2020-08-28_09h24.01.653,kura-A2,2020.1.2,MacIntel,60,,,,,,,,,,,,,,,"[""space"",""space"",""space"",""space"",""space"",""space"",""space"",""space"",""space"",""space"",""space"",""space"",""space"",""space"",""space"",""space"",""space"",""space"",""space"",""space""]","[0.2889999999997599,0.8440000000000509,1.225999999999658,1.667000000000371,2.1660000000001673,2.6679999999996653,3.1760000000003856,3.6899999999996,4.220000000000255,4.751000000000204,5.234999999999673,5.719000000000051,6.2409999999999854,6.773000000000138,7.282000000000153,7.800000000000182,8.341999999999643,8.872000000000298,9.32300000000032,9.875]",space,3.955,0.0,10.0,10.0,30.0,1.0,,,
,,,,,,,,,,block_2/weak_t_92_3.wav,timbre,t,weak,92.0,1.995389518,17.35720358,,,no,,,no,F,35,R,yes,1,2020-08-28_09h24.01.653,kura-A2,2020.1.2,MacIntel,60,,,,,,,,,,,,,,,"[""space"",""space"",""space"",""space"",""space"",""space"",""space"",""space"",""space"",""space"",""space"",""space"",""space"",""space"",""space"",""space"",""space"",""space"",""space"",""space"",""space""]","[0.5700000000006185,1.4859999999998763,2.1370000000006257,2.9320000000006985,3.65099999999984,4.514000000000124,5.329000000000633,5.979000000000269,6.699999999999818,7.210000000000036,7.911000000000058,8.613000000000284,9.39600000000064,10.079999999999927,10.962000000000444,11.634000000000015,12.347000000000662,13.16400000000067,13.76299999999992,14.655000000000655,15.485999999999876]",space,0.69,0.0,11.0,11.0,38.0,1.0,,,
,,,,,,,,,,block_2/weak_t_105_3.wav,timbre,t,weak,105.0,1.911505731,13.14248079,,,no,,,no,F,35,R,yes,1,2020-08-28_09h24.01.653,kura-A2,2020.1.2,MacIntel,60,,,,,,,,,,,,,,,"[""space"",""space"",""space"",""space"",""space"",""space"",""space"",""space"",""space"",""space"",""space"",""space"",""space"",""space"",""space"",""space"",""space"",""space"",""space"",""space""]","[0.5190000000002328,0.8980000000001382,1.4510000000000218,2.13799999999992,2.7730000000001382,3.3499999999994543,4,4.5590000000001965,5.118999999999687,5.640999999999622,6.206000000000131,6.768000000000029,7.386000000000422,8.002000000000407,8.551000000000386,9.139000000000124,9.659999999999854,10.189000000000306,10.797999999999774,11.389000000000124]",space,0.401,0.0,12.0,12.0,4.0,1.0,,,
,,,,,,,,,,block_2/none_t_81_4.wav,timbre,t,none,81.0,1.883383873,17.9242909,,,no,,,no,F,35,R,yes,1,2020-08-28_09h24.01.653,kura-A2,2020.1.2,MacIntel,60,,,,,,,,,,,,,,,"[""space"",""space"",""space"",""space"",""space"",""space"",""space"",""space"",""space"",""space"",""space"",""space"",""space"",""space"",""space"",""space"",""space"",""space"",""space"",""space"",""space"",""space"",""space"",""space"",""space"",""space"",""space"",""space"",""space"",""space"",""space"",""space"",""space""]","[0.6489999999994325,1.481999999999971,2.0999999999994543,2.798999999999978,3.532000000000153,4.087999999999738,4.463999999999942,4.907000000000153,5.3530000000000655,5.7150000000001455,6.132999999999811,6.681999999999789,7.238999999999578,7.7590000000000146,8.181999999999789,8.604999999999563,9.081999999999425,9.515999999999622,9.898999999999432,10.323999999999614,10.704999999999927,11.149999999999636,11.599999999999454,12.117999999999483,12.621000000000095,13.193000000000211,13.713999999999942,14.121999999999389,14.55999999999949,15.148999999999432,15.470999999999549,15.819999999999709,16.222999999999956]",space,0.134,0.0,13.0,13.0,12.0,1.0,,,
,,,,,,,,,,block_2/weak_t_72_4.wav,timbre,t,weak,72.0,1.41938316,17.89516547,,,no,,,no,F,35,R,yes,1,2020-08-28_09h24.01.653,kura-A2,2020.1.2,MacIntel,60,,,,,,,,,,,,,,,"[""space"",""space"",""space"",""space"",""space"",""space"",""space"",""space"",""space"",""space"",""space"",""space"",""space"",""space"",""space"",""space"",""space"",""space"",""space"",""space"",""space""]","[0.2860000000000582,0.6869999999998981,1.4840000000003783,2.4660000000003492,3.3040000000000873,4.054000000000087,4.829999999999927,5.7520000000004075,6.588000000000648,7.399000000000342,8.273000000000138,9.16399999999976,9.999000000000706,10.731999999999971,11.546000000000276,12.405000000000655,13.405999999999949,14.149000000000342,15.003000000000611,15.837000000000444,16.63799999999992]",space,0.068,0.0,14.0,14.0,33.0,1.0,,,
,,,,,,,,,,block_2/none_t_92_3.wav,timbre,t,none,92.0,1.328085357,13.39815338,,,no,,,no,F,35,R,yes,1,2020-08-28_09h24.01.653,kura-A2,2020.1.2,MacIntel,60,,,,,,,,,,,,,,,"[""space"",""space"",""space"",""space"",""space"",""space"",""space"",""space"",""space"",""space"",""space"",""space"",""space"",""space"",""space"",""space"",""space"",""space"",""space"",""space"",""space"",""space"",""space""]","[0.6750000000001819,1.1710000000002765,1.694999999999709,2.2899999999999636,3.0399999999999636,3.7089999999998327,4.3840000000000146,5.070999999999913,5.618000000000393,6.074000000000524,6.395000000000437,6.860999999999876,7.269000000000233,7.719000000000051,8.24499999999989,8.677999999999884,9.118000000000393,9.710000000000036,10.273000000000138,10.734000000000378,11.226999999999862,11.712000000000444,12.1850000000004]",space,0.574,0.0,15.0,15.0,17.0,1.0,,,
,,,,,,,,,,block_2/medium_t_92_3.wav,timbre,t,medium,92.0,1.388240232,13.37372776,,,no,,,no,F,35,R,yes,1,2020-08-28_09h24.01.653,kura-A2,2020.1.2,MacIntel,60,,,,,,,,,,,,,,,"[""space"",""space"",""space"",""space"",""space"",""space"",""space"",""space"",""space"",""space"",""space"",""space"",""space"",""space"",""space"",""space"",""space"",""space"",""space"",""space""]","[0.694999999999709,1.23700000000008,1.8079999999999927,2.399999999999636,3.0839999999998327,3.6159999999999854,4.234999999999673,4.778000000000247,5.373999999999796,6.076999999999316,6.617000000000189,7.27599999999984,7.850999999999658,8.40099999999984,8.98700000000008,9.610999999999876,10.292999999999665,10.86999999999989,11.565999999999804,12.305000000000291]",space,2.35,0.0,16.0,16.0,35.0,1.0,,,
,,,,,,,,,,block_2/strong_t_72_3.wav,timbre,t,strong,72.0,1.757165856,18.23458082,,,no,,,no,F,35,R,yes,1,2020-08-28_09h24.01.653,kura-A2,2020.1.2,MacIntel,60,,,,,,,,,,,,,,,"[""space"",""space"",""space"",""space"",""space"",""space"",""space"",""space"",""space"",""space"",""space"",""space"",""space"",""space"",""space"",""space"",""space"",""space"",""space"",""space""]","[0.42000000000007276,1.6989999999996144,2.5219999999999345,3.4020000000000437,4.180000000000291,5.057999999999993,5.882000000000517,6.681000000000495,7.673999999999978,8.413000000000466,9.270000000000437,10.139000000000124,11.006000000000313,11.801000000000386,12.66399999999976,13.480999999999767,14.372000000000298,15.213999999999942,15.998999999999796,16.938000000000102]",space,54.656,0.0,17.0,17.0,5.0,1.0,,,
,,,,,,,,,,block_2/medium_t_81_3.wav,timbre,t,medium,81.0,1.280563259,13.87394194,,,no,,,no,F,35,R,yes,1,2020-08-28_09h24.01.653,kura-A2,2020.1.2,MacIntel,60,,,,,,,,,,,,,,,"[""space"",""space"",""space"",""space"",""space"",""space"",""space"",""space"",""space"",""space"",""space"",""space"",""space"",""space"",""space"",""space"",""space"",""space"",""space"",""space""]","[0.47699999999986176,0.9359999999996944,1.606999999999971,2.34900000000016,2.9899999999997817,3.625,4.3179999999993015,4.960000000000036,5.59900000000016,6.2739999999994325,6.923999999999978,7.509999999999309,8.13799999999992,8.751999999999498,9.36999999999989,10.002999999999702,10.708999999999833,11.384999999999309,11.966999999999643,12.602999999999156]",space,0.542,0.0,18.0,18.0,8.0,1.0,,,
,,,,,,,,,,block_2/strong_t_105_3.wav,timbre,t,strong,105.0,1.973938856,13.50654657,,,no,,,no,F,35,R,yes,1,2020-08-28_09h24.01.653,kura-A2,2020.1.2,MacIntel,60,,,,,,,,,,,,,,,"[""space"",""space"",""space"",""space"",""space"",""space"",""space"",""space"",""space"",""space"",""space"",""space"",""space"",""space"",""space"",""space"",""space"",""space"",""space"",""space""]","[0.6260000000002037,1.186000000000604,1.8020000000005894,2.423000000000684,2.9880000000002838,3.537000000000262,4.168999999999869,4.7590000000000146,5.307999999999993,5.892000000000735,6.5349999999998545,7.039999999999964,7.608000000000175,8.11700000000019,8.837000000000444,9.411000000000058,10.045000000000073,10.693000000000211,11.293000000000575,11.90099999999984]",space,0.884,0.0,19.0,19.0,21.0,1.0,,,
,,,,,,,,,,block_2/none_t_72_3.wav,timbre,t,none,72.0,1.763210745,21.95785927,,,no,,,no,F,35,R,yes,1,2020-08-28_09h24.01.653,kura-A2,2020.1.2,MacIntel,60,,,,,,,,,,,,,,,"[""space"",""space"",""space"",""space"",""space"",""space"",""space"",""space"",""space"",""space"",""space"",""space"",""space"",""space"",""space"",""space"",""space"",""space"",""space"",""space"",""space"",""space"",""space"",""space"",""space"",""space"",""space"",""space"",""space"",""space"",""space"",""space"",""space"",""space"",""space"",""space"",""space""]","[0.6760000000003856,1.2300000000013824,1.9750000000003638,2.673999999999978,3.4000000000005457,3.792000000000371,4.050000000000182,4.519000000000233,5.02599999999984,5.541000000000167,5.970000000000255,6.460000000000036,6.9340000000001965,7.55199999999968,8.171000000000276,8.760000000000218,9.307999999999993,9.773000000000138,10.319000000000415,10.990999999999985,11.927999999999884,12.42200000000048,13.293999999999869,14.757000000000517,15.108000000000175,15.53899999999976,16.06800000000021,16.57300000000032,17.001000000000204,17.621000000000095,18.011999999999716,18.421000000000276,18.900000000000546,19.342000000000553,19.77599999999984,20.220000000000255,21.101000000000568]",space,0.62,0.0,20.0,20.0,19.0,1.0,,,
,,,,,,,,,,block_2/medium_t_105_3.wav,timbre,t,medium,105.0,1.319167427,12.09599282,,,no,,,no,F,35,R,yes,1,2020-08-28_09h24.01.653,kura-A2,2020.1.2,MacIntel,60,,,,,,,,,,,,,,,"[""space"",""space"",""space"",""space"",""space"",""space"",""space"",""space"",""space"",""space"",""space"",""space"",""space"",""space"",""space"",""space"",""space"",""space"",""space"",""space""]","[0.4899999999997817,0.9529999999995198,1.532999999999447,2.0349999999998545,2.6419999999998254,3.1829999999999927,3.7739999999994325,4.250999999999294,4.825999999999112,5.323999999999614,5.9099999999998545,6.450999999999112,7.082999999999629,7.681999999999789,8.15099999999984,8.674999999999272,9.203999999999724,9.781999999999243,10.339999999999236,10.888999999999214]",space,0.41,0.0,21.0,21.0,16.0,1.0,,,
,,,,,,,,,,block_2/strong_t_72_4.wav,timbre,t,strong,72.0,1.957123463,17.07435702,,,no,,,no,F,35,R,yes,1,2020-08-28_09h24.01.653,kura-A2,2020.1.2,MacIntel,60,,,,,,,,,,,,,,,"[""space"",""space"",""space"",""space"",""space"",""space"",""space"",""space"",""space"",""space"",""space"",""space"",""space"",""space"",""space"",""space"",""space"",""space"",""space"",""space""]","[0.8710000000000946,1.3580000000001746,2.068000000000211,2.886000000000422,3.6679999999996653,4.485999999999876,5.252999999999702,6.056000000000495,6.841000000000349,7.507999999999811,8.46600000000035,9.068000000000211,9.800000000000182,10.625,11.592999999999847,12.344000000000051,13.159999999999854,13.88799999999992,14.603000000000065,15.442000000000007]",space,0.582,0.0,22.0,22.0,1.0,1.0,,,
,,,,,,,,,,block_2/none_t_105_3.wav,timbre,t,none,105.0,1.906849656,15.72757528,,,no,,,no,F,35,R,yes,1,2020-08-28_09h24.01.653,kura-A2,2020.1.2,MacIntel,60,,,,,,,,,,,,,,,"[""space"",""space"",""space"",""space"",""space"",""space"",""space"",""space"",""space"",""space"",""space"",""space"",""space"",""space"",""space"",""space"",""space"",""space"",""space"",""space"",""space"",""space"",""space"",""space"",""space"",""space"",""space"",""space"",""space"",""space""]","[0.8510000000005675,1.393000000000029,2.0770000000002256,2.561000000000604,3.074000000000524,3.532000000000153,3.97400000000016,4.472999999999956,4.907000000000153,5.3270000000002256,5.8400000000001455,6.266000000000531,6.691000000000713,7.173999999999978,7.641999999999825,7.953000000000429,8.371000000000095,8.838999999999942,9.220000000000255,9.667000000000371,10.066000000000713,10.552999999999884,10.976000000000568,11.472999999999956,11.985999999999876,12.454000000000633,12.907000000000153,13.404000000000451,13.851999999999862,15.119000000000597]",space,0.45,0.0,23.0,23.0,14.0,1.0,,,
,,,,,,,,,,block_2/medium_t_72_4.wav,timbre,t,medium,72.0,1.912133969,19.94959429,,,no,,,no,F,35,R,yes,1,2020-08-28_09h24.01.653,kura-A2,2020.1.2,MacIntel,60,,,,,,,,,,,,,,,"[""space"",""space"",""space"",""space"",""space"",""space"",""space"",""space"",""space"",""space"",""space"",""space"",""space"",""space"",""space"",""space"",""space"",""space"",""space"",""space"",""space"",""space"",""space""]","[1.069999999999709,1.7359999999998763,2.3729999999995925,2.8850000000002183,3.686999999999898,4.319000000000415,4.7849999999998545,5.4520000000002256,6.335000000000036,7.418999999999869,8.228000000000065,9.153999999999542,10.046000000000276,10.833999999999833,11.71100000000024,12.600000000000364,13.4399999999996,14.345000000000255,15.184000000000196,16.24499999999989,17.16899999999987,18.087999999999738,19.868000000000393]",space,0.499,0.0,24.0,24.0,36.0,1.0,,,
,,,,,,,,,,block_2/strong_t_119_3.wav,timbre,t,strong,119.0,2.177542179,13.00520658,,,no,,,no,F,35,R,yes,1,2020-08-28_09h24.01.653,kura-A2,2020.1.2,MacIntel,60,,,,,,,,,,,,,,,"[""space"",""space"",""space"",""space"",""space"",""space"",""space"",""space"",""space"",""space"",""space"",""space"",""space"",""space"",""space"",""space"",""space"",""space"",""space"",""space""]","[0.6220000000002983,1.0020000000004075,1.5200000000004366,2.128000000000611,2.725000000000364,3.2280000000000655,3.786000000000058,4.32300000000032,4.92200000000048,5.5219999999999345,6.075000000000728,6.65900000000056,7.2520000000004075,7.911000000000058,8.293000000000575,8.786000000000058,9.335000000000036,9.923000000000684,10.524000000000342,11.037000000000262]",space,0.536,0.0,25.0,25.0,28.0,1.0,,,
,,,,,,,,,,block_2/strong_t_81_3.wav,timbre,t,strong,81.0,1.276002308,16.49137646,,,no,,,no,F,35,R,yes,1,2020-08-28_09h24.01.653,kura-A2,2020.1.2,MacIntel,60,,,,,,,,,,,,,,,"[""space"",""space"",""space"",""space"",""space"",""space"",""space"",""space"",""space"",""space"",""space"",""space"",""space"",""space"",""space"",""space"",""space"",""space"",""space""]","[0.6089999999994689,1.6759999999994761,2.4409999999998035,3.2059999999992215,3.957999999999629,4.8289999999997235,6.304000000000087,7.068000000000211,7.810999999999694,8.585000000000036,9.318999999999505,10.11200000000008,10.867999999999483,11.649999999999636,12.384000000000015,13.225999999999658,14.02099999999973,14.724999999999454,15.451000000000022]",space,1.355,0.0,26.0,26.0,24.0,1.0,,,
,,,,,,,,,,block_2/strong_t_105_4.wav,timbre,t,strong,105.0,1.910106179,12.02788396,,,no,,,no,F,35,R,yes,1,2020-08-28_09h24.01.653,kura-A2,2020.1.2,MacIntel,60,,,,,,,,,,,,,,,"[""space"",""space"",""space"",""space"",""space"",""space"",""space"",""space"",""space"",""space"",""space"",""space"",""space"",""space"",""space"",""space"",""space"",""space"",""space""]","[0.9520000000002256,1.2830000000003565,1.8559999999997672,2.2719999999999345,2.82799999999952,3.2910000000001673,3.7380000000002838,4.3419999999996435,4.778000000000247,5.292999999999665,5.819000000000415,6.300000000000182,6.7830000000003565,7.25,7.766999999999825,8.274000000000342,8.844000000000051,9.335000000000036,9.86999999999989]",space,0.903,0.0,27.0,27.0,18.0,1.0,,,
,,,,,,,,,,block_2/strong_t_119_4.wav,timbre,t,strong,119.0,1.529717424,11.39760858,,,no,,,no,F,35,R,yes,1,2020-08-28_09h24.01.653,kura-A2,2020.1.2,MacIntel,60,,,,,,,,,,,,,,,"[""space"",""space"",""space"",""space"",""space"",""space"",""space"",""space"",""space"",""space"",""space"",""space"",""space"",""space"",""space"",""space"",""space"",""space"",""space"",""space""]","[0.5659999999998035,0.9939999999996871,1.449999999999818,1.931999999999789,2.4409999999998035,2.931999999999789,3.4329999999999927,3.923999999999978,4.467999999999847,4.981999999999971,5.467999999999847,6.023000000000138,6.5349999999998545,7.03899999999976,7.501000000000204,8.052999999999884,8.542999999999665,9.03400000000056,9.542000000000371,10.041000000000167]",space,0.489,0.0,28.0,28.0,39.0,1.0,,,
,,,,,,,,,,block_2/none_t_72_4.wav,timbre,t,none,72.0,1.053800106,24.75334659,,,no,,,no,F,35,R,yes,1,2020-08-28_09h24.01.653,kura-A2,2020.1.2,MacIntel,60,,,,,,,,,,,,,,,"[""space"",""space"",""space"",""space"",""space"",""space"",""space"",""space"",""space"",""space"",""space"",""space"",""space"",""space"",""space"",""space"",""space"",""space"",""space"",""space"",""space"",""space"",""space"",""space"",""space"",""space"",""space"",""space"",""space"",""space"",""space"",""space"",""space"",""space"",""space"",""space"",""space"",""space"",""space"",""space"",""space"",""space"",""space"",""space""]","[0.7229999999999563,1.2329999999992651,1.8339999999998327,2.342999999999847,2.8779999999997017,3.451000000000022,4.0239999999994325,4.605999999999767,5.185999999999694,5.742999999999483,6.268000000000029,6.826999999999316,7.308999999999287,7.882999999999811,8.38299999999981,8.923999999999978,9.442999999999302,10.065999999999804,10.573999999999614,11.117999999999483,11.599999999999454,12.231999999999971,12.707999999999629,13.234999999999673,13.739999999999782,14.266999999999825,14.8149999999996,15.359999999999673,15.835000000000036,16.323999999999614,16.899999999999636,17.33599999999933,17.899999999999636,18.433999999999287,18.91699999999946,19.466999999999643,20.156999999999243,20.542999999999665,21.065999999999804,21.64099999999962,22.165999999999258,22.781999999999243,23.317000000000007,23.85399999999936]",space,0.422,0.0,29.0,29.0,15.0,1.0,,,
,,,,,,,,,,block_2/weak_t_92_4.wav,timbre,t,weak,92.0,2.338363624,13.8208126,,,no,,,no,F,35,R,yes,1,2020-08-28_09h24.01.653,kura-A2,2020.1.2,MacIntel,60,,,,,,,,,,,,,,,"[""space"",""space"",""space"",""space"",""space"",""space"",""space"",""space"",""space"",""space"",""space"",""space"",""space"",""space"",""space"",""space"",""space"",""space"",""space"",""space"",""space""]","[0.5789999999997235,1.043999999999869,1.6500000000005457,2.2669999999998254,2.800000000000182,3.36200000000008,3.9420000000000073,4.592000000000553,5.128000000000611,5.699999999999818,6.293999999999869,6.90099999999984,7.456000000000131,8.024000000000342,8.603000000000065,9.193000000000211,9.77099999999973,10.355999999999767,10.900000000000546,11.485999999999876,13.423999999999978]",space,1.24,0.0,30.0,30.0,29.0,1.0,,,
,,,,,,,,,,block_2/none_t_105_4.wav,timbre,t,none,105.0,1.723889958,15.53967227,,,no,,,no,F,35,R,yes,1,2020-08-28_09h24.01.653,kura-A2,2020.1.2,MacIntel,60,,,,,,,,,,,,,,,"[""space"",""space"",""space"",""space"",""space"",""space"",""space"",""space"",""space"",""space"",""space"",""space"",""space"",""space"",""space"",""space"",""space"",""space"",""space"",""space"",""space"",""space"",""space"",""space"",""space"",""space"",""space"",""space"",""space""]","[0.6350000000002183,1.1660000000001673,1.7730000000001382,2.326000000000022,2.8659999999999854,3.337999999999738,4.056999999999789,4.449999999999818,4.871000000000095,5.2590000000000146,5.756000000000313,6.105999999999767,6.5,7.216000000000349,7.655999999999949,8.101999999999862,8.509000000000015,8.920000000000073,9.314000000000306,9.615999999999985,10.023000000000138,10.653999999999542,11.114000000000487,11.559000000000196,12.314000000000306,12.764000000000124,13.17200000000048,13.652000000000044,13.989999999999782]",space,26.973,0.0,31.0,31.0,20.0,1.0,,,
,,,,,,,,,,block_2/none_t_119_4.wav,timbre,t,none,119.0,2.16972576,11.23222009,,,no,,,no,F,35,R,yes,1,2020-08-28_09h24.01.653,kura-A2,2020.1.2,MacIntel,60,,,,,,,,,,,,,,,"[""space"",""space"",""space"",""space"",""space"",""space"",""space"",""space"",""space"",""space"",""space"",""space"",""space"",""space"",""space"",""space"",""space"",""space"",""space""]","[0.6549999999997453,1.0979999999999563,1.574999999999818,2.0159999999996217,2.6149999999997817,3.225000000000364,3.7950000000000728,4.2479999999995925,4.844000000000051,5.395000000000437,5.8149999999996,6.260000000000218,6.6840000000001965,7.024999999999636,7.36200000000008,7.811999999999898,8.279999999999745,8.731999999999971,9.21600000000035]",space,0.616,0.0,32.0,32.0,27.0,1.0,,,
,,,,,,,,,,block_2/weak_t_81_4.wav,timbre,t,weak,81.0,1.138387897,14.33417021,,,no,,,no,F,35,R,yes,1,2020-08-28_09h24.01.653,kura-A2,2020.1.2,MacIntel,60,,,,,,,,,,,,,,,"[""space"",""space"",""space"",""space"",""space"",""space"",""space"",""space"",""space"",""space"",""space"",""space"",""space"",""space"",""space"",""space"",""space"",""space"",""space"",""space""]","[0.6140000000004875,1.319999999999709,1.918999999999869,2.581000000000131,3.2399999999997817,3.8900000000003274,4.613000000000284,5.2830000000003565,5.9409999999998035,6.537000000000262,7.264000000000124,7.954999999999927,8.707000000000335,9.347999999999956,9.963999999999942,10.735999999999876,11.372000000000298,12.019999999999527,12.779000000000451,13.44800000000032]",space,0.086,0.0,33.0,33.0,0.0,1.0,,,
,,,,,,,,,,block_2/medium_t_92_4.wav,timbre,t,medium,92.0,1.599417172,14.59601581,,,no,,,no,F,35,R,yes,1,2020-08-28_09h24.01.653,kura-A2,2020.1.2,MacIntel,60,,,,,,,,,,,,,,,"[""space"",""space"",""space"",""space"",""space"",""space"",""space"",""space"",""space"",""space"",""space"",""space"",""space"",""space"",""space"",""space"",""space"",""space"",""space""]","[0.6159999999999854,1.16399999999976,1.8350000000000364,2.649000000000342,3.2979999999997744,4.015000000000327,4.539999999999964,5.32300000000123,5.938000000000102,6.58600000000024,7.188000000000102,7.8159999999998035,8.658000000000357,9.386000000000422,9.96600000000035,10.652000000000044,11.256999999999607,11.934000000000196,12.972999999999956]",space,7.778,0.0,34.0,34.0,25.0,1.0,,,
,,,,,,,,,,block_2/weak_t_119_3.wav,timbre,t,weak,119.0,2.134308914,11.54587354,,,no,,,no,F,35,R,yes,1,2020-08-28_09h24.01.653,kura-A2,2020.1.2,MacIntel,60,,,,,,,,,,,,,,,"[""space"",""space"",""space"",""space"",""space"",""space"",""space"",""space"",""space"",""space"",""space"",""space"",""space"",""space"",""space"",""space"",""space"",""space"",""space"",""space"",""space"",""space"",""space""]","[0.7020000000002256,1.1719999999995707,1.6229999999995925,1.9929999999994834,2.2669999999998254,2.6419999999998254,3.0029999999997017,3.3350000000000364,3.675000000000182,4.099999999999454,4.6030000000000655,5.068000000000211,5.411000000000058,5.7739999999994325,6.153999999999542,6.641999999999825,7.153999999999542,7.6030000000000655,8.067000000000007,8.503999999999905,8.984999999999673,9.43499999999949,10.78399999999965]",space,0.484,0.0,35.0,35.0,13.0,1.0,,,
,,,,,,,,,,block_2/weak_t_72_3.wav,timbre,t,weak,72.0,1.543417886,17.01208002,,,no,,,no,F,35,R,yes,1,2020-08-28_09h24.01.653,kura-A2,2020.1.2,MacIntel,60,,,,,,,,,,,,,,,"[""space"",""space"",""space"",""space"",""space"",""space"",""space"",""space"",""space"",""space"",""space"",""space"",""space"",""space"",""space"",""space"",""space"",""space"",""space"",""space"",""space""]","[0.3359999999993306,0.9799999999995634,1.381999999999607,2.0399999999999636,2.798999999999978,3.620999999999185,4.269999999999527,5.114999999999782,6.0809999999992215,6.837999999999738,7.78899999999976,8.516999999999825,9.529999999999745,10.147999999999229,10.88299999999981,11.677999999999884,12.518999999999323,13.336999999999534,14.030999999999949,14.923999999999978,15.78399999999965]",space,0.199,0.0,36.0,36.0,26.0,1.0,,,
,,,,,,,,,,block_2/medium_t_72_3.wav,timbre,t,medium,72.0,1.064285065,17.84451182,,,no,,,no,F,35,R,yes,1,2020-08-28_09h24.01.653,kura-A2,2020.1.2,MacIntel,60,,,,,,,,,,,,,,,"[""space"",""space"",""space"",""space"",""space"",""space"",""space"",""space"",""space"",""space"",""space"",""space"",""space"",""space"",""space"",""space"",""space"",""space"",""space"",""space""]","[0.6199999999998909,1.3549999999995634,2.165999999999258,2.9849999999996726,3.876999999999498,4.743999999999687,5.623999999999796,6.638999999999214,7.451000000000022,8.36699999999928,9.148999999999432,10,10.704999999999927,11.641999999999825,12.536999999999352,13.336999999999534,14.502999999999702,15.759000000000015,16.467999999999847,17.071999999999207]",space,3.88,0.0,37.0,37.0,31.0,1.0,,,
,,,,,,,,,,block_2/strong_t_92_4.wav,timbre,t,strong,92.0,1.817525361,14.05856845,,,no,,,no,F,35,R,yes,1,2020-08-28_09h24.01.653,kura-A2,2020.1.2,MacIntel,60,,,,,,,,,,,,,,,"[""space"",""space"",""space"",""space"",""space"",""space"",""space"",""space"",""space"",""space"",""space"",""space"",""space"",""space"",""space"",""space"",""space"",""space"",""space""]","[1.0190000000002328,1.7229999999999563,2.3140000000003056,3.020999999999731,3.581000000000131,4.289999999999964,4.815000000000509,5.501000000000204,6.079999999999927,6.720000000000255,7.3640000000004875,8.100000000000364,8.681000000000495,9.231999999999971,9.864000000000487,10.566000000000713,11.186999999999898,11.79700000000048,12.471000000000458]",space,3.25,0.0,38.0,38.0,9.0,1.0,,,
,,,,,,,,,,block_2/weak_t_81_3.wav,timbre,t,weak,81.0,1.745235196,18.01484971,,,no,,,no,F,35,R,yes,1,2020-08-28_09h24.01.653,kura-A2,2020.1.2,MacIntel,60,,,,,,,,,,,,,,,"[""space"",""space"",""space"",""space"",""space"",""space"",""space"",""space"",""space"",""space"",""space"",""space"",""space"",""space"",""space"",""space"",""space"",""space"",""space"",""space"",""space"",""space"",""space"",""space"",""space""]","[0.5010000000002037,0.9539999999997235,1.518000000000029,1.9520000000002256,2.483999999999469,3.188000000000102,3.6849999999994907,4.153999999999542,5.052999999999884,5.83600000000024,6.57300000000032,7.185999999999694,7.7830000000003565,8.346999999999753,8.970999999999549,9.489999999999782,10.081000000000131,10.850999999999658,11.597999999999956,12.38000000000011,13.269000000000233,14.029999999999745,14.686999999999898,15.568000000000211,16.355999999999767]",space,0.454,0.0,39.0,39.0,6.0,1.0,,,
,,,,,,,,,,,,,,,,,,,no,,,no,F,35,R,yes,1,2020-08-28_09h24.01.653,kura-A2,2020.1.2,MacIntel,60,,,,,,,,,,,,,,,,,,,,,,,,space,1054.767,
