key_resp.keys,key_resp.rt,practice_taps.keys,practice_taps.rt,keyresp.keys,keyresp.rt,practice_stims_loop.thisRepN,practice_stims_loop.thisTrialN,practice_stims_loop.thisN,practice_stims_loop.thisIndex,practice_stims_loop.ran,sndfile,type,tempo,cond,version,delay,dur,Participant Initials,"If you are a MTurk worker, what is your MTurk worker ID?","If you are not an MTurk worker, please provide your email address",Are you wearing headphones?,What are the headphone make and model?,"How many years of musical training, if any, do you have?",Do you have any hearing problems? Please describe,What is your sex (f/m/decline)?,What is your age?,What is your handedness (R/L/ambi)?,Are you currently in a secure and quiet room without a possible interruption?,session ,date,expName,psychopyVersion,OS,frameRate,instructions_prompt.keys,instructions_prompt.rt,block1_taps.keys,block1_taps.rt,key_resp_2.keys,key_resp_2.rt,trials.thisRepN,trials.thisTrialN,trials.thisN,trials.thisIndex,trials.ran,key_resp2.keys,key_resp2.rt,block2_taps.keys,block2_taps.rt,key_resp_3.keys,key_resp_3.rt,trials_2.thisRepN,trials_2.thisTrialN,trials_2.thisN,trials_2.thisIndex,trials_2.ran,key_resp_4.keys,key_resp_4.rt
space,21.732205,"[""space"",""space"",""space"",""space"",""space"",""space"",""space"",""space"",""space"",""space"",""space"",""space"",""space"",""space"",""space"",""space"",""space"",""space"",""space"",""space"",""space"",""space"",""space"",""space"",""space"",""space"",""space"",""space""]","[2.5485550000003343,3.097035000000716,3.6236850000005063,4.120295000000624,4.613725000000187,5.067045000000718,5.605050000000148,6.17067500000033,6.666480000000803,7.246085000000704,7.695845000000219,8.15266000000068,8.714200000000375,9.220460000000514,9.703580000000358,10.240970000000772,10.86153500000006,11.45246500000033,11.96472,12.401280000000071,12.9005750000006,13.422135000000708,13.90543500000058,14.29399000000015,14.832765000000137,15.31633000000059,15.765265000000028,16.21708500000028]",space,1.660125,0.0,0.0,0.0,0.0,1.0,block_2/none_n_92_3.wav,no,n,none,92.0,2.306164339,18.20620969,,,,yes,amazon basics HP01,0,No,M,35,R,Yes,1,2020-09-16_12h31.45.449,kura-B2,2020.1.2,Linux x86_64,60,,,,,,,,,,,,,,,,,,,,,,,,
,,"[""space"",""space"",""space"",""space"",""space"",""space"",""space"",""space"",""space"",""space"",""space"",""space"",""space"",""space"",""space"",""space"",""space"",""space"",""space"",""space"",""space""]","[0.6918900000000576,1.0647500000004584,1.5060149999999624,1.9148700000005192,2.48862999999983,3.072360000000117,3.553649999999834,4.131739999999809,4.655604999999923,5.134555000000546,5.684215000000222,6.1594450000002325,6.663010000000213,7.127809999999954,7.665375000000495,8.185159999999996,8.757529999999832,9.21018499999991,9.802719999999681,10.329240000000055,10.828594999999979]",space,0.74044,0.0,1.0,1.0,2.0,1.0,block_2/weak_n_105_4.wav,no,n,weak,105.0,1.982674472,12.75578105,,,,yes,amazon basics HP01,0,No,M,35,R,Yes,1,2020-09-16_12h31.45.449,kura-B2,2020.1.2,Linux x86_64,60,,,,,,,,,,,,,,,,,,,,,,,,
,,"[""space"",""space"",""space"",""space"",""space"",""space"",""space"",""space"",""space"",""space"",""space"",""space"",""space"",""space"",""space"",""space"",""space"",""space"",""space"",""space"",""space"",""space"",""space""]","[0.6139549999998337,1.127699999999976,1.5931600000003527,1.8581000000003485,1.9823200000000725,2.3494650000002366,2.6674700000003213,3.0217499999998836,3.141800000000302,3.498970000000554,3.9458450000001903,4.36987500000032,4.765954999999849,5.221099999999751,5.74961499999975,6.307934999999787,6.738084999999927,7.208129999999983,7.741689999999835,8.297325000000455,8.769945000000007,9.292470000000321,9.786850000000413]",space,0.50953,0.0,2.0,2.0,3.0,1.0,block_1/medium_t_119_4.wav,timbre,t,medium,119.0,1.752316959,11.57313329,,,,yes,amazon basics HP01,0,No,M,35,R,Yes,1,2020-09-16_12h31.45.449,kura-B2,2020.1.2,Linux x86_64,60,,,,,,,,,,,,,,,,,,,,,,,,
,,"[""space"",""space"",""space"",""space"",""space"",""space"",""space"",""space"",""space"",""space"",""space"",""space"",""space"",""space"",""space"",""space"",""space"",""space"",""space"",""space""]","[0.4863100000002305,0.9078099999996709,1.244829999999638,1.5829499999999825,1.938544999999948,2.34987000000001,2.672950000000128,3.0440449999996417,3.4624750000002678,3.8631900000000314,4.29968000000008,4.759360000000015,5.237809999999627,5.651614999999765,6.0949149999996735,6.607739999999467,7.048675000000003,7.4684049999996205,7.956274999999522,8.395545000000311]",space,1.057765,0.0,3.0,3.0,1.0,1.0,block_2/medium_n_119_4.wav,no,n,medium,119.0,1.224634286,9.531709116,,,,yes,amazon basics HP01,0,No,M,35,R,Yes,1,2020-09-16_12h31.45.449,kura-B2,2020.1.2,Linux x86_64,60,,,,,,,,,,,,,,,,,,,,,,,,
,,,,,,,,,,,block_1/none_t_92_3.wav,timbre,t,none,92.0,1.813425609,13.88349364,,,,yes,amazon basics HP01,0,No,M,35,R,Yes,1,2020-09-16_12h31.45.449,kura-B2,2020.1.2,Linux x86_64,60,space,3.94361,"[""space"",""space"",""space"",""space"",""space"",""space"",""space"",""space"",""space"",""space"",""space"",""space"",""space"",""space"",""space"",""space"",""space"",""space"",""space"",""space"",""space"",""space"",""space"",""space"",""space"",""space"",""space"",""space""]","[0.5244350000002669,0.9181900000003225,1.4871350000003076,1.9534400000002279,2.3689800000001924,2.8122949999997218,3.256449999999859,3.6612599999998565,4.077325000000229,4.441429999999855,4.93213999999989,5.353264999999766,5.837594999999965,6.242624999999862,6.698174999999566,7.136625000000095,7.551634999999806,7.953145000000404,8.33893999999961,8.778690000000097,9.261809999999969,9.659754999999677,10.179084999999759,10.541879999999765,10.937305000000379,11.411315000000286,11.825619999999617,12.241465000000062]",space,0.775535,0.0,0.0,0.0,17.0,1.0,,,,,,,,,,,,,
,,,,,,,,,,,block_1/medium_t_92_3.wav,timbre,t,medium,92.0,2.360774731,14.34626226,,,,yes,amazon basics HP01,0,No,M,35,R,Yes,1,2020-09-16_12h31.45.449,kura-B2,2020.1.2,Linux x86_64,60,,,"[""space"",""space"",""space"",""space"",""space"",""space"",""space"",""space"",""space"",""space"",""space"",""space"",""space"",""space"",""space"",""space"",""space"",""space"",""space"",""space"",""space""]","[0.34984499999973195,0.6378649999996924,1.1277899999995213,1.8091349999995145,2.3466300000000047,2.9730749999998807,3.6966700000002675,4.304175000000214,4.945705000000089,5.559645000000273,6.165874999999659,6.804009999999835,7.3816249999999854,8.030534999999873,8.671110000000255,9.318005000000085,9.932569999999942,10.516345000000001,11.05302000000026,11.622695000000022,12.24492999999984]",space,0.91313,0.0,1.0,1.0,35.0,1.0,,,,,,,,,,,,,
,,,,,,,,,,,block_1/weak_t_81_4.wav,timbre,t,weak,81.0,2.31768599,15.5134683,,,,yes,amazon basics HP01,0,No,M,35,R,Yes,1,2020-09-16_12h31.45.449,kura-B2,2020.1.2,Linux x86_64,60,,,"[""space"",""space"",""space"",""space"",""space"",""space"",""space"",""space"",""space"",""space"",""space"",""space"",""space"",""space"",""space"",""space"",""space"",""space"",""space"",""space"",""space""]","[0.24576499999966472,0.7695299999995768,1.4190250000001754,2.064564999999675,2.6649600000000646,3.3077700000003176,4.004229999999524,4.70270999999957,5.430554999999885,6.178390000000036,6.769365000000107,7.332394999999451,8.103685000000041,8.74233499999994,9.431800000000294,10.109354999999596,10.887979999999516,11.534359999999651,12.222149999999601,12.850480000000061,13.46742499999985]",space,0.827465,0.0,2.0,2.0,0.0,1.0,,,,,,,,,,,,,
,,,,,,,,,,,block_1/weak_t_105_4.wav,timbre,t,weak,105.0,1.882880114,13.41285744,,,,yes,amazon basics HP01,0,No,M,35,R,Yes,1,2020-09-16_12h31.45.449,kura-B2,2020.1.2,Linux x86_64,60,,,"[""space"",""space"",""space"",""space"",""space"",""space"",""space"",""space"",""space"",""space"",""space"",""space"",""space"",""space"",""space"",""space"",""space"",""space"",""space"",""space""]","[0.6885250000004817,1.373819999999796,2.0100400000001173,2.621734999999717,3.218684999999823,3.7554799999998068,4.292174999999588,4.867874999999913,5.384984999999688,5.914354999999887,6.518035000000054,7.049605000000156,7.6596950000002835,8.184049999999843,8.764780000000428,9.290189999999711,9.878520000000208,10.439425000000483,11.006414999999834,11.574650000000474]",space,10.008765,0.0,3.0,3.0,7.0,1.0,,,,,,,,,,,,,
,,,,,,,,,,,block_1/strong_t_72_4.wav,timbre,t,strong,72.0,1.194355845,16.3115894,,,,yes,amazon basics HP01,0,No,M,35,R,Yes,1,2020-09-16_12h31.45.449,kura-B2,2020.1.2,Linux x86_64,60,,,"[""space"",""space"",""space"",""space"",""space"",""space"",""space"",""space"",""space"",""space"",""space"",""space"",""space"",""space"",""space"",""space"",""space"",""space"",""space""]","[1.0817600000000311,2.122580000000198,2.948500000000479,3.6873599999998987,4.518215000000055,5.249569999999949,6.032444999999825,6.839224999999715,7.611670000000288,8.49161499999991,9.218834999999672,9.997765000000072,10.729639999999506,11.492264999999861,12.363239999999678,13.182929999999942,13.961659999999938,14.669140000000027,15.504745000000241]",space,0.576615,0.0,4.0,4.0,1.0,1.0,,,,,,,,,,,,,
,,,,,,,,,,,block_1/strong_t_105_3.wav,timbre,t,strong,105.0,1.518747526,13.05135524,,,,yes,amazon basics HP01,0,No,M,35,R,Yes,1,2020-09-16_12h31.45.449,kura-B2,2020.1.2,Linux x86_64,60,,,"[""space"",""space"",""space"",""space"",""space"",""space"",""space"",""space"",""space"",""space"",""space"",""space"",""space"",""space"",""space"",""space"",""space"",""space"",""space"",""space""]","[0.5757599999997183,1.1442299999998795,1.7088049999993018,2.285189999999602,2.896734999999353,3.536649999999952,4.100274999999783,4.63712499999923,5.290524999999434,5.8833099999992555,6.4509649999999965,7.0676949999997305,7.642529999999169,8.247779999999693,8.891574999999705,9.464949999999533,9.983134999999493,10.607029999999213,11.134404999999788,11.734454999999798]",space,1.69427,0.0,5.0,5.0,21.0,1.0,,,,,,,,,,,,,
,,,,,,,,,,,block_1/strong_t_81_4.wav,timbre,t,strong,81.0,1.870008989,16.22765071,,,,yes,amazon basics HP01,0,No,M,35,R,Yes,1,2020-09-16_12h31.45.449,kura-B2,2020.1.2,Linux x86_64,60,,,"[""space"",""space"",""space"",""space"",""space"",""space"",""space"",""space"",""space"",""space"",""space"",""space"",""space"",""space"",""space"",""space"",""space"",""space"",""space"",""space""]","[0.7459200000002966,1.6392700000005789,2.425930000000335,3.1431099999999788,3.8308600000000297,4.627435000000332,5.2632250000006024,6.017675000000054,6.796110000000226,7.466409999999996,8.211535000000367,8.874749999999949,9.676195000000007,10.321405000000595,11.071820000000116,11.803550000000541,12.401824999999917,13.16495000000026,13.96123500000067,14.680850000000646]",space,1.22972,0.0,6.0,6.0,34.0,1.0,,,,,,,,,,,,,
,,,,,,,,,,,block_1/none_t_72_3.wav,timbre,t,none,72.0,1.707698408,21.90234693,,,,yes,amazon basics HP01,0,No,M,35,R,Yes,1,2020-09-16_12h31.45.449,kura-B2,2020.1.2,Linux x86_64,60,,,"[""space"",""space"",""space"",""space"",""space"",""space"",""space"",""space"",""space"",""space"",""space"",""space"",""space"",""space"",""space"",""space"",""space"",""space"",""space"",""space"",""space"",""space"",""space"",""space"",""space"",""space"",""space"",""space"",""space"",""space"",""space"",""space"",""space"",""space"",""space"",""space"",""space""]","[0.29579999999987194,0.981050000000323,1.6931750000003376,2.149590000000046,2.7217850000006933,3.463130000000092,4.099390000000312,4.746860000000197,5.250695000000633,5.776775000000271,6.347695000000385,6.926015000000007,7.585080000000744,8.194995000000745,8.767170000000078,9.377835000000232,9.840114999999969,10.494725000000471,10.994650000000547,11.553450000000339,12.084855000000005,12.690375000000131,13.255280000000312,13.79198499999984,14.289625000000342,14.737520000000586,15.225385000000642,15.688070000000153,16.207785000000513,16.741015000000516,17.231230000000323,17.823435000000245,18.355564999999842,18.846645000000535,19.357899999999972,19.89488500000067,20.42921000000024]",space,0.39988,0.0,7.0,7.0,19.0,1.0,,,,,,,,,,,,,
,,,,,,,,,,,block_1/medium_t_72_3.wav,timbre,t,medium,72.0,2.203768917,18.98399567,,,,yes,amazon basics HP01,0,No,M,35,R,Yes,1,2020-09-16_12h31.45.449,kura-B2,2020.1.2,Linux x86_64,60,,,"[""space"",""space"",""space"",""space"",""space"",""space"",""space"",""space"",""space"",""space"",""space"",""space"",""space"",""space"",""space"",""space"",""space"",""space"",""space""]","[0.7143150000001697,1.624855000000025,2.468710000000101,3.3508050000000367,4.200040000000627,5.267305000000306,5.956195000000605,6.893325000000004,7.78604500000074,8.668540000000633,9.397885000000372,10.247780000000603,11.129350000000159,11.937730000000556,12.721480000000156,13.632000000000517,14.481970000000729,15.453010000000177,16.38917500000025]",space,1.01921,0.0,8.0,8.0,31.0,1.0,,,,,,,,,,,,,
,,,,,,,,,,,block_1/none_t_119_4.wav,timbre,t,none,119.0,1.977931805,11.04042614,,,,yes,amazon basics HP01,0,No,M,35,R,Yes,1,2020-09-16_12h31.45.449,kura-B2,2020.1.2,Linux x86_64,60,,,"[""space"",""space"",""space"",""space"",""space"",""space"",""space"",""space"",""space"",""space"",""space"",""space"",""space"",""space"",""space"",""space"",""space""]","[0.6060200000001714,1.0973500000000058,1.4959749999998166,1.929294999999911,2.384299999999712,2.821205000000191,3.4466700000002675,3.9674299999996947,4.539810000000216,5.113325000000259,5.735525000000052,6.348669999999402,6.879570000000058,7.4582149999996545,8.03376500000013,8.520370000000185,9.107449999999517]",space,0.62927,0.0,9.0,9.0,27.0,1.0,,,,,,,,,,,,,
,,,,,,,,,,,block_1/strong_t_105_4.wav,timbre,t,strong,105.0,2.094581561,12.21235934,,,,yes,amazon basics HP01,0,No,M,35,R,Yes,1,2020-09-16_12h31.45.449,kura-B2,2020.1.2,Linux x86_64,60,,,"[""space"",""space"",""space"",""space"",""space"",""space"",""space"",""space"",""space"",""space"",""space"",""space"",""space"",""space"",""space"",""space"",""space"",""space"",""space"",""space"",""space""]","[0.5649450000001366,1.1072400000002744,1.3909599999997226,1.7997699999995689,2.2427999999999884,2.7080949999999575,3.199319999999716,3.655539999999746,4.151530000000093,4.6440849999999045,5.051204999999754,5.654410000000098,6.154075000000319,6.666809999999714,7.113725000000159,7.60173500000019,8.092160000000149,8.621364999999969,9.095370000000003,9.616224999999815,10.10080999999991]",space,0.732215,0.0,10.0,10.0,18.0,1.0,,,,,,,,,,,,,
,,,,,,,,,,,block_1/medium_t_81_3.wav,timbre,t,medium,81.0,1.352794873,13.94617356,,,,yes,amazon basics HP01,0,No,M,35,R,Yes,1,2020-09-16_12h31.45.449,kura-B2,2020.1.2,Linux x86_64,60,,,"[""space"",""space"",""space"",""space"",""space"",""space"",""space"",""space"",""space"",""space"",""space"",""space"",""space"",""space"",""space"",""space"",""space"",""space"",""space"",""space""]","[0.6589699999994423,1.182474999999556,1.8369050000000584,2.5023199999995995,3.1115899999994667,3.8837400000001594,4.591409999999939,5.24715000000009,5.788674999999728,6.476354999999728,7.199274999999886,7.767809999999315,8.417664999999886,9.03120500000017,9.674454999999341,10.30037999999962,10.942280000000153,11.59355499999947,12.195064999999772,12.889970000000119]",space,0.90393,0.0,11.0,11.0,8.0,1.0,,,,,,,,,,,,,
,,,,,,,,,,,block_1/weak_t_81_3.wav,timbre,t,weak,81.0,1.53156375,17.80117826,,,,yes,amazon basics HP01,0,No,M,35,R,Yes,1,2020-09-16_12h31.45.449,kura-B2,2020.1.2,Linux x86_64,60,,,"[""space"",""space"",""space"",""space"",""space"",""space"",""space"",""space"",""space"",""space"",""space"",""space"",""space"",""space"",""space"",""space"",""space"",""space"",""space"",""space"",""space"",""space""]","[0.27896999999939,0.7288449999995805,1.2935849999993252,2.043814999999938,2.7784649999993576,3.5647650000000226,4.374244999999917,5.306819999999732,6.121839999999679,6.932449999999278,7.789364999999577,8.635164999999688,9.411074999999926,10.161154999999724,11.009154999999623,11.796074999999234,12.651794999999709,13.41028,14.26487499999979,15.015609999999413,15.742435,16.51752499999924]",space,6.111525,0.0,12.0,12.0,6.0,1.0,,,,,,,,,,,,,
,,,,,,,,,,,block_1/none_t_81_4.wav,timbre,t,none,81.0,1.802900323,17.84380735,,,,yes,amazon basics HP01,0,No,M,35,R,Yes,1,2020-09-16_12h31.45.449,kura-B2,2020.1.2,Linux x86_64,60,,,"[""space"",""space"",""space"",""space"",""space"",""space"",""space"",""space"",""space"",""space"",""space"",""space"",""space"",""space"",""space"",""space"",""space"",""space"",""space"",""space"",""space"",""space"",""space"",""space"",""space"",""space"",""space"",""space"",""space""]","[0.6323000000002139,1.014035000000149,1.5051499999999578,2.044104999999945,2.5548650000001203,3.090294999999969,3.6158650000006674,4.155185000000529,4.688970000000154,5.312020000000302,5.797615000000405,6.422055,6.960619999999892,7.41924999999992,7.943115000000034,8.556704999999965,9.11324000000053,9.644875000000013,10.257360000000517,10.835810000000492,11.371000000000095,12.013920000000326,12.50818000000072,12.955789999999979,13.526640000000043,14.08798500000006,14.577235000000655,15.192020000000412,15.731095000000096]",space,0.606655,0.0,13.0,13.0,12.0,1.0,,,,,,,,,,,,,
,,,,,,,,,,,block_1/weak_t_72_3.wav,timbre,t,weak,72.0,1.571303333,17.03996546,,,,yes,amazon basics HP01,0,No,M,35,R,Yes,1,2020-09-16_12h31.45.449,kura-B2,2020.1.2,Linux x86_64,60,,,"[""space"",""space"",""space"",""space"",""space"",""space"",""space"",""space"",""space"",""space"",""space"",""space"",""space"",""space"",""space"",""space"",""space"",""space"",""space""]","[0.6607250000006388,1.3933350000006612,2.09516000000076,2.953320000000531,3.734519999999918,4.583430000000533,5.353135000000293,6.12056500000017,6.957335000000057,7.67560500000036,8.53342000000066,9.344775000000482,10.158955000000844,11.029269999999997,11.762470000000576,12.493210000000545,13.315720000000454,14.044490000000224,14.943230000000767]",space,3.703365,0.0,14.0,14.0,26.0,1.0,,,,,,,,,,,,,
,,,,,,,,,,,block_1/strong_t_92_4.wav,timbre,t,strong,92.0,1.022726917,13.26377,,,,yes,amazon basics HP01,0,No,M,35,R,Yes,1,2020-09-16_12h31.45.449,kura-B2,2020.1.2,Linux x86_64,60,,,"[""space"",""space"",""space"",""space"",""space"",""space"",""space"",""space"",""space"",""space"",""space"",""space"",""space"",""space"",""space"",""space"",""space"",""space"",""space"",""space""]","[0.6778150000000096,1.2839600000006612,1.6862700000001496,2.37150500000007,3.05632500000047,3.6426000000001295,4.232625000000496,4.857140000000072,5.508465000000797,6.118750000000546,6.697050000000672,7.306770000000142,7.9792200000001685,8.622465000000375,9.23611500000061,9.878235000000188,10.546480000000827,11.225760000000264,11.884005000000798,12.546245000000454]",space,0.8965,0.0,15.0,15.0,9.0,1.0,,,,,,,,,,,,,
,,,,,,,,,,,block_1/medium_t_119_4.wav,timbre,t,medium,119.0,1.399295551,11.22011188,,,,yes,amazon basics HP01,0,No,M,35,R,Yes,1,2020-09-16_12h31.45.449,kura-B2,2020.1.2,Linux x86_64,60,,,"[""space"",""space"",""space"",""space"",""space"",""space"",""space"",""space"",""space"",""space"",""space"",""space"",""space"",""space"",""space"",""space"",""space"",""space"",""space""]","[0.7921249999999418,1.250594999999521,1.8463849999998274,2.3018199999996796,2.7905000000000655,3.328085000000101,3.81751499999973,4.326544999999896,4.837950000000092,5.324279999999817,5.782059999999547,6.243720000000394,6.77192500000001,7.341120000000046,7.795420000000377,8.298764999999548,8.85568499999954,9.437885000000279,9.963439999999537]",space,1.181155,0.0,16.0,16.0,30.0,1.0,,,,,,,,,,,,,
,,,,,,,,,,,block_1/medium_t_105_4.wav,timbre,t,medium,105.0,2.498438995,14.23458412,,,,yes,amazon basics HP01,0,No,M,35,R,Yes,1,2020-09-16_12h31.45.449,kura-B2,2020.1.2,Linux x86_64,60,,,"[""space"",""space"",""space"",""space"",""space"",""space"",""space"",""space"",""space"",""space"",""space"",""space"",""space"",""space"",""space"",""space"",""space"",""space"",""space"",""space""]","[0.608539999999266,1.0156049999995957,1.560059999999794,2.1678099999999176,2.774924999999712,3.3853599999993094,3.943054999999731,4.551859999999579,5.125669999999445,5.735055000000102,6.318424999999479,7.142454999999245,7.718994999999268,8.376760000000104,8.97224499999993,9.582949999999983,10.224674999999479,10.801314999999704,11.289589999999407,11.823254999999335]",space,0.80709,0.0,17.0,17.0,23.0,1.0,,,,,,,,,,,,,
,,,,,,,,,,,block_1/none_t_119_3.wav,timbre,t,none,119.0,1.169893331,12.28885025,,,,yes,amazon basics HP01,0,No,M,35,R,Yes,1,2020-09-16_12h31.45.449,kura-B2,2020.1.2,Linux x86_64,60,,,"[""space"",""space"",""space"",""space"",""space"",""space"",""space"",""space"",""space"",""space"",""space"",""space"",""space"",""space"",""space"",""space"",""space"",""space"",""space"",""space"",""space"",""space"",""space"",""space""]","[0.29813000000012835,0.6198999999996886,1.065599999999904,1.44601499999942,1.8873249999996915,2.3482399999993504,2.7176300000000992,3.2418699999998353,3.700079999999616,4.166614999999979,4.708920000000035,5.2707000000000335,5.754204999999274,6.255839999999807,6.829674999999952,7.226744999999937,7.7647649999998976,8.28812999999991,8.81099499999982,9.303804999999556,9.715369999999893,10.201874999999745,10.725934999999481,11.17185999999947]",space,1.595465,0.0,18.0,18.0,32.0,1.0,,,,,,,,,,,,,
,,,,,,,,,,,block_1/weak_t_92_3.wav,timbre,t,weak,92.0,1.190820523,16.55263458,,,,yes,amazon basics HP01,0,No,M,35,R,Yes,1,2020-09-16_12h31.45.449,kura-B2,2020.1.2,Linux x86_64,60,,,"[""space"",""space"",""space"",""space"",""space"",""space"",""space"",""space"",""space"",""space"",""space"",""space"",""space"",""space"",""space"",""space"",""space"",""space"",""space"",""space"",""space""]","[0.6284299999997529,1.5099499999996624,2.2509900000004563,3.0583349999997154,3.9106250000004366,4.5659249999997655,5.181674999999814,5.624464999999873,6.135825000000295,6.998999999999796,7.850320000000465,8.692595000000438,9.41785499999969,10.163810000000012,11.031144999999924,11.803995000000214,12.623239999999896,13.3913849999999,14.161509999999907,14.793564999999944,15.507795000000442]",space,0.55829,0.0,19.0,19.0,38.0,1.0,,,,,,,,,,,,,
,,,,,,,,,,,block_1/none_t_92_4.wav,timbre,t,none,92.0,2.400883628,17.24192671,,,,yes,amazon basics HP01,0,No,M,35,R,Yes,1,2020-09-16_12h31.45.449,kura-B2,2020.1.2,Linux x86_64,60,,,"[""space"",""space"",""space"",""space"",""space"",""space"",""space"",""space"",""space"",""space"",""space"",""space"",""space"",""space"",""space"",""space"",""space"",""space"",""space"",""space"",""space"",""space"",""space"",""space""]","[0.42140500000004977,0.7048950000007608,1.1945050000003903,1.6412450000007084,2.154710000000705,2.596750000000611,3.1383450000002995,3.91517500000009,4.67555000000084,5.3627950000000055,6.003905000000486,6.631250000000364,7.164805000000342,7.75367500000084,8.414080000000467,9.108315000000403,9.723635000000286,10.441685000000689,11.227950000000419,11.787045000000035,12.35832500000015,13.004284999999982,13.666200000000572,14.408855000000585]",space,2.30239,0.0,20.0,20.0,22.0,1.0,,,,,,,,,,,,,
,,,,,,,,,,,block_1/strong_t_81_3.wav,timbre,t,strong,81.0,2.437587677,17.65296183,,,,yes,amazon basics HP01,0,No,M,35,R,Yes,1,2020-09-16_12h31.45.449,kura-B2,2020.1.2,Linux x86_64,60,,,"[""space"",""space"",""space"",""space"",""space"",""space"",""space"",""space"",""space"",""space"",""space"",""space"",""space"",""space"",""space"",""space"",""space"",""space"",""space"",""space"",""space""]","[0.35692999999992026,0.9761200000002646,1.6434799999997267,2.346730000000207,3.0989700000000084,3.8688650000004827,4.652069999999981,5.462440000000242,6.2661100000005945,7.044670000000224,7.767335000000344,8.539384999999925,9.290724999999838,10.083349999999882,10.782145000000128,11.56105000000025,12.308254999999804,13.131965000000491,13.908884999999827,14.64375999999993,15.439405000000079]",space,0.57469,0.0,21.0,21.0,24.0,1.0,,,,,,,,,,,,,
,,,,,,,,,,,block_1/medium_t_119_3.wav,timbre,t,medium,119.0,2.226222359,10.98477111,,,,yes,amazon basics HP01,0,No,M,35,R,Yes,1,2020-09-16_12h31.45.449,kura-B2,2020.1.2,Linux x86_64,60,,,"[""space"",""space"",""space"",""space"",""space"",""space"",""space"",""space"",""space"",""space"",""space"",""space"",""space"",""space"",""space"",""space"",""space"",""space"",""space"",""space""]","[0.6305249999995794,0.9629549999998517,1.3664249999992535,1.8407149999993635,2.245199999999386,2.694484999999986,3.068594999999732,3.543979999999465,3.9454900000000634,4.385444999999891,4.826184999999896,5.238384999999653,5.704004999999597,6.151054999999246,6.600265000000036,7.100144999999429,7.579420000000027,8.02464499999951,8.469174999999268,8.953999999999724]",space,0.46018,0.0,22.0,22.0,37.0,1.0,,,,,,,,,,,,,
,,,,,,,,,,,block_1/weak_t_105_3.wav,timbre,t,weak,105.0,2.038080476,13.26905553,,,,yes,amazon basics HP01,0,No,M,35,R,Yes,1,2020-09-16_12h31.45.449,kura-B2,2020.1.2,Linux x86_64,60,,,"[""space"",""space"",""space"",""space"",""space"",""space"",""space"",""space"",""space"",""space"",""space"",""space"",""space"",""space"",""space"",""space"",""space"",""space"",""space"",""space""]","[0.29134999999951106,0.814354999999523,1.4315749999996115,2.0542950000000246,2.8317699999997785,3.488945000000058,4.0908199999994395,4.687535000000025,5.243695000000116,5.801099999999678,6.3676049999994575,6.864349999999831,7.424170000000231,8.047845000000052,8.588869999999588,9.118424999999661,9.656039999999848,10.2804500000002,10.727154999999584,11.29220499999974]",space,1.72889,0.0,23.0,23.0,4.0,1.0,,,,,,,,,,,,,
,,,,,,,,,,,block_1/strong_t_119_4.wav,timbre,t,strong,119.0,1.237037075,11.10492823,,,,yes,amazon basics HP01,0,No,M,35,R,Yes,1,2020-09-16_12h31.45.449,kura-B2,2020.1.2,Linux x86_64,60,,,"[""space"",""space"",""space"",""space"",""space"",""space"",""space"",""space"",""space"",""space"",""space"",""space"",""space"",""space"",""space"",""space"",""space"",""space"",""space"",""space""]","[0.6228799999998955,1.041545000000042,1.4890100000002349,1.983274999999594,2.4796299999998155,2.966370000000097,3.456529999999475,3.944499999999607,4.463275000000067,4.96362500000032,5.410359999999855,5.9467899999999645,6.451565000000301,6.9067549999999756,7.4296150000000125,7.913959999999861,8.410055000000284,8.92887999999948,9.449274999999943,10.056550000000243]",space,0.995795,0.0,24.0,24.0,39.0,1.0,,,,,,,,,,,,,
,,,,,,,,,,,block_1/medium_t_81_4.wav,timbre,t,medium,81.0,1.136743646,13.9322992,,,,yes,amazon basics HP01,0,No,M,35,R,Yes,1,2020-09-16_12h31.45.449,kura-B2,2020.1.2,Linux x86_64,60,,,"[""space"",""space"",""space"",""space"",""space"",""space"",""space"",""space"",""space"",""space"",""space"",""space"",""space"",""space"",""space"",""space"",""space"",""space"",""space"",""space"",""space""]","[0.4523849999995946,0.7704800000001342,1.1835249999995767,1.8388299999996889,2.460559999999532,3.114184999999452,3.7413649999998597,4.410619999999653,5.071044999999685,5.684290000000146,6.339320000000043,6.956699999999728,7.644209999999475,8.393384999999398,9.079334999999446,9.723245000000247,10.384224999999788,11.118854999999712,11.767109999999661,12.31128499999977,13.074999999999818]",space,0.50727,0.0,25.0,25.0,2.0,1.0,,,,,,,,,,,,,
,,,,,,,,,,,block_1/strong_t_72_3.wav,timbre,t,strong,72.0,1.503157527,17.98057249,,,,yes,amazon basics HP01,0,No,M,35,R,Yes,1,2020-09-16_12h31.45.449,kura-B2,2020.1.2,Linux x86_64,60,,,"[""space"",""space"",""space"",""space"",""space"",""space"",""space"",""space"",""space"",""space"",""space"",""space"",""space"",""space"",""space"",""space"",""space"",""space"",""space"",""space""]","[0.33920000000034634,0.6902000000000044,1.6824100000003455,2.590994999999566,3.457695000000058,4.274830000000293,5.099035000000185,5.9452650000002905,6.774669999999787,7.556824999999549,8.392754999999852,9.128340000000208,9.975854999999683,10.92683500000021,11.666479999999865,12.555089999999836,13.424605000000042,14.213204999999903,15.146939999999631,16.03636499999982]",space,4.74954,0.0,26.0,26.0,5.0,1.0,,,,,,,,,,,,,
,,,,,,,,,,,block_1/weak_t_72_4.wav,timbre,t,weak,72.0,1.01386198,17.48964429,,,,yes,amazon basics HP01,0,No,M,35,R,Yes,1,2020-09-16_12h31.45.449,kura-B2,2020.1.2,Linux x86_64,60,,,"[""space"",""space"",""space"",""space"",""space"",""space"",""space"",""space"",""space"",""space"",""space"",""space"",""space"",""space"",""space"",""space"",""space"",""space"",""space"",""space"",""space""]","[0.2826100000002043,0.7664450000002034,1.4139949999998862,2.2843050000001313,2.8829600000000255,3.371360000000095,4.103269999999611,5.0211499999995794,5.964584999999715,6.8617199999998775,7.566485000000398,8.376669999999649,9.421035000000302,10.293335000000297,10.950460000000021,11.725139999999556,12.499050000000352,13.435625000000073,14.258520000000203,15.074579999999514,15.960320000000138]",space,10.387765,0.0,27.0,27.0,33.0,1.0,,,,,,,,,,,,,
,,,,,,,,,,,block_1/strong_t_119_3.wav,timbre,t,strong,119.0,1.722630655,12.55029505,,,,yes,amazon basics HP01,0,No,M,35,R,Yes,1,2020-09-16_12h31.45.449,kura-B2,2020.1.2,Linux x86_64,60,,,"[""space"",""space"",""space"",""space"",""space"",""space"",""space"",""space"",""space"",""space"",""space"",""space"",""space"",""space"",""space"",""space"",""space"",""space"",""space"",""space""]","[0.7677199999999402,1.1376099999997678,1.5496249999996508,2.0141649999995934,2.544750000000022,3.1560099999996964,3.701114999999959,4.283279999999763,4.820209999999861,5.34818499999983,5.848549999999705,6.445020000000113,7.009680000000117,7.611434999999801,8.189159999999902,8.776495000000068,9.309604999999465,9.864884999999958,10.443175000000338,10.976384999999937]",space,0.661985,0.0,28.0,28.0,28.0,1.0,,,,,,,,,,,,,
,,,,,,,,,,,block_1/weak_t_119_3.wav,timbre,t,weak,119.0,1.729530605,11.14109523,,,,yes,amazon basics HP01,0,No,M,35,R,Yes,1,2020-09-16_12h31.45.449,kura-B2,2020.1.2,Linux x86_64,60,,,"[""space"",""space"",""space"",""space"",""space"",""space"",""space"",""space"",""space"",""space"",""space"",""space"",""space"",""space"",""space"",""space"",""space"",""space"",""space"",""space"",""space""]","[0.5126949999994395,0.8746549999996205,1.3286749999997483,1.7036549999992303,2.0566549999994095,2.4479649999993853,3.0664299999998548,3.437539999999899,3.8531999999995605,4.336074999999255,4.669804999999542,5.066640000000007,5.54162499999984,6.081209999999373,6.645784999999705,7.2169999999996435,7.656164999999419,8.153019999999742,8.57877499999995,9.026329999999689,9.57176999999956]",space,1.31498,0.0,29.0,29.0,13.0,1.0,,,,,,,,,,,,,
,,,,,,,,,,,block_1/none_t_105_3.wav,timbre,t,none,105.0,2.248615294,16.06934092,,,,yes,amazon basics HP01,0,No,M,35,R,Yes,1,2020-09-16_12h31.45.449,kura-B2,2020.1.2,Linux x86_64,60,,,"[""space"",""space"",""space"",""space"",""space"",""space"",""space"",""space"",""space"",""space"",""space"",""space"",""space"",""space"",""space"",""space"",""space"",""space"",""space"",""space"",""space"",""space"",""space"",""space"",""space"",""space"",""space""]","[0.6024250000000393,1.306485000000066,1.8727300000000469,2.2835949999998775,2.7345799999993687,3.165664999999535,3.643605000000207,4.183334999999715,4.665454999999383,5.204679999999826,5.722969999999805,6.265229999999974,6.668314999999893,7.286889999999403,7.648005000000012,8.193069999999352,8.691490000000272,9.16715000000022,9.736919999999373,10.258060000000114,10.670954999999594,11.157874999999876,11.660965000000033,12.168705000000045,12.703214999999545,13.265304999999898,13.844500000000153]",space,5.650715,0.0,30.0,30.0,14.0,1.0,,,,,,,,,,,,,
,,,,,,,,,,,block_1/none_t_81_3.wav,timbre,t,none,81.0,2.10326082,21.36648077,,,,yes,amazon basics HP01,0,No,M,35,R,Yes,1,2020-09-16_12h31.45.449,kura-B2,2020.1.2,Linux x86_64,60,,,"[""space"",""space"",""space"",""space"",""space"",""space"",""space"",""space"",""space"",""space"",""space"",""space"",""space"",""space"",""space"",""space"",""space"",""space"",""space"",""space"",""space"",""space"",""space"",""space"",""space"",""space"",""space"",""space"",""space"",""space"",""space"",""space"",""space"",""space"",""space"",""space""]","[0.5572600000004968,1.1888150000004316,1.7469700000001467,2.3481400000000576,2.9042349999999715,3.400985000000219,3.926205000000664,4.482425000000148,5.057819999999992,5.586189999999988,6.1355499999999665,6.740350000000035,7.305850000000646,7.9223650000003545,8.45622000000003,8.987495000000422,9.446560000000318,10.007540000000517,10.550845000000663,11.102110000000721,11.628750000000764,12.117905000000064,12.61111500000061,13.024935000000255,13.526520000000346,13.968950000000405,14.589220000000637,15.157510000000002,15.756065000000376,16.286330000000817,16.82431500000075,17.2327150000001,17.72542500000054,18.183070000000043,18.666480000000774,19.202100000000428]",space,1.22373,0.0,31.0,31.0,10.0,1.0,,,,,,,,,,,,,
,,,,,,,,,,,block_1/weak_t_119_4.wav,timbre,t,weak,119.0,1.438381355,12.04736095,,,,yes,amazon basics HP01,0,No,M,35,R,Yes,1,2020-09-16_12h31.45.449,kura-B2,2020.1.2,Linux x86_64,60,,,"[""space"",""space"",""space"",""space"",""space"",""space"",""space"",""space"",""space"",""space"",""space"",""space"",""space"",""space"",""space"",""space"",""space"",""space"",""space"",""space"",""space"",""space"",""space""]","[0.6530649999995148,1.0253049999992072,1.444774999999936,1.9061699999992925,2.2916449999993347,2.914894999999774,3.241459999999279,3.6991449999995893,4.189409999999953,4.612444999999752,5.2384299999994255,5.720440000000053,6.189279999999599,6.619549999999435,7.026539999999841,7.44881499999974,7.961914999999863,8.448459999999614,8.865589999999429,9.376080000000002,9.873759999999493,10.32647499999996,10.829929999999877]",space,0.658935,0.0,32.0,32.0,11.0,1.0,,,,,,,,,,,,,
,,,,,,,,,,,block_1/strong_t_92_3.wav,timbre,t,strong,92.0,1.987733848,15.03440052,,,,yes,amazon basics HP01,0,No,M,35,R,Yes,1,2020-09-16_12h31.45.449,kura-B2,2020.1.2,Linux x86_64,60,,,"[""space"",""space"",""space"",""space"",""space"",""space"",""space"",""space"",""space"",""space"",""space"",""space"",""space"",""space"",""space"",""space"",""space"",""space"",""space"",""space"",""space""]","[0.2806700000001001,0.6726349999999002,1.341500000000451,2.027074999999968,2.690440000000308,3.4208300000000236,4.104659999999967,4.689059999999699,5.315849999999955,5.901829999999791,6.51900999999998,7.24877000000015,7.845040000000154,8.486039999999775,9.095455000000584,9.723745000000235,10.5447350000004,11.221645000000535,11.96857,12.67634999999973,13.361495000000104]",space,1.132975,0.0,33.0,33.0,3.0,1.0,,,,,,,,,,,,,
,,,,,,,,,,,block_1/weak_t_92_4.wav,timbre,t,weak,92.0,1.530875014,13.01332399,,,,yes,amazon basics HP01,0,No,M,35,R,Yes,1,2020-09-16_12h31.45.449,kura-B2,2020.1.2,Linux x86_64,60,,,"[""space"",""space"",""space"",""space"",""space"",""space"",""space"",""space"",""space"",""space"",""space"",""space"",""space"",""space"",""space"",""space"",""space"",""space"",""space"",""space""]","[0.5338949999995748,1.2492249999995693,1.7900399999998626,2.3397799999993367,2.985254999999597,3.56063499999982,4.161470000000008,4.69642500000009,5.242964999999458,5.778649999999288,6.397809999999481,7.0434699999996155,7.541714999999385,8.151574999999866,8.7349549999999,9.36154499999975,9.96379499999955,10.418494999999893,11.035759999999755,11.61670999999933]",space,0.595585,0.0,34.0,34.0,29.0,1.0,,,,,,,,,,,,,
,,,,,,,,,,,block_1/none_t_105_4.wav,timbre,t,none,105.0,1.782068205,15.59785052,,,,yes,amazon basics HP01,0,No,M,35,R,Yes,1,2020-09-16_12h31.45.449,kura-B2,2020.1.2,Linux x86_64,60,,,"[""space"",""space"",""space"",""space"",""space"",""space"",""space"",""space"",""space"",""space"",""space"",""space"",""space"",""space"",""space"",""space"",""space"",""space"",""space"",""space"",""space"",""space"",""space"",""space"",""space"",""space"",""space""]","[0.28857000000061817,0.6968000000006214,1.2163500000006024,1.7726650000004156,2.265585000000101,2.7547300000005635,3.264430000000175,3.7611400000005233,4.250495000000228,4.811024999999972,5.3598799999999756,5.878990000000158,6.413435000000391,6.858940000000075,7.385670000000573,8.066165000000183,8.494525000000067,9.031455000000278,9.473820000000046,10.016345000000001,10.58105500000056,11.142920000000231,11.662630000000718,12.238830000000235,12.736040000000685,13.284035000000586,13.770300000000134]",space,0.54025,0.0,35.0,35.0,20.0,1.0,,,,,,,,,,,,,
,,,,,,,,,,,block_1/medium_t_72_4.wav,timbre,t,medium,72.0,1.659874932,19.69733525,,,,yes,amazon basics HP01,0,No,M,35,R,Yes,1,2020-09-16_12h31.45.449,kura-B2,2020.1.2,Linux x86_64,60,,,"[""space"",""space"",""space"",""space"",""space"",""space"",""space"",""space"",""space"",""space"",""space"",""space"",""space"",""space"",""space"",""space"",""space"",""space"",""space"",""space""]","[0.4691050000001269,1.0784249999996973,2.2669299999997747,3.1093700000001263,3.96967499999937,4.854924999999639,5.800905000000057,6.671194999999898,7.713960000000043,8.48144499999944,9.328569999999672,10.227704999999332,11.21735499999977,12.135514999999941,13.072900000000118,13.946284999999989,14.88194999999996,15.732124999999542,16.705589999999575,17.5792449999999]",space,1.84623,0.0,36.0,36.0,36.0,1.0,,,,,,,,,,,,,
,,,,,,,,,,,block_1/medium_t_92_4.wav,timbre,t,medium,92.0,1.590939721,14.58753836,,,,yes,amazon basics HP01,0,No,M,35,R,Yes,1,2020-09-16_12h31.45.449,kura-B2,2020.1.2,Linux x86_64,60,,,"[""space"",""space"",""space"",""space"",""space"",""space"",""space"",""space"",""space"",""space"",""space"",""space"",""space"",""space"",""space"",""space"",""space"",""space"",""space"",""space""]","[0.5895049999999173,1.242989999999736,1.9598000000005413,2.6269199999997,3.2079100000000835,3.903519999999844,4.513969999999972,5.199714999999742,5.855080000000157,6.535800000000563,7.190080000000307,7.764385000000402,8.567829999999958,9.2044649999998,9.837349999999788,10.504974999999831,11.173649999999725,11.865350000000035,12.50106500000038,13.165820000000167]",space,0.76034,0.0,37.0,37.0,25.0,1.0,,,,,,,,,,,,,
,,,,,,,,,,,block_1/none_t_72_4.wav,timbre,t,none,72.0,1.772355542,25.47190203,,,,yes,amazon basics HP01,0,No,M,35,R,Yes,1,2020-09-16_12h31.45.449,kura-B2,2020.1.2,Linux x86_64,60,,,"[""space"",""space"",""space"",""space"",""space"",""space"",""space"",""space"",""space"",""space"",""space"",""space"",""space"",""space"",""space"",""space"",""space"",""space"",""space"",""space"",""space"",""space"",""space"",""space"",""space"",""space"",""space"",""space"",""space"",""space"",""space"",""space"",""space"",""space"",""space"",""space"",""space"",""space"",""space"",""space"",""space"",""space"",""space"",""space"",""space""]","[0.2607049999996889,0.9156999999995605,1.3176349999994272,1.8039349999999104,2.2899250000000393,2.8308149999993475,3.281144999999924,3.7886949999992794,4.294149999999718,4.8230899999998655,5.363879999999881,5.798989999999321,6.25121499999932,6.745994999999311,7.236649999999713,7.76113499999974,8.336599999999635,8.874049999999443,9.391354999999749,10.003469999999652,10.555190000000039,11.109854999999698,11.592794999999569,12.10428999999931,12.546330000000125,13.117510000000038,13.63794499999949,14.128294999999525,14.74731999999949,15.324194999999236,15.859230000000025,16.43358499999988,16.923385000000053,17.493164999999863,17.987489999999525,18.45153499999924,19.017719999999827,19.562034999999923,20.084444999999505,20.74158499999976,21.236895000000004,21.767979999999625,22.31056499999977,22.878504999999677,23.483414999999695]",space,2.10333,0.0,38.0,38.0,15.0,1.0,,,,,,,,,,,,,
,,,,,,,,,,,block_1/medium_t_105_3.wav,timbre,t,medium,105.0,1.131854181,11.90867958,,,,yes,amazon basics HP01,0,No,M,35,R,Yes,1,2020-09-16_12h31.45.449,kura-B2,2020.1.2,Linux x86_64,60,,,"[""space"",""space"",""space"",""space"",""space"",""space"",""space"",""space"",""space"",""space"",""space"",""space"",""space"",""space"",""space"",""space"",""space"",""space"",""space"",""space"",""space""]","[0.27260500000011234,0.7717849999999089,1.2517500000004702,1.7050500000004831,2.2791750000005777,2.7950550000005023,3.328375000000051,3.848794999999882,4.3770549999999275,4.909319999999752,5.4395000000004075,5.922540000000481,6.529695000000174,7.11142000000018,7.609005000000252,8.148895000000266,8.750665000000481,9.242400000000089,9.794614999999794,10.371100000000297,10.909290000000397]",space,1.210665,0.0,39.0,39.0,16.0,1.0,,,,,,,,,,,,,
,,,,,,,,,,,block_2/medium_n_72_3.wav,no,n,medium,72.0,1.994146771,18.06802432,,,,yes,amazon basics HP01,0,No,M,35,R,Yes,1,2020-09-16_12h31.45.449,kura-B2,2020.1.2,Linux x86_64,60,,,,,,,,,,,,space,10.75169,"[""space"",""space"",""space"",""space"",""space"",""space"",""space"",""space"",""space"",""space"",""space"",""space"",""space"",""space"",""space"",""space"",""space"",""space"",""space"",""space"",""space""]","[0.28836000000046624,0.6205900000004476,1.4023800000004485,2.3136600000007093,3.126430000000255,3.8971150000006674,4.686244999999985,5.5816100000001825,6.351349999999911,7.141450000000077,8.084595000000263,8.906945000000633,9.786300000000665,10.574510000000373,11.340915000000678,12.237300000000687,13.110870000000432,14.008104999999887,14.77851499999997,15.51586000000043,16.352485000000343]",space,0.76932,0.0,0.0,0.0,13.0,1.0,,
,,,,,,,,,,,block_2/weak_n_119_3.wav,no,n,weak,119.0,1.689359171,10.04573105,,,,yes,amazon basics HP01,0,No,M,35,R,Yes,1,2020-09-16_12h31.45.449,kura-B2,2020.1.2,Linux x86_64,60,,,,,,,,,,,,,,"[""space"",""space"",""space"",""space"",""space"",""space"",""space"",""space"",""space"",""space"",""space"",""space"",""space"",""space"",""space"",""space"",""space"",""space"",""space"",""space""]","[0.33147500000097807,0.8232000000008384,1.19240000000093,1.5839000000006536,2.0606700000008686,2.4775200000005952,2.8764950000005456,3.290905000000862,3.7364250000001675,4.146595000000275,4.545525000000566,5.0044350000008535,5.416750000000434,5.8242500000006885,6.239375000000223,6.618640000000596,7.092010000000414,7.473495000000298,7.931515000000331,8.373285000000692]",space,0.810145,0.0,1.0,1.0,37.0,1.0,,
,,,,,,,,,,,block_2/weak_n_92_4.wav,no,n,weak,92.0,2.26710089,14.35326869,,,,yes,amazon basics HP01,0,No,M,35,R,Yes,1,2020-09-16_12h31.45.449,kura-B2,2020.1.2,Linux x86_64,60,,,,,,,,,,,,,,"[""space"",""space"",""space"",""space"",""space"",""space"",""space"",""space"",""space"",""space"",""space"",""space"",""space"",""space"",""space"",""space"",""space"",""space"",""space"",""space"",""space""]","[0.4715550000000803,0.7497099999999364,1.2416800000000876,1.9452000000001135,2.61783000000014,3.2344249999996464,3.7740999999996347,4.41756499999974,4.988704999999754,5.519054999999753,6.104760000000169,6.747164999999768,7.333854999999858,7.905644999999822,8.544914999999492,9.175830000000133,9.759184999999889,10.344569999999294,10.960274999999456,11.621619999999893,12.233499999999367]",space,0.3646,0.0,2.0,2.0,15.0,1.0,,
,,,,,,,,,,,block_2/strong_n_105_3.wav,no,n,strong,105.0,2.095458379,13.32602527,,,,yes,amazon basics HP01,0,No,M,35,R,Yes,1,2020-09-16_12h31.45.449,kura-B2,2020.1.2,Linux x86_64,60,,,,,,,,,,,,,,"[""space"",""space"",""space"",""space"",""space"",""space"",""space"",""space"",""space"",""space"",""space"",""space"",""space"",""space"",""space"",""space"",""space"",""space"",""space"",""space"",""space""]","[0.2858750000004875,0.6907700000001569,1.105905000000348,1.6391550000007555,2.166645000000244,2.7037850000006074,3.316385000000082,3.8616650000003574,4.370205000000169,4.948355000000447,5.549885000000359,6.111995000000206,6.645245000000614,7.251615000000129,7.795320000000174,8.329940000000533,8.92642000000069,9.518434999999954,10.079169999999976,10.708360000000539,11.222375000000284]",space,0.6483,0.0,3.0,3.0,9.0,1.0,,
,,,,,,,,,,,block_2/medium_n_105_3.wav,no,n,medium,105.0,2.480661226,14.16274739,,,,yes,amazon basics HP01,0,No,M,35,R,Yes,1,2020-09-16_12h31.45.449,kura-B2,2020.1.2,Linux x86_64,60,,,,,,,,,,,,,,"[""space"",""space"",""space"",""space"",""space"",""space"",""space"",""space"",""space"",""space"",""space"",""space"",""space"",""space"",""space"",""space"",""space"",""space"",""space"",""space"",""space""]","[0.40762500000073487,0.7988500000001295,1.433285000000069,2.0304250000008324,2.6477450000002136,3.18802500000038,3.7174450000002253,4.33757500000047,4.832385000000613,5.4005650000008245,6.019605000000411,6.581445000000713,7.163030000000617,7.7052050000002055,8.322395000000142,8.970265000000836,9.509425000000192,9.96764500000063,10.580520000000433,11.23660000000018,11.800530000000435]",space,1.3104,0.0,4.0,4.0,0.0,1.0,,
,,,,,,,,,,,block_2/none_n_119_4.wav,no,n,none,119.0,1.538189981,14.89986799,,,,yes,amazon basics HP01,0,No,M,35,R,Yes,1,2020-09-16_12h31.45.449,kura-B2,2020.1.2,Linux x86_64,60,,,,,,,,,,,,,,"[""space"",""space"",""space"",""space"",""space"",""space"",""space"",""space"",""space"",""space"",""space"",""space"",""space"",""space"",""space"",""space"",""space"",""space"",""space"",""space"",""space"",""space"",""space"",""space"",""space""]","[0.3236749999996391,0.6376999999993131,1.050319999999374,1.3384600000001683,1.6288599999998041,2.014459999999417,2.502539999999499,3.2512249999999767,3.912964999999531,4.496979999999894,5.156094999999368,5.6569799999997485,6.27657999999974,6.9216349999996964,7.453254999999444,8.069234999999935,8.63502999999946,9.22077999999965,9.750864999999976,10.328139999999621,10.917519999999968,11.460409999999683,11.993120000000317,12.572924999999486,13.15016999999989]",space,0.700515,0.0,5.0,5.0,20.0,1.0,,
,,,,,,,,,,,block_2/strong_n_81_4.wav,no,n,strong,81.0,1.736263272,17.70810001,,,,yes,amazon basics HP01,0,No,M,35,R,Yes,1,2020-09-16_12h31.45.449,kura-B2,2020.1.2,Linux x86_64,60,,,,,,,,,,,,,,"[""space"",""space"",""space"",""space"",""space"",""space"",""space"",""space"",""space"",""space"",""space"",""space"",""space"",""space"",""space"",""space"",""space"",""space"",""space"",""space""]","[0.577980000000025,0.9108999999998559,1.689010000000053,2.5123499999999694,3.3481849999998303,4.130600000000413,4.922955000000002,5.695655000000443,6.548155000000406,7.3196050000005926,8.093275000000176,8.878665000000183,9.655969999999797,10.556529999999839,11.343440000000555,12.210085000000618,12.958645000000615,13.793234999999868,14.572210000000268,15.381865000000289]",space,2.38591,0.0,6.0,6.0,1.0,1.0,,
,,,,,,,,,,,block_2/strong_n_72_4.wav,no,n,strong,72.0,1.689031128,17.05764791,,,,yes,amazon basics HP01,0,No,M,35,R,Yes,1,2020-09-16_12h31.45.449,kura-B2,2020.1.2,Linux x86_64,60,,,,,,,,,,,,,,"[""space"",""space"",""space"",""space"",""space"",""space"",""space"",""space"",""space"",""space"",""space"",""space"",""space"",""space"",""space"",""space"",""space"",""space"",""space"",""space""]","[0.6932900000001609,1.303979999999683,2.150564999999915,3.036294999999882,3.8354899999994814,4.636324999999488,5.488360000000284,6.242790000000241,7.038469999999506,7.765644999999495,8.565349999999853,9.38401999999951,10.15369499999997,10.964324999999917,11.742389999999432,12.517394999999851,13.314685000000281,14.060464999999567,14.875065000000177,15.602415000000292]",space,1.29066,0.0,7.0,7.0,35.0,1.0,,
,,,,,,,,,,,block_2/medium_n_81_4.wav,no,n,medium,81.0,1.594727623,16.1032537,,,,yes,amazon basics HP01,0,No,M,35,R,Yes,1,2020-09-16_12h31.45.449,kura-B2,2020.1.2,Linux x86_64,60,,,,,,,,,,,,,,"[""space"",""space"",""space"",""space"",""space"",""space"",""space"",""space"",""space"",""space"",""space"",""space"",""space"",""space"",""space"",""space"",""space"",""space"",""space"",""space""]","[0.5857599999999366,1.4263099999998303,2.2017299999997704,2.911869999999908,3.7825349999993705,4.477339999999458,5.171579999999267,5.918914999999288,6.6714499999998225,7.331419999999525,8.033724999999322,8.762124999999287,9.540664999999535,10.222504999999728,10.979984999999942,11.685269999999946,12.504649999999856,13.201629999999568,13.982904999999846,14.729099999999562]",space,6.510735,0.0,8.0,8.0,38.0,1.0,,
,,,,,,,,,,,block_2/none_n_105_3.wav,no,n,none,105.0,1.200203838,13.86165508,,,,yes,amazon basics HP01,0,No,M,35,R,Yes,1,2020-09-16_12h31.45.449,kura-B2,2020.1.2,Linux x86_64,60,,,,,,,,,,,,,,"[""space"",""space"",""space"",""space"",""space"",""space"",""space"",""space"",""space"",""space"",""space"",""space"",""space"",""space"",""space"",""space"",""space"",""space"",""space"",""space"",""space"",""space"",""space"",""space"",""space"",""space"",""space""]","[0.25452000000041153,0.6661300000005212,1.04104499999994,1.4624450000001161,1.8412850000004255,2.316359999999804,2.8017250000002605,3.170495000000301,3.6633050000000367,4.1925499999997555,4.729835000000094,5.213405000000421,5.662635000000591,6.199950000000172,6.649470000000292,7.112960000000385,7.589980000000651,8.145555000000058,8.640720000000329,9.178870000000643,9.728825000000143,10.26568000000043,10.760565000000497,11.197615000000042,11.689045000000078,12.189080000000104,12.684330000000045]",space,0.71255,0.0,9.0,9.0,6.0,1.0,,
,,,,,,,,,,,block_2/medium_n_92_3.wav,no,n,medium,92.0,2.163023573,13.84869251,,,,yes,amazon basics HP01,0,No,M,35,R,Yes,1,2020-09-16_12h31.45.449,kura-B2,2020.1.2,Linux x86_64,60,,,,,,,,,,,,,,"[""space"",""space"",""space"",""space"",""space"",""space"",""space"",""space"",""space"",""space"",""space"",""space"",""space"",""space"",""space"",""space"",""space"",""space"",""space"",""space""]","[0.5267499999999927,0.9935649999997622,1.4961999999995896,2.052799999999479,2.5880499999993845,3.163804999999229,3.768344999999499,4.439204999999674,5.080244999999195,5.702954999999747,6.322064999999384,7.004149999999754,7.597329999999602,8.227979999999661,8.757549999999355,9.412819999999329,9.990579999999682,10.546974999999293,11.12349499999982,11.692989999999554]",space,0.6411,0.0,10.0,10.0,2.0,1.0,,
,,,,,,,,,,,block_2/strong_n_72_3.wav,no,n,strong,72.0,2.337906276,17.4032124,,,,yes,amazon basics HP01,0,No,M,35,R,Yes,1,2020-09-16_12h31.45.449,kura-B2,2020.1.2,Linux x86_64,60,,,,,,,,,,,,,,"[""space"",""space"",""space"",""space"",""space"",""space"",""space"",""space"",""space"",""space"",""space"",""space"",""space"",""space"",""space"",""space"",""space"",""space"",""space"",""space"",""space""]","[0.40799500000048283,0.7273850000001403,1.467225000000326,2.209509999999682,3.063325000000077,3.8239750000000186,4.59934500000054,5.3753050000004805,6.1329649999997855,6.8751600000005055,7.65800500000023,8.408830000000307,9.149089999999887,10.010874999999942,10.752395000000433,11.44916000000012,12.278675000000476,13.060889999999745,13.774699999999939,14.578164999999899,15.593375000000378]",space,1.075205,0.0,11.0,11.0,32.0,1.0,,
,,,,,,,,,,,block_2/weak_n_92_3.wav,no,n,weak,92.0,2.16711471,14.91038002,,,,yes,amazon basics HP01,0,No,M,35,R,Yes,1,2020-09-16_12h31.45.449,kura-B2,2020.1.2,Linux x86_64,60,,,,,,,,,,,,,,"[""space"",""space"",""space"",""space"",""space"",""space"",""space"",""space"",""space"",""space"",""space"",""space"",""space"",""space"",""space"",""space"",""space"",""space"",""space"",""space"",""space""]","[0.3775150000001304,0.696060000000216,1.2665699999997742,1.8809599999995044,2.565324999999575,3.278929999999491,3.9196549999996932,4.518989999999576,5.14668999999958,5.829979999999523,6.453569999999672,7.10207999999966,7.75729500000034,8.319274999999834,8.987129999999524,9.7017850000002,10.322720000000118,10.938379999999597,11.581820000000334,12.31099499999982,12.932799999999588]",space,2.76545,0.0,12.0,12.0,5.0,1.0,,
,,,,,,,,,,,block_2/none_n_72_4.wav,no,n,none,72.0,1.743803892,24.48607147,,,,yes,amazon basics HP01,0,No,M,35,R,Yes,1,2020-09-16_12h31.45.449,kura-B2,2020.1.2,Linux x86_64,60,,,,,,,,,,,,,,"[""space"",""space"",""space"",""space"",""space"",""space"",""space"",""space"",""space"",""space"",""space"",""space"",""space"",""space"",""space"",""space"",""space"",""space"",""space"",""space"",""space"",""space"",""space"",""space"",""space"",""space"",""space"",""space"",""space"",""space"",""space"",""space"",""space"",""space"",""space"",""space""]","[0.43268999999963853,0.8251599999994141,1.357264999999643,1.885005000000092,2.311754999999721,2.8815199999999095,3.6422199999997247,4.138449999999466,4.805459999999584,5.414514999999483,5.954684999999699,6.553495000000112,7.146334999999453,8.06128499999977,8.780659999999443,9.57291999999984,10.23671000000013,10.951004999999896,11.607199999999466,12.286175000000185,12.9375,13.63720000000012,14.183124999999563,14.8584350000001,15.508229999999458,16.077589999999873,16.691414999999324,17.22915499999999,17.922394999999597,18.58370500000001,19.314040000000205,20.12020500000017,20.782749999999396,21.476834999999483,22.094629999999597,22.769634999999653]",space,2.83325,0.0,13.0,13.0,21.0,1.0,,
,,,,,,,,,,,block_2/medium_n_81_3.wav,no,n,medium,81.0,2.235189468,17.75582439,,,,yes,amazon basics HP01,0,No,M,35,R,Yes,1,2020-09-16_12h31.45.449,kura-B2,2020.1.2,Linux x86_64,60,,,,,,,,,,,,,,"[""space"",""space"",""space"",""space"",""space"",""space"",""space"",""space"",""space"",""space"",""space"",""space"",""space"",""space"",""space"",""space"",""space"",""space"",""space"",""space""]","[0.32433000000014545,0.7748650000003181,1.2875650000005407,2.1118200000000797,2.8413450000007288,3.622505000000274,4.372385000000577,5.150515000000269,5.938900000000103,6.880555000000641,7.647475000000668,8.425295000000006,9.160930000000008,9.970275000000584,10.795195000000604,11.571680000000015,12.361985000000459,13.264225000000806,14.108055000000604,14.985145000000557]",space,0.63654,0.0,14.0,14.0,33.0,1.0,,
,,,,,,,,,,,block_2/weak_n_105_3.wav,no,n,weak,105.0,2.432347709,14.10785791,,,,yes,amazon basics HP01,0,No,M,35,R,Yes,1,2020-09-16_12h31.45.449,kura-B2,2020.1.2,Linux x86_64,60,,,,,,,,,,,,,,"[""space"",""space"",""space"",""space"",""space"",""space"",""space"",""space"",""space"",""space"",""space"",""space"",""space"",""space"",""space"",""space"",""space"",""space"",""space"",""space""]","[0.2796100000005026,0.9428900000002614,1.5105849999997645,2.2528400000001056,2.9343150000004243,3.553899999999885,4.081044999999904,4.7452549999998155,5.218894999999975,6.053630000000339,6.866645000000062,7.475970000000416,8.021749999999884,8.664480000000367,9.244410000000244,9.77949499999977,10.296725000000151,10.819819999999709,11.38485500000047,11.96413500000017]",space,0.656395,0.0,15.0,15.0,27.0,1.0,,
,,,,,,,,,,,block_2/none_n_92_4.wav,no,n,none,92.0,2.009431863,15.90199422,,,,yes,amazon basics HP01,0,No,M,35,R,Yes,1,2020-09-16_12h31.45.449,kura-B2,2020.1.2,Linux x86_64,60,,,,,,,,,,,,,,"[""space"",""space"",""space"",""space"",""space"",""space"",""space"",""space"",""space"",""space"",""space"",""space"",""space"",""space"",""space"",""space"",""space"",""space"",""space"",""space"",""space"",""space"",""space"",""space""]","[0.6138449999998556,1.0245000000004438,1.4300199999997858,2.0029599999998027,2.5684300000004896,3.1860100000003513,3.786369999999806,4.357934999999998,4.848790000000008,5.500044999999773,6.058149999999841,6.71496500000012,7.245240000000194,7.814875000000029,8.376475000000028,8.920500000000175,9.618549999999914,10.172030000000632,10.710039999999935,11.208440000000337,11.80998499999987,12.410135000000082,12.979210000000421,13.605210000000625]",space,0.719455,0.0,16.0,16.0,19.0,1.0,,
,,,,,,,,,,,block_2/none_n_81_4.wav,no,n,none,81.0,1.032736778,20.98466422,,,,yes,amazon basics HP01,0,No,M,35,R,Yes,1,2020-09-16_12h31.45.449,kura-B2,2020.1.2,Linux x86_64,60,,,,,,,,,,,,,,"[""space"",""space"",""space"",""space"",""space"",""space"",""space"",""space"",""space"",""space"",""space"",""space"",""space"",""space"",""space"",""space"",""space"",""space"",""space"",""space"",""space"",""space"",""space"",""space"",""space"",""space"",""space"",""space""]","[0.5011749999994208,1.066994999999224,1.6170399999991787,2.151329999999689,2.8252749999992375,3.474674999999479,4.249339999999393,4.99165499999981,5.763854999999239,6.4882849999994505,7.233264999999847,7.970149999999421,8.800384999999551,9.584499999999935,10.23115499999949,11.018309999999474,11.80800999999974,12.514569999999367,13.193539999999302,14.077589999999873,14.850889999999708,15.43015500000024,16.251179999999295,16.940034999999625,17.640424999999595,18.54025499999989,19.251854999999523,20.010999999999513]",space,2.50508,0.0,17.0,17.0,26.0,1.0,,
,,,,,,,,,,,block_2/none_n_119_3.wav,no,n,none,119.0,1.37370001,14.3364211,,,,yes,amazon basics HP01,0,No,M,35,R,Yes,1,2020-09-16_12h31.45.449,kura-B2,2020.1.2,Linux x86_64,60,,,,,,,,,,,,,,"[""space"",""space"",""space"",""space"",""space"",""space"",""space"",""space"",""space"",""space"",""space"",""space"",""space"",""space"",""space"",""space"",""space"",""space""]","[0.3547099999996135,0.7969249999996464,1.9770899999994072,2.6043650000001435,3.4119149999996807,4.13823499999944,4.813900000000103,5.50296999999955,6.287325000000237,6.985569999999825,7.69676999999956,8.517504999999801,9.206064999999398,9.974970000000212,10.785885000000235,11.56715499999973,12.301089999999931,12.951489999999467]",space,0.579295,0.0,18.0,18.0,24.0,1.0,,
,,,,,,,,,,,block_2/strong_n_92_4.wav,no,n,strong,92.0,1.480736093,15.18463632,,,,yes,amazon basics HP01,0,No,M,35,R,Yes,1,2020-09-16_12h31.45.449,kura-B2,2020.1.2,Linux x86_64,60,,,,,,,,,,,,,,"[""space"",""space"",""space"",""space"",""space"",""space"",""space"",""space"",""space"",""space"",""space"",""space"",""space"",""space"",""space"",""space"",""space"",""space"",""space"",""space""]","[0.7895749999997861,1.205420000000231,1.8495899999998073,2.5497150000001056,3.209160000000338,3.8481799999999566,4.726130000000012,5.413669999999911,6.138789999999972,6.87844000000041,7.572255000000041,8.268495000000257,8.968135000000075,9.659684999999627,10.40204999999969,11.11556500000006,11.850454999999783,12.552690000000439,13.333525000000009,14.099474999999984]",space,0.90847,0.0,19.0,19.0,34.0,1.0,,
,,,,,,,,,,,block_2/weak_n_72_3.wav,no,n,weak,72.0,1.604938988,17.47283014,,,,yes,amazon basics HP01,0,No,M,35,R,Yes,1,2020-09-16_12h31.45.449,kura-B2,2020.1.2,Linux x86_64,60,,,,,,,,,,,,,,"[""space"",""space"",""space"",""space"",""space"",""space"",""space"",""space"",""space"",""space"",""space"",""space"",""space"",""space"",""space"",""space"",""space"",""space"",""space"",""space"",""space""]","[0.4308500000006461,1.2020950000005541,1.9771300000002157,2.732034999999996,3.4809150000000955,4.201450000000477,5.049780000000283,5.842005000000427,6.573595000000751,7.340480000000753,8.200470000000678,9.00130000000081,9.76760000000013,10.510145000000193,11.253215000000637,12.122130000000652,12.855170000000726,13.62599500000033,14.489175000000614,15.25141000000076,15.973580000000766]",space,1.0451,0.0,20.0,20.0,8.0,1.0,,
,,,,,,,,,,,block_2/strong_n_92_3.wav,no,n,strong,92.0,1.019287146,13.50967263,,,,yes,amazon basics HP01,0,No,M,35,R,Yes,1,2020-09-16_12h31.45.449,kura-B2,2020.1.2,Linux x86_64,60,,,,,,,,,,,,,,"[""space"",""space"",""space"",""space"",""space"",""space"",""space"",""space"",""space"",""space"",""space"",""space"",""space"",""space"",""space"",""space"",""space"",""space"",""space""]","[0.8632550000002084,1.4071899999999005,1.984389999999621,2.5563750000001164,3.1663849999995364,3.793880000000172,4.415589999999611,5.000920000000406,5.632239999999911,6.226419999999962,6.937949999999546,7.5274200000003475,8.126715000000331,8.78801999999996,9.411544999999933,9.989620000000286,10.556649999999536,11.313825000000179,12.00414499999988]",space,4.888745,0.0,21.0,21.0,39.0,1.0,,
,,,,,,,,,,,block_2/medium_n_119_3.wav,no,n,medium,119.0,2.317779723,12.17918562,,,,yes,amazon basics HP01,0,No,M,35,R,Yes,1,2020-09-16_12h31.45.449,kura-B2,2020.1.2,Linux x86_64,60,,,,,,,,,,,,,,"[""space"",""space"",""space"",""space"",""space"",""space"",""space"",""space"",""space"",""space"",""space"",""space"",""space"",""space"",""space"",""space"",""space"",""space"",""space"",""space""]","[0.30530499999986205,0.8391799999999421,1.3881200000005265,1.8868400000001202,2.526230000000396,3.2380849999999555,3.7781000000004497,4.263079999999718,4.759444999999687,5.260379999999714,5.715135000000146,6.183899999999994,6.711554999999862,7.197275000000445,7.681980000000294,8.131194999999934,8.64533500000016,9.08122000000003,9.594320000000153,10.014145000000099]",space,1.539795,0.0,22.0,22.0,22.0,1.0,,
,,,,,,,,,,,block_2/medium_n_119_4.wav,no,n,medium,119.0,1.918272059,10.22534689,,,,yes,amazon basics HP01,0,No,M,35,R,Yes,1,2020-09-16_12h31.45.449,kura-B2,2020.1.2,Linux x86_64,60,,,,,,,,,,,,,,"[""space"",""space"",""space"",""space"",""space"",""space"",""space"",""space"",""space"",""space"",""space"",""space"",""space"",""space"",""space"",""space"",""space"",""space"",""space"",""space""]","[0.4888150000006135,0.8840200000004188,1.254385000000184,1.6228650000002744,1.9849100000001272,2.353840000000673,2.771935000000667,3.181365000000369,3.551300000000083,3.943500000000313,4.333525000000009,4.780405000000428,5.305374999999913,5.78206500000033,6.274060000000645,6.683820000000196,7.1637900000005175,7.622525000000451,7.995735000000423,8.447845000000598]",space,0.90919,0.0,23.0,23.0,17.0,1.0,,
,,,,,,,,,,,block_2/none_n_92_3.wav,no,n,none,92.0,2.008897919,17.90894327,,,,yes,amazon basics HP01,0,No,M,35,R,Yes,1,2020-09-16_12h31.45.449,kura-B2,2020.1.2,Linux x86_64,60,,,,,,,,,,,,,,"[""space"",""space"",""space"",""space"",""space"",""space"",""space"",""space"",""space"",""space"",""space"",""space"",""space"",""space"",""space"",""space"",""space"",""space"",""space"",""space"",""space"",""space"",""space"",""space"",""space"",""space"",""space""]","[0.5335350000004837,0.9302450000004683,1.335385000000315,1.9915150000006179,2.8131350000003295,3.494835000000421,4.08058500000061,4.6451450000004115,5.055065000000468,5.6298100000003615,6.284005000000434,6.92193000000043,7.653535000000375,8.14238000000023,8.706660000000738,9.20486500000061,9.882920000000013,10.419034999999894,10.919025000000147,11.52484000000004,12.143090000000484,12.790205000000242,13.40090500000042,14.013789999999972,14.64267000000018,15.267830000000686,15.75845500000014]",space,0.593665,0.0,24.0,24.0,25.0,1.0,,
,,,,,,,,,,,block_2/strong_n_81_3.wav,no,n,strong,81.0,2.384474622,16.38941793,,,,yes,amazon basics HP01,0,No,M,35,R,Yes,1,2020-09-16_12h31.45.449,kura-B2,2020.1.2,Linux x86_64,60,,,,,,,,,,,,,,"[""space"",""space"",""space"",""space"",""space"",""space"",""space"",""space"",""space"",""space"",""space"",""space"",""space"",""space"",""space"",""space"",""space"",""space"",""space"",""space"",""space""]","[0.3655449999996563,0.7872349999997823,1.4723249999997279,2.1733150000002297,2.830329999999776,3.586269999999786,4.154534999999669,4.90157999999974,5.571834999999737,6.256370000000061,7.029019999999946,7.705169999999271,8.470879999999852,9.201544999999896,9.939689999999246,10.66861499999959,11.364104999999654,12.105854999999792,12.764400000000023,13.483404999999948,14.144784999999501]",space,2.09866,0.0,25.0,25.0,10.0,1.0,,
,,,,,,,,,,,block_2/medium_n_105_4.wav,no,n,medium,105.0,2.115061775,16.52181914,,,,yes,amazon basics HP01,0,No,M,35,R,Yes,1,2020-09-16_12h31.45.449,kura-B2,2020.1.2,Linux x86_64,60,,,,,,,,,,,,,,"[""space"",""space"",""space"",""space"",""space"",""space"",""space"",""space"",""space"",""space"",""space"",""space"",""space"",""space"",""space"",""space"",""space"",""space"",""space"",""space"",""space""]","[0.3147399999998015,0.6527949999999691,1.135005000000092,2.120364999999765,2.8810599999997066,3.6761649999998554,4.482560000000376,5.19700499999999,6.0687950000001365,6.892549999999574,7.555865000000267,8.248104999999669,9.041159999999763,9.691184999999678,10.362210000000232,11.031079999999747,11.72727500000019,12.456070000000182,13.247234999999819,14.012990000000173,14.664319999999861]",space,0.501315,0.0,26.0,26.0,12.0,1.0,,
,,,,,,,,,,,block_2/none_n_105_4.wav,no,n,none,105.0,1.256367297,16.73296594,,,,yes,amazon basics HP01,0,No,M,35,R,Yes,1,2020-09-16_12h31.45.449,kura-B2,2020.1.2,Linux x86_64,60,,,,,,,,,,,,,,"[""space"",""space"",""space"",""space"",""space"",""space"",""space"",""space"",""space"",""space"",""space"",""space"",""space"",""space"",""space"",""space"",""space"",""space"",""space"",""space"",""space"",""space""]","[0.28368499999942287,0.7724899999993795,1.4759399999993548,2.2189199999993434,2.960914999999659,3.794170000000122,4.4783699999998134,5.414914999999382,5.951434999999947,6.577649999999267,7.336729999999989,8.207279999999628,9.032309999999597,9.752534999999625,10.412469999999303,11.07209999999941,11.853279999999359,12.588879999999335,13.322274999999763,14.024265000000014,14.509444999999687,15.167124999999942]",space,0.709745,0.0,27.0,27.0,14.0,1.0,,
,,,,,,,,,,,block_2/medium_n_92_4.wav,no,n,medium,92.0,1.021723279,13.61201806,,,,yes,amazon basics HP01,0,No,M,35,R,Yes,1,2020-09-16_12h31.45.449,kura-B2,2020.1.2,Linux x86_64,60,,,,,,,,,,,,,,"[""space"",""space"",""space"",""space"",""space"",""space"",""space"",""space"",""space"",""space"",""space"",""space"",""space"",""space"",""space"",""space"",""space"",""space"",""space"",""space"",""space""]","[0.3574949999992896,0.8433699999995952,1.4659249999995154,2.1792500000001382,2.7149799999997413,3.3756100000000515,4.056579999999485,4.6543799999999464,5.191954999999325,5.874014999999417,6.280829999999696,6.77331999999933,7.2668699999994715,7.64393999999993,8.381034999999429,9.06041499999992,9.643559999999525,10.254574999999932,10.86054999999942,11.47732999999971,12.161924999999428]",space,0.989735,0.0,28.0,28.0,11.0,1.0,,
,,,,,,,,,,,block_2/strong_n_105_4.wav,no,n,strong,105.0,1.723608797,13.55862014,,,,yes,amazon basics HP01,0,No,M,35,R,Yes,1,2020-09-16_12h31.45.449,kura-B2,2020.1.2,Linux x86_64,60,,,,,,,,,,,,,,"[""space"",""space"",""space"",""space"",""space"",""space"",""space"",""space"",""space"",""space"",""space"",""space"",""space"",""space"",""space"",""space"",""space"",""space"",""space""]","[0.795350000000326,1.295140000000174,1.8661400000000867,2.5138300000007803,3.0851050000001123,3.7101050000001123,4.317880000000514,4.854670000000624,5.368900000000394,5.938430000000153,6.566100000000006,7.164590000000317,7.765900000000329,8.381530000000566,8.94589000000019,9.531945000000633,10.137285000000702,10.771670000000086,11.353950000000623]",space,0.768105,0.0,29.0,29.0,3.0,1.0,,
,,,,,,,,,,,block_2/strong_n_119_4.wav,no,n,strong,119.0,2.003027148,12.07137182,,,,yes,amazon basics HP01,0,No,M,35,R,Yes,1,2020-09-16_12h31.45.449,kura-B2,2020.1.2,Linux x86_64,60,,,,,,,,,,,,,,"[""space"",""space"",""space"",""space"",""space"",""space"",""space"",""space"",""space"",""space"",""space"",""space"",""space"",""space"",""space"",""space"",""space"",""space"",""space"",""space""]","[0.7325300000002244,1.177639999999883,1.6409550000000763,2.105265000000145,2.6112299999992956,3.0592999999998938,3.5577299999995375,4.058949999999641,4.554285000000164,5.088999999999942,5.551445000000058,6.02512999999999,6.566055000000233,7.051634999999806,7.581999999999425,8.070340000000215,8.553820000000087,9.048219999999674,9.503874999999425,10.040469999999914]",space,1.795245,0.0,30.0,30.0,23.0,1.0,,
,,,,,,,,,,,block_2/weak_n_81_4.wav,no,n,weak,81.0,1.139338257,16.19847658,,,,yes,amazon basics HP01,0,No,M,35,R,Yes,1,2020-09-16_12h31.45.449,kura-B2,2020.1.2,Linux x86_64,60,,,,,,,,,,,,,,"[""space"",""space"",""space"",""space"",""space"",""space"",""space"",""space"",""space"",""space"",""space"",""space"",""space"",""space"",""space"",""space"",""space"",""space"",""space"",""space"",""space""]","[0.7175999999999476,1.0940049999999246,1.9079200000005585,2.619995000000017,3.4574400000001333,4.1471449999999095,4.897114999999758,5.69041500000003,6.262260000000424,6.892370000000483,7.539890000000014,8.329569999999876,9.070585000000392,9.834225000000515,10.585909999999785,11.360265000000254,12.05002500000046,12.871135000000322,13.650204999999914,14.44771000000037,15.183105000000069]",space,1.09747,0.0,31.0,31.0,36.0,1.0,,
,,,,,,,,,,,block_2/weak_n_72_4.wav,no,n,weak,72.0,1.671954957,17.64637673,,,,yes,amazon basics HP01,0,No,M,35,R,Yes,1,2020-09-16_12h31.45.449,kura-B2,2020.1.2,Linux x86_64,60,,,,,,,,,,,,,,"[""space"",""space"",""space"",""space"",""space"",""space"",""space"",""space"",""space"",""space"",""space"",""space"",""space"",""space"",""space"",""space"",""space"",""space"",""space"",""space""]","[0.6442950000000565,1.1417449999999008,1.9189000000005763,2.9011800000007497,3.77507500000047,4.627320000000509,5.529559999999947,6.320645000000695,7.10640500000045,7.922055,8.712905000000319,9.494730000000345,10.428625000000466,11.255560000000514,12.027875000000677,12.792285000000447,13.624660000000404,14.473030000000108,15.34626500000013,16.13297000000057]",space,0.886215,0.0,32.0,32.0,4.0,1.0,,
,,,,,,,,,,,block_2/weak_n_81_3.wav,no,n,weak,81.0,2.376095497,17.43405468,,,,yes,amazon basics HP01,0,No,M,35,R,Yes,1,2020-09-16_12h31.45.449,kura-B2,2020.1.2,Linux x86_64,60,,,,,,,,,,,,,,"[""space"",""space"",""space"",""space"",""space"",""space"",""space"",""space"",""space"",""space"",""space"",""space"",""space"",""space"",""space"",""space"",""space"",""space"",""space"",""space"",""space""]","[0.37699999999949796,1.053715000000011,1.744844999999259,2.4775449999997363,3.2197949999999764,4.11029999999937,4.807289999999512,5.564809999999852,6.311079999999492,7.004694999999629,7.748639999999796,8.480019999999968,9.188944999999876,9.96056999999928,10.627129999999852,11.366919999999482,12.052920000000086,12.813325000000077,13.57519499999944,14.259689999999864,15.121294999999918]",space,0.53535,0.0,33.0,33.0,30.0,1.0,,
,,,,,,,,,,,block_2/medium_n_72_4.wav,no,n,medium,72.0,1.35197092,15.86054235,,,,yes,amazon basics HP01,0,No,M,35,R,Yes,1,2020-09-16_12h31.45.449,kura-B2,2020.1.2,Linux x86_64,60,,,,,,,,,,,,,,"[""space"",""space"",""space"",""space"",""space"",""space"",""space"",""space"",""space"",""space"",""space"",""space"",""space"",""space"",""space"",""space"",""space"",""space"",""space""]","[0.49917500000015025,1.4345100000000457,2.1901000000007116,2.9236000000000786,3.6609800000005635,4.280805000000328,4.951195000000553,5.795970000000125,6.573095000000649,7.340990000000602,8.166834999999992,8.93301000000065,9.582190000000082,10.44497500000034,11.06314999999995,11.663954999999987,12.44316500000059,13.10197000000062,13.964835000000676]",space,0.625565,0.0,34.0,34.0,7.0,1.0,,
,,,,,,,,,,,block_2/weak_n_105_4.wav,no,n,weak,105.0,1.277365727,12.0504723,,,,yes,amazon basics HP01,0,No,M,35,R,Yes,1,2020-09-16_12h31.45.449,kura-B2,2020.1.2,Linux x86_64,60,,,,,,,,,,,,,,"[""space"",""space"",""space"",""space"",""space"",""space"",""space"",""space"",""space"",""space"",""space"",""space"",""space"",""space"",""space"",""space"",""space"",""space"",""space"",""space"",""space"",""space""]","[0.2909749999998894,0.7758800000003703,1.1583799999998519,1.585280000000239,1.96058499999981,2.666070000000218,3.2086699999999837,3.7186750000000757,4.270174999999654,4.779599999999846,5.31360500000028,5.761935000000449,6.321394999999939,6.800804999999855,7.361354999999776,7.843200000000252,8.425745000000461,8.963934999999765,9.459549999999581,10.034195000000182,10.505245000000286,10.970164999999724]",space,0.45246,0.0,35.0,35.0,28.0,1.0,,
,,,,,,,,,,,block_2/weak_n_119_4.wav,no,n,weak,119.0,1.653391966,12.42708811,,,,yes,amazon basics HP01,0,No,M,35,R,Yes,1,2020-09-16_12h31.45.449,kura-B2,2020.1.2,Linux x86_64,60,,,,,,,,,,,,,,"[""space"",""space"",""space"",""space"",""space"",""space"",""space"",""space"",""space"",""space"",""space"",""space"",""space"",""space"",""space"",""space"",""space"",""space"",""space"",""space"",""space""]","[0.30227500000000873,0.7393649999994523,1.2444550000000163,1.714469999999892,2.2915149999998903,2.872804999999971,3.440810000000056,4.018245000000206,4.534985000000233,5.013374999999542,5.637619999999515,6.1769550000001345,6.710959999999432,7.243370000000141,7.748419999999896,8.27262999999948,8.815619999999399,9.374829999999747,9.93411500000002,10.418014999999968,11.016869999999471]",space,0.432835,0.0,36.0,36.0,31.0,1.0,,
,,,,,,,,,,,block_2/none_n_81_3.wav,no,n,none,81.0,2.161532659,18.80565964,,,,yes,amazon basics HP01,0,No,M,35,R,Yes,1,2020-09-16_12h31.45.449,kura-B2,2020.1.2,Linux x86_64,60,,,,,,,,,,,,,,"[""space"",""space"",""space"",""space"",""space"",""space"",""space"",""space"",""space"",""space"",""space"",""space"",""space"",""space"",""space"",""space"",""space"",""space"",""space"",""space"",""space"",""space"",""space"",""space"",""space"",""space"",""space"",""space"",""space""]","[0.3885650000001988,0.7793449999999211,1.2743000000000393,1.7925999999997657,2.2996750000002066,2.7968849999997474,3.3370199999999386,3.8338949999997567,4.43224999999984,5.051735000000008,5.708894999999757,6.335224999999809,6.960635000000366,7.538550000000214,8.168165000000045,8.858290000000125,9.434965000000375,9.974970000000212,10.502610000000459,11.034139999999752,11.657365000000027,12.239865000000464,12.776710000000094,13.550040000000081,14.241665000000467,14.85548000000017,15.484994999999799,16.078700000000026,16.704705000000104]",space,0.950945,0.0,37.0,37.0,29.0,1.0,,
,,,,,,,,,,,block_2/none_n_72_3.wav,no,n,none,72.0,2.393872505,24.12062987,,,,yes,amazon basics HP01,0,No,M,35,R,Yes,1,2020-09-16_12h31.45.449,kura-B2,2020.1.2,Linux x86_64,60,,,,,,,,,,,,,,"[""space"",""space"",""space"",""space"",""space"",""space"",""space"",""space"",""space"",""space"",""space"",""space"",""space"",""space"",""space"",""space"",""space"",""space"",""space"",""space"",""space"",""space"",""space"",""space"",""space"",""space"",""space"",""space"",""space"",""space"",""space"",""space"",""space"",""space"",""space"",""space"",""space"",""space"",""space""]","[0.35745000000042637,0.887550000000374,1.3431350000000748,1.8228399999998146,2.4394499999998516,3.0554300000003423,3.759990000000471,4.323575000000346,5.013434999999845,5.575289999999768,6.237830000000031,6.807115000000522,7.34981500000049,7.871789999999919,8.385075000000143,8.903185000000121,9.507465000000593,10.08105500000056,10.698895000000448,11.263700000000426,11.86696000000029,12.432370000000446,13.087199999999939,13.717260000000124,14.323664999999892,14.881720000000087,15.445010000000366,16.01797499999975,16.558320000000094,17.176620000000185,17.722389999999905,18.199024999999892,18.766099999999824,19.25617500000044,19.783274999999776,20.275760000000446,20.822975000000042,21.393135000000257,21.86254999999983]",space,0.71524,0.0,38.0,38.0,18.0,1.0,,
,,,,,,,,,,,block_2/strong_n_119_3.wav,no,n,strong,119.0,2.299979207,12.06555744,,,,yes,amazon basics HP01,0,No,M,35,R,Yes,1,2020-09-16_12h31.45.449,kura-B2,2020.1.2,Linux x86_64,60,,,,,,,,,,,,,,"[""space"",""space"",""space"",""space"",""space"",""space"",""space"",""space"",""space"",""space"",""space"",""space"",""space"",""space"",""space"",""space"",""space"",""space"",""space"",""space"",""space""]","[0.4861750000000029,0.9477799999995113,1.2325349999991886,1.6520049999999173,2.113439999999173,2.5667599999997037,2.9854599999998754,3.4651799999992363,3.96291999999994,4.455029999999169,4.922034999999596,5.405484999999317,5.870614999999816,6.393099999999322,6.853849999999511,7.297024999999849,7.771664999999302,8.305939999999282,8.723889999999301,9.23414999999909,9.71670499999982]",space,0.48234,0.0,39.0,39.0,16.0,1.0,,
,,,,,,,,,,,,,,,,,,,,,yes,amazon basics HP01,0,No,M,35,R,Yes,1,2020-09-16_12h31.45.449,kura-B2,2020.1.2,Linux x86_64,60,,,,,,,,,,,,,,,,,,,,,,,space,14.640715
