key_resp.keys,key_resp.rt,practice_taps.keys,practice_taps.rt,keyresp.keys,keyresp.rt,practice_stims_loop.thisRepN,practice_stims_loop.thisTrialN,practice_stims_loop.thisN,practice_stims_loop.thisIndex,practice_stims_loop.ran,sndfile,type,tempo,cond,version,delay,dur,Participant Initials,"If you are a MTurk worker, what is your MTurk worker ID?","If you are not an MTurk worker, please provide your email address",Are you wearing headphones?,What are the headphone make and model?,"How many years of musical training, if any, do you have?",Do you have any hearing problems? Please describe,What is your sex (f/m/decline)?,What is your age?,What is your handedness (R/L/ambi)?,Are you currently in a secure and quiet room without a possible interruption?,session ,date,expName,psychopyVersion,OS,frameRate,instructions_prompt.keys,instructions_prompt.rt,block1_taps.keys,block1_taps.rt,key_resp_2.keys,key_resp_2.rt,trials.thisRepN,trials.thisTrialN,trials.thisN,trials.thisIndex,trials.ran,key_resp2.keys,key_resp2.rt,block2_taps.keys,block2_taps.rt,key_resp_3.keys,key_resp_3.rt,trials_2.thisRepN,trials_2.thisTrialN,trials_2.thisN,trials_2.thisIndex,trials_2.ran,key_resp_4.keys,key_resp_4.rt
space,24.20358,"[""space"",""space"",""space"",""space"",""space"",""space""]","[3.0677649999270216,4.70167500001844,5.905969999963418,6.894474999979138,8.601369999931194,9.991904999944381]",space,1.58779,0.0,0.0,0.0,3.0,1.0,block_1/medium_t_119_4.wav,timbre,t,medium,119.0,1.752316959,11.57313329,,,,yes,bose qc35,8,no,f,35,L,Yes,1,2020-09-16_12h17.20.371,kura-B2,2020.1.2,Win32,60,,,,,,,,,,,,,,,,,,,,,,,,
,,"[""space"",""space"",""space"",""space"",""space"",""space"",""space"",""space"",""space"",""space"",""space"",""space"",""space"",""space"",""space"",""space""]","[1.9679949999554083,2.822965000057593,3.712210000026971,4.562645000056364,5.5762500000419095,6.57441000000108,7.457784999976866,8.392600000021048,9.268189999973401,10.220515000051819,11.167625000001863,12.134059999953024,13.025514999986626,13.946735000004992,14.807905000052415,15.734790000016801]",space,0.677915,0.0,1.0,1.0,0.0,1.0,block_2/none_n_92_3.wav,no,n,none,92.0,2.306164339,18.20620969,,,,yes,bose qc35,8,no,f,35,L,Yes,1,2020-09-16_12h17.20.371,kura-B2,2020.1.2,Win32,60,,,,,,,,,,,,,,,,,,,,,,,,
,,"[""space"",""space"",""space"",""space"",""space"",""space"",""space"",""space"",""space"",""space"",""space"",""space"",""space"",""space"",""space""]","[0.293695000000298,1.0571150000905618,1.4957600000780076,2.108059999998659,2.7637950000353158,3.6733600000152364,4.617375000030734,5.340390000026673,5.876325000077486,6.818415000103414,7.441645000013523,8.385315000079572,9.004584999987856,10.302224999992177,10.92848000000231]",space,0.545815,0.0,2.0,2.0,2.0,1.0,block_2/weak_n_105_4.wav,no,n,weak,105.0,1.982674472,12.75578105,,,,yes,bose qc35,8,no,f,35,L,Yes,1,2020-09-16_12h17.20.371,kura-B2,2020.1.2,Win32,60,,,,,,,,,,,,,,,,,,,,,,,,
,,"[""space"",""space"",""space"",""space"",""space"",""space"",""space"",""space"",""space"",""space"",""space"",""space"",""space"",""space"",""space"",""space""]","[0.9164899999741465,1.7186699999729171,2.1954050000058487,2.5751999999629334,3.180409999913536,3.5904999999329448,3.892619999940507,4.4375899999868125,4.979519999935292,5.43343500001356,5.863139999913983,6.352299999911338,6.854199999943376,7.2347699999809265,7.70066999993287,8.136744999908842]",space,0.51661,0.0,3.0,3.0,1.0,1.0,block_2/medium_n_119_4.wav,no,n,medium,119.0,1.224634286,9.531709116,,,,yes,bose qc35,8,no,f,35,L,Yes,1,2020-09-16_12h17.20.371,kura-B2,2020.1.2,Win32,60,,,,,,,,,,,,,,,,,,,,,,,,
,,,,,,,,,,,block_1/strong_t_81_4.wav,timbre,t,strong,81.0,1.870008989,16.22765071,,,,yes,bose qc35,8,no,f,35,L,Yes,1,2020-09-16_12h17.20.371,kura-B2,2020.1.2,Win32,60,space,3.597645,"[""space"",""space"",""space"",""space"",""space"",""space"",""space"",""space"",""space"",""space"",""space"",""space"",""space"",""space"",""space"",""space"",""space"",""space"",""space"",""space""]","[0.3789450000040233,1.493434999953024,2.252444999990985,3.0267199999652803,3.7437449999852106,4.521425000042655,5.23925500002224,5.985340000013821,6.683064999990165,7.434430000022985,8.151964999968186,8.857264999998733,9.574930000002496,10.396575000020675,11.149364999961108,11.839350000023842,12.607349999947473,13.302024999982677,14.040060000028461,14.763610000023618]",space,0.614475,0.0,0.0,0.0,34.0,1.0,,,,,,,,,,,,,
,,,,,,,,,,,block_1/medium_t_105_4.wav,timbre,t,medium,105.0,2.498438995,14.23458412,,,,yes,bose qc35,8,no,f,35,L,Yes,1,2020-09-16_12h17.20.371,kura-B2,2020.1.2,Win32,60,,,"[""space"",""space"",""space"",""space"",""space"",""space"",""space"",""space"",""space"",""space""]","[1.4407549999887124,2.090650000027381,2.8592950000893325,3.5688950000330806,5.621420000097714,6.694239999982528,7.89667000004556,9.652485000086017,10.38428500003647,11.468065000022762]",space,0.647475,0.0,1.0,1.0,23.0,1.0,,,,,,,,,,,,,
,,,,,,,,,,,block_1/none_t_81_3.wav,timbre,t,none,81.0,2.10326082,21.36648077,,,,yes,bose qc35,8,no,f,35,L,Yes,1,2020-09-16_12h17.20.371,kura-B2,2020.1.2,Win32,60,,,"[""space"",""space"",""space"",""space"",""space"",""space"",""space"",""space"",""space"",""space"",""space"",""space"",""space"",""space"",""space""]","[0.8947349999798462,1.6635199999436736,2.534144999925047,3.960899999947287,5.303334999945946,6.419690000009723,7.633655000012368,8.95484999998007,10.272439999971539,11.331209999974817,12.740244999993593,14.1619649999775,15.74105499999132,17.276194999925792,18.951245000003837]",space,0.418405,0.0,2.0,2.0,10.0,1.0,,,,,,,,,,,,,
,,,,,,,,,,,block_1/none_t_119_4.wav,timbre,t,none,119.0,1.977931805,11.04042614,,,,yes,bose qc35,8,no,f,35,L,Yes,1,2020-09-16_12h17.20.371,kura-B2,2020.1.2,Win32,60,,,"[""space"",""space"",""space"",""space"",""space"",""space"",""space"",""space"",""space""]","[0.7727200000081211,1.51156000001356,2.3707749999593943,2.9663500000024214,4.138534999918193,5.200994999962859,6.291334999958053,7.53132499998901,8.676570000010543]",space,1.367995,0.0,3.0,3.0,27.0,1.0,,,,,,,,,,,,,
,,,,,,,,,,,block_1/strong_t_105_4.wav,timbre,t,strong,105.0,2.094581561,12.21235934,,,,yes,bose qc35,8,no,f,35,L,Yes,1,2020-09-16_12h17.20.371,kura-B2,2020.1.2,Win32,60,,,"[""space"",""space"",""space"",""space"",""space"",""space"",""space"",""space"",""space"",""space"",""space"",""space"",""space"",""space"",""space"",""space"",""space"",""space"",""space"",""space""]","[1.112044999958016,1.4774349998915568,1.8732299999101087,2.335414999979548,2.8537299999734387,3.35187999997288,3.797915000002831,4.370484999963082,4.827049999963492,5.321199999889359,5.861294999951497,6.357529999921098,6.836219999939203,7.341819999972358,7.86956999998074,8.359364999923855,8.827429999946617,9.33861499989871,9.84981499996502,10.416769999894314]",space,0.694835,0.0,4.0,4.0,18.0,1.0,,,,,,,,,,,,,
,,,,,,,,,,,block_1/strong_t_119_4.wav,timbre,t,strong,119.0,1.237037075,11.10492823,,,,yes,bose qc35,8,no,f,35,L,Yes,1,2020-09-16_12h17.20.371,kura-B2,2020.1.2,Win32,60,,,"[""space"",""space"",""space"",""space"",""space"",""space"",""space"",""space"",""space"",""space"",""space"",""space"",""space"",""space"",""space"",""space"",""space"",""space"",""space"",""space""]","[0.5178199999500066,1.0093649999471381,1.4808450000127777,2.0345749999396503,2.5191300000296906,2.9523849999532104,3.510729999979958,4.040900000021793,4.5590350000420585,4.943869999959134,5.533919999958016,6.067339999950491,6.6009049999993294,7.101385000045411,7.549914999981411,8.046375000034459,8.582915000035428,9.106499999994412,9.621539999963716,10.14461499999743]",space,0.50678,0.0,5.0,5.0,39.0,1.0,,,,,,,,,,,,,
,,,,,,,,,,,block_1/weak_t_81_4.wav,timbre,t,weak,81.0,2.31768599,15.5134683,,,,yes,bose qc35,8,no,f,35,L,Yes,1,2020-09-16_12h17.20.371,kura-B2,2020.1.2,Win32,60,,,"[""space"",""space"",""space"",""space"",""space"",""space"",""space"",""space"",""space"",""space"",""space"",""space"",""space"",""space"",""space"",""space"",""space"",""space"",""space"",""space""]","[0.43434000003617257,1.0982249999651685,1.7453799999784678,2.361750000040047,2.9696250000270084,3.6291249999776483,4.262334999977611,4.928459999966435,5.605375000042841,6.254214999964461,6.89730499999132,7.550524999969639,8.256939999992028,8.913655000040308,9.549879999947734,10.210775000043213,10.887164999963716,11.626040000002831,12.352330000023358,12.97227499994915]",space,0.483785,0.0,6.0,6.0,0.0,1.0,,,,,,,,,,,,,
,,,,,,,,,,,block_1/none_t_92_4.wav,timbre,t,none,92.0,2.400883628,17.24192671,,,,yes,bose qc35,8,no,f,35,L,Yes,1,2020-09-16_12h17.20.371,kura-B2,2020.1.2,Win32,60,,,"[""space"",""space"",""space"",""space"",""space"",""space"",""space"",""space"",""space"",""space"",""space"",""space"",""space"",""space"",""space"",""space"",""space"",""space"",""space"",""space"",""space"",""space"",""space"",""space"",""space"",""space""]","[0.247220000019297,0.7447150000371039,1.2367450000019744,1.8684750000247732,2.450605000020005,2.9920299999648705,3.5353200000245124,4.142705000005662,4.762525000027381,5.304080000030808,5.849864999996498,6.484969999990426,7.141654999926686,7.729259999934584,8.316965000005439,8.918345000012778,9.478909999947064,10.026725000003353,10.618644999922253,11.160369999939576,11.78325999993831,12.374285000027157,12.936164999962784,13.467255000025034,14.07192000001669,14.526439999928698]",space,0.63581,0.0,7.0,7.0,22.0,1.0,,,,,,,,,,,,,
,,,,,,,,,,,block_1/none_t_81_4.wav,timbre,t,none,81.0,1.802900323,17.84380735,,,,yes,bose qc35,8,no,f,35,L,Yes,1,2020-09-16_12h17.20.371,kura-B2,2020.1.2,Win32,60,,,"[""space"",""space"",""space"",""space"",""space"",""space"",""space"",""space"",""space"",""space"",""space"",""space"",""space"",""space"",""space"",""space"",""space"",""space"",""space"",""space"",""space"",""space"",""space"",""space"",""space"",""space"",""space"",""space""]","[0.2099150000140071,0.700609999941662,1.2420949999941513,1.7077949999365956,2.2839549999916926,2.839445000048727,3.4465100000379607,4.082939999992959,4.659699999960139,5.243125000037253,5.875445000012405,6.508170000044629,6.9543099999427795,7.559499999973923,8.094279999961145,8.633150000008754,9.202000000048429,9.68440000002738,10.129070000024512,10.54117999994196,11.234709999989718,11.942369999946095,12.599599999957718,13.278339999960735,13.893960000015795,14.512959999963641,15.127014999976382,15.71909000002779]",space,0.756775,0.0,8.0,8.0,12.0,1.0,,,,,,,,,,,,,
,,,,,,,,,,,block_1/none_t_119_3.wav,timbre,t,none,119.0,1.169893331,12.28885025,,,,yes,bose qc35,8,no,f,35,L,Yes,1,2020-09-16_12h17.20.371,kura-B2,2020.1.2,Win32,60,,,"[""space"",""space"",""space"",""space"",""space"",""space"",""space"",""space"",""space"",""space"",""space"",""space"",""space"",""space"",""space"",""space"",""space"",""space"",""space"",""space"",""space"",""space"",""space"",""space"",""space"",""space"",""space"",""space"",""space"",""space"",""space""]","[0.2806649999693036,0.7038099999772385,1.2430099999764934,1.6801350000314415,2.072870000032708,2.47027499997057,2.8483349999878556,3.274955000029877,3.664035000023432,4.04246000002604,4.418044999940321,4.847754999995232,5.180670000030659,5.545105000026524,5.907409999985248,6.292939999955706,6.660774999996647,7.027140000020154,7.4090350000187755,7.785195000004023,8.160825000028126,8.467199999955483,8.812184999929741,9.125125000020489,9.444249999942258,9.780834999983199,10.05686999997124,10.34167500003241,10.696334999985993,11.037969999946654,11.41050500003621]",space,0.70724,0.0,9.0,9.0,32.0,1.0,,,,,,,,,,,,,
,,,,,,,,,,,block_1/medium_t_119_4.wav,timbre,t,medium,119.0,1.399295551,11.22011188,,,,yes,bose qc35,8,no,f,35,L,Yes,1,2020-09-16_12h17.20.371,kura-B2,2020.1.2,Win32,60,,,"[""space"",""space"",""space"",""space"",""space"",""space"",""space"",""space"",""space"",""space"",""space"",""space"",""space"",""space"",""space"",""space"",""space"",""space"",""space""]","[0.19849999994039536,0.6459249999606982,1.266730000032112,1.8789249999681488,2.5339849999872968,3.1110150000313297,3.617104999953881,4.1166400000220165,4.607869999948889,5.107255000039004,5.6801500000292435,6.2945749999489635,6.863649999955669,7.3782849999843165,7.82883499993477,8.359375,8.8718349999981,9.412234999937937,10.005284999962896]",space,0.53573,0.0,10.0,10.0,30.0,1.0,,,,,,,,,,,,,
,,,,,,,,,,,block_1/medium_t_81_3.wav,timbre,t,medium,81.0,1.352794873,13.94617356,,,,yes,bose qc35,8,no,f,35,L,Yes,1,2020-09-16_12h17.20.371,kura-B2,2020.1.2,Win32,60,,,"[""space"",""space"",""space"",""space"",""space"",""space"",""space"",""space"",""space"",""space"",""space"",""space"",""space"",""space"",""space"",""space"",""space"",""space"",""space"",""space"",""space"",""space"",""space"",""space""]","[0.2180050000315532,0.6552649999503046,1.1239000000059605,1.6842000000178814,2.1180399999720976,2.6083050000015646,3.1180800000438467,3.6428000000305474,4.192440000013448,4.679699999978766,5.2220600000582635,5.617820000043139,6.249685000046156,6.816385000012815,7.400054999976419,7.984135000035167,8.492440000060014,9.085560000035912,9.603884999989532,10.22369500005152,10.904044999973848,11.607554999995045,12.291035000002012,12.840414999984205]",space,0.51983,0.0,11.0,11.0,8.0,1.0,,,,,,,,,,,,,
,,,,,,,,,,,block_1/medium_t_105_3.wav,timbre,t,medium,105.0,1.131854181,11.90867958,,,,yes,bose qc35,8,no,f,35,L,Yes,1,2020-09-16_12h17.20.371,kura-B2,2020.1.2,Win32,60,,,"[""space"",""space"",""space"",""space"",""space"",""space"",""space"",""space"",""space"",""space"",""space"",""space"",""space"",""space"",""space"",""space"",""space"",""space"",""space"",""space"",""space""]","[0.20087499998044223,0.7073800000362098,1.4343799999915063,1.7709249999606982,2.2214900000253692,2.810395000036806,3.3770400000503287,3.975910000037402,4.464369999943301,5.009704999974929,5.569535000016913,6.1405350000131875,6.651004999992438,7.225055000046268,7.728920000023209,8.316095000016503,8.871829999960028,9.43366999994032,9.971784999943338,10.47831000003498,11.024669999955222]",space,0.537125,0.0,12.0,12.0,16.0,1.0,,,,,,,,,,,,,
,,,,,,,,,,,block_1/weak_t_72_3.wav,timbre,t,weak,72.0,1.571303333,17.03996546,,,,yes,bose qc35,8,no,f,35,L,Yes,1,2020-09-16_12h17.20.371,kura-B2,2020.1.2,Win32,60,,,"[""space"",""space"",""space"",""space"",""space"",""space"",""space"",""space"",""space"",""space"",""space"",""space"",""space"",""space"",""space"",""space"",""space"",""space"",""space"",""space"",""space"",""space"",""space""]","[0.2099400000879541,0.6941550000337884,1.2957850000821054,1.839490000042133,2.2948900000192225,2.8355400000000373,3.3964949999935925,4.162840000004508,4.881150000030175,5.531415000092238,6.2694050000282004,7.001359999994747,7.801620000042021,8.651160000008531,9.51127500005532,10.257390000042506,11.088530000066385,11.826860000030138,12.696545000071637,13.506114999996498,14.267440000083297,15.012145000044256,15.713265000027604]",space,0.645665,0.0,13.0,13.0,26.0,1.0,,,,,,,,,,,,,
,,,,,,,,,,,block_1/weak_t_105_3.wav,timbre,t,weak,105.0,2.038080476,13.26905553,,,,yes,bose qc35,8,no,f,35,L,Yes,1,2020-09-16_12h17.20.371,kura-B2,2020.1.2,Win32,60,,,"[""space"",""space"",""space"",""space"",""space"",""space"",""space"",""space"",""space"",""space"",""space"",""space"",""space"",""space"",""space"",""space"",""space"",""space"",""space""]","[0.37031499994918704,1.036820000037551,1.7267350000329316,2.3006899999454618,2.9936750000342727,3.701699999975972,4.2409249999327585,4.762954999925569,5.280440000002272,5.894514999934472,6.433779999963008,7.036974999937229,7.622869999962859,8.151854999945499,8.793880000011995,9.28105999995023,9.839855000027455,10.421824999968521,10.98460999992676]",space,0.254125,0.0,14.0,14.0,4.0,1.0,,,,,,,,,,,,,
,,,,,,,,,,,block_1/strong_t_119_3.wav,timbre,t,strong,119.0,1.722630655,12.55029505,,,,yes,bose qc35,8,no,f,35,L,Yes,1,2020-09-16_12h17.20.371,kura-B2,2020.1.2,Win32,60,,,"[""space"",""space"",""space"",""space"",""space"",""space"",""space"",""space"",""space"",""space"",""space"",""space"",""space"",""space"",""space"",""space"",""space"",""space"",""space"",""space""]","[0.2619249999988824,1.0179599999682978,1.6102100000716746,2.11750499997288,2.6863300000550225,3.296794999972917,3.826520000002347,4.391320000053383,4.964129999978468,5.472429999965243,6.053309999988414,6.600624999962747,7.190814999979921,7.741035000071861,8.275765000027604,8.840345000033267,9.418840000056662,9.991280000074767,10.585734999971464,11.10800999996718]",space,0.2258,0.0,15.0,15.0,28.0,1.0,,,,,,,,,,,,,
,,,,,,,,,,,block_1/medium_t_72_3.wav,timbre,t,medium,72.0,2.203768917,18.98399567,,,,yes,bose qc35,8,no,f,35,L,Yes,1,2020-09-16_12h17.20.371,kura-B2,2020.1.2,Win32,60,,,"[""space"",""space"",""space"",""space"",""space"",""space"",""space"",""space"",""space"",""space"",""space"",""space"",""space"",""space"",""space"",""space"",""space"",""space"",""space"",""space""]","[0.2689300000201911,0.7580699999816716,1.743360000080429,2.6152599999913946,3.4743299999972805,4.328994999988936,5.233450000057928,6.081000000005588,6.937170000048354,7.737425000057556,8.583390000043437,9.466635000077076,10.304820000077598,11.201255000079982,12.045505000045523,12.836420000065118,13.742120000068098,14.544044999987818,15.501604999997653,16.391554999980144]",space,0.517675,0.0,16.0,16.0,31.0,1.0,,,,,,,,,,,,,
,,,,,,,,,,,block_1/weak_t_105_4.wav,timbre,t,weak,105.0,1.882880114,13.41285744,,,,yes,bose qc35,8,no,f,35,L,Yes,1,2020-09-16_12h17.20.371,kura-B2,2020.1.2,Win32,60,,,"[""space"",""space"",""space"",""space"",""space"",""space"",""space"",""space"",""space"",""space"",""space"",""space"",""space"",""space"",""space"",""space"",""space"",""space"",""space"",""space"",""space""]","[0.2749949999852106,0.9937849999405444,1.5558999999193475,2.1260299999266863,2.6799299999838695,3.27176499995403,3.8091899999417365,4.385109999915585,4.9273449999745935,5.451424999977462,5.984055000008084,6.508319999906234,7.026509999996051,7.599794999929145,8.240185000002384,8.849634999991395,9.385015000007115,9.987979999976233,10.492984999902546,11.009539999999106,11.694484999985434]",space,0.986835,0.0,17.0,17.0,7.0,1.0,,,,,,,,,,,,,
,,,,,,,,,,,block_1/strong_t_105_3.wav,timbre,t,strong,105.0,1.518747526,13.05135524,,,,yes,bose qc35,8,no,f,35,L,Yes,1,2020-09-16_12h17.20.371,kura-B2,2020.1.2,Win32,60,,,"[""space"",""space"",""space"",""space"",""space"",""space"",""space"",""space"",""space"",""space"",""space"",""space"",""space"",""space"",""space"",""space"",""space"",""space"",""space"",""space"",""space""]","[0.27353499992750585,0.7685099999653175,1.2343049999326468,1.7476499999174848,2.3886400000192225,3.010894999955781,3.5856699999421835,4.18461999995634,4.753550000023097,5.342599999974482,5.89936999999918,6.5469399999128655,7.029095000005327,7.7038249999750406,8.235304999980144,8.851999999955297,9.445049999980256,10.05742999992799,10.627794999978505,11.226565000019036,11.890814999933355]",space,0.437575,0.0,18.0,18.0,21.0,1.0,,,,,,,,,,,,,
,,,,,,,,,,,block_1/weak_t_72_4.wav,timbre,t,weak,72.0,1.01386198,17.48964429,,,,yes,bose qc35,8,no,f,35,L,Yes,1,2020-09-16_12h17.20.371,kura-B2,2020.1.2,Win32,60,,,"[""space"",""space"",""space"",""space"",""space"",""space"",""space"",""space"",""space"",""space"",""space"",""space"",""space"",""space"",""space"",""space"",""space"",""space"",""space"",""space""]","[0.21895499993115664,0.7512349999742582,1.7633499999064952,2.7756550000049174,3.6623649999964982,4.468784999917261,5.277284999960102,6.125039999955334,6.971404999960214,7.76075499993749,8.584779999917373,9.417774999979883,10.335634999908507,11.114034999976866,11.904449999914505,12.726915000006557,13.63023000000976,14.478194999974221,15.406714999931864,16.292849999968894]",space,0.41621,0.0,19.0,19.0,33.0,1.0,,,,,,,,,,,,,
,,,,,,,,,,,block_1/none_t_72_3.wav,timbre,t,none,72.0,1.707698408,21.90234693,,,,yes,bose qc35,8,no,f,35,L,Yes,1,2020-09-16_12h17.20.371,kura-B2,2020.1.2,Win32,60,,,"[""space"",""space"",""space"",""space"",""space"",""space"",""space"",""space"",""space"",""space"",""space"",""space"",""space"",""space"",""space"",""space"",""space"",""space"",""space"",""space"",""space"",""space"",""space"",""space"",""space""]","[0.22770499996840954,0.8029699999606237,1.646199999959208,2.5354199999710545,3.3583999999100342,4.1694299998926,5.000024999957532,5.813569999998435,6.628849999979138,7.4780799999134615,8.280119999893941,9.146384999970905,9.963579999981448,10.75380999990739,11.600739999907091,12.391029999940656,13.201184999896213,14.012579999980517,14.879589999909513,15.642189999925904,16.479809999931604,17.24119999993127,18.0826249999227,18.909609999973327,19.81094499991741]",space,0.501675,0.0,20.0,20.0,19.0,1.0,,,,,,,,,,,,,
,,,,,,,,,,,block_1/weak_t_119_4.wav,timbre,t,weak,119.0,1.438381355,12.04736095,,,,yes,bose qc35,8,no,f,35,L,Yes,1,2020-09-16_12h17.20.371,kura-B2,2020.1.2,Win32,60,,,"[""space"",""space"",""space"",""space"",""space"",""space"",""space"",""space"",""space"",""space"",""space"",""space"",""space"",""space"",""space"",""space"",""space"",""space"",""space"",""space"",""space""]","[0.28107999998610467,0.8190849999664351,1.468875000020489,2.0834999999497086,2.625014999997802,3.1691599999321625,3.7785750000039116,4.301644999999553,4.7446999999228865,5.224474999937229,5.831464999937452,6.250619999947958,6.744999999995343,7.327739999978803,7.830405000015162,8.309750000014901,8.890239999978803,9.301119999960065,9.879744999925606,10.344169999938458,10.82918499992229]",space,0.443415,0.0,21.0,21.0,11.0,1.0,,,,,,,,,,,,,
,,,,,,,,,,,block_1/strong_t_92_4.wav,timbre,t,strong,92.0,1.022726917,13.26377,,,,yes,bose qc35,8,no,f,35,L,Yes,1,2020-09-16_12h17.20.371,kura-B2,2020.1.2,Win32,60,,,"[""space"",""space"",""space"",""space"",""space"",""space"",""space"",""space"",""space"",""space"",""space"",""space"",""space"",""space"",""space"",""space"",""space"",""space"",""space"",""space""]","[0.6465049999533221,1.0756050000200048,1.727130000013858,2.362100000027567,2.9682050000410527,3.5200950000435114,4.280185000039637,5.123410000000149,5.578710000030696,6.191089999978431,6.843920000013895,7.45112500002142,8.094719999935478,8.816495000035502,9.422060000011697,10.044740000041202,10.618720000027679,11.296244999975897,11.918889999971725,12.52120499999728]",space,0.833725,0.0,22.0,22.0,9.0,1.0,,,,,,,,,,,,,
,,,,,,,,,,,block_1/weak_t_92_4.wav,timbre,t,weak,92.0,1.530875014,13.01332399,,,,yes,bose qc35,8,no,f,35,L,Yes,1,2020-09-16_12h17.20.371,kura-B2,2020.1.2,Win32,60,,,"[""space"",""space"",""space"",""space"",""space"",""space"",""space"",""space"",""space"",""space"",""space"",""space"",""space"",""space"",""space"",""space"",""space"",""space"",""space"",""space"",""space""]","[0.33849500003270805,0.6850700000068173,1.2733700000680983,1.9165950000751764,2.501864999998361,3.118680000072345,3.6946650000754744,4.174985000048764,4.787565000005998,5.351050000055693,5.9677600000286475,6.55745000008028,7.117584999999963,7.684295000042766,8.287825000006706,8.891784999985248,9.42894500005059,10.013449999969453,10.506760000018403,11.107315000030212,11.711770000052638]",space,0.054815,0.0,23.0,23.0,29.0,1.0,,,,,,,,,,,,,
,,,,,,,,,,,block_1/none_t_72_4.wav,timbre,t,none,72.0,1.772355542,25.47190203,,,,yes,bose qc35,8,no,f,35,L,Yes,1,2020-09-16_12h17.20.371,kura-B2,2020.1.2,Win32,60,,,"[""space"",""space"",""space"",""space"",""space"",""space"",""space"",""space"",""space"",""space"",""space"",""space"",""space"",""space"",""space"",""space"",""space"",""space"",""space"",""space"",""space"",""space"",""space"",""space"",""space"",""space"",""space"",""space"",""space"",""space"",""space"",""space"",""space"",""space"",""space"",""space"",""space"",""space"",""space"",""space"",""space""]","[0.3647949999431148,0.8529850000049919,1.3900399999693036,1.9497699999483302,2.501509999972768,3.1411000000080094,3.771614999976009,4.371870000031777,4.9648700000252575,5.62175000004936,6.160550000029616,6.7790599999716505,7.361709999968298,7.939944999990985,8.551029999973252,9.149830000009388,9.720300000044517,10.269179999944754,10.785135000012815,11.382935000001453,12.013980000047013,12.608030000003055,13.234395000035875,13.810429999954067,14.390320000005886,14.984835000010207,15.560979999951087,16.08837000001222,16.629925000015646,17.144835000042804,17.734479999984615,18.290275000035763,18.861260000034235,19.436974999960512,19.958379999967292,20.53408000001218,21.117149999947287,21.749680000008084,22.354805000009947,22.917795000015758,23.53436499997042]",space,0.33647,0.0,24.0,24.0,15.0,1.0,,,,,,,,,,,,,
,,,,,,,,,,,block_1/weak_t_81_3.wav,timbre,t,weak,81.0,1.53156375,17.80117826,,,,yes,bose qc35,8,no,f,35,L,Yes,1,2020-09-16_12h17.20.371,kura-B2,2020.1.2,Win32,60,,,"[""space"",""space"",""space"",""space"",""space"",""space"",""space"",""space"",""space"",""space"",""space"",""space"",""space"",""space"",""space"",""space"",""space"",""space"",""space"",""space"",""space"",""space"",""space"",""space""]","[0.38569000002462417,0.9472049999749288,1.6711199999554083,2.543599999975413,3.3960649999789894,4.159110000007786,4.9263750000391155,5.59230000001844,6.274390000035055,6.9670550000155345,7.627214999985881,8.276715000043623,9.07020499999635,9.784390000044368,10.458499999949709,11.05719500000123,11.744534999947064,12.346589999971911,13.08941999997478,13.733074999996461,14.409704999998212,15.02711999998428,15.649549999972805,16.344045000034384]",space,0.370895,0.0,25.0,25.0,6.0,1.0,,,,,,,,,,,,,
,,,,,,,,,,,block_1/medium_t_92_4.wav,timbre,t,medium,92.0,1.590939721,14.58753836,,,,yes,bose qc35,8,no,f,35,L,Yes,1,2020-09-16_12h17.20.371,kura-B2,2020.1.2,Win32,60,,,"[""space"",""space"",""space"",""space"",""space"",""space"",""space"",""space"",""space"",""space"",""space"",""space"",""space"",""space"",""space"",""space"",""space"",""space"",""space"",""space"",""space""]","[0.3083150000311434,0.77530000009574,1.3457900000503287,2.061900000087917,2.7132100000744686,3.383555000065826,3.9834550000960007,4.629655000055209,5.227165000047535,6.032950000022538,6.624690000084229,7.33906000002753,7.942155000055209,8.639865000033751,9.363095000036992,10.02213500009384,10.808554999995977,11.371039999998175,11.996099999989383,12.666215000092052,13.308745000045747]",space,0.49665,0.0,26.0,26.0,25.0,1.0,,,,,,,,,,,,,
,,,,,,,,,,,block_1/none_t_105_3.wav,timbre,t,none,105.0,2.248615294,16.06934092,,,,yes,bose qc35,8,no,f,35,L,Yes,1,2020-09-16_12h17.20.371,kura-B2,2020.1.2,Win32,60,,,"[""space"",""space"",""space"",""space"",""space"",""space"",""space"",""space"",""space"",""space"",""space"",""space"",""space"",""space"",""space"",""space"",""space"",""space"",""space"",""space"",""space"",""space"",""space""]","[0.3181849999818951,0.81738000002224,1.4195349999936298,2.015060000005178,2.6677899999776855,3.3195899999700487,3.9887849999358878,4.633599999942817,5.253099999972619,5.951579999993555,6.62871499999892,7.255245000007562,7.811965000000782,8.357869999948889,8.97225500002969,9.500134999980219,10.093439999967813,10.751214999938384,11.285245000035502,11.907370000029914,12.483310000039637,13.035614999942482,13.65695999993477]",space,0.36255,0.0,27.0,27.0,14.0,1.0,,,,,,,,,,,,,
,,,,,,,,,,,block_1/weak_t_119_3.wav,timbre,t,weak,119.0,1.729530605,11.14109523,,,,yes,bose qc35,8,no,f,35,L,Yes,1,2020-09-16_12h17.20.371,kura-B2,2020.1.2,Win32,60,,,"[""space"",""space"",""space"",""space"",""space"",""space"",""space"",""space"",""space"",""space"",""space"",""space"",""space"",""space"",""space""]","[0.22643000003881752,0.7742400000570342,1.391120000043884,2.0543349999934435,2.742614999995567,3.409929999965243,4.088274999987334,4.738690000027418,5.355645000003278,5.895675000036135,6.607154999976046,7.2299999999813735,7.909289999981411,8.51831499999389,9.16788500000257]",space,0.449995,0.0,28.0,28.0,13.0,1.0,,,,,,,,,,,,,
,,,,,,,,,,,block_1/strong_t_72_3.wav,timbre,t,strong,72.0,1.503157527,17.98057249,,,,yes,bose qc35,8,no,f,35,L,Yes,1,2020-09-16_12h17.20.371,kura-B2,2020.1.2,Win32,60,,,"[""space"",""space"",""space"",""space"",""space"",""space"",""space"",""space"",""space"",""space"",""space"",""space"",""space"",""space"",""space"",""space"",""space"",""space"",""space"",""space"",""space""]","[0.3713050000369549,0.814505000016652,1.7235700000310317,2.60576500010211,3.4087300000246614,4.285670000012033,5.01354000007268,5.92460500006564,6.727200000081211,8.000285000074655,8.550405000103638,9.341960000107065,10.194440000108443,11.057310000061989,11.796740000019781,12.750175000051968,13.544764999998733,14.334340000059456,15.172935000038706,16.068230000091717,16.952155000064522]",space,0.718685,0.0,29.0,29.0,5.0,1.0,,,,,,,,,,,,,
,,,,,,,,,,,block_1/strong_t_92_3.wav,timbre,t,strong,92.0,1.987733848,15.03440052,,,,yes,bose qc35,8,no,f,35,L,Yes,1,2020-09-16_12h17.20.371,kura-B2,2020.1.2,Win32,60,,,"[""space"",""space"",""space"",""space"",""space"",""space"",""space"",""space"",""space"",""space"",""space"",""space"",""space"",""space"",""space"",""space"",""space"",""space"",""space"",""space"",""space""]","[0.3841350000584498,0.8605150000657886,1.4288950000191107,2.083585000014864,2.7683449999894947,3.4330400000326335,4.056620000046678,4.759610000066459,5.3576100000645965,6.011690000072122,6.746875000069849,7.467750000068918,8.173999999999069,8.771645000088029,9.36757000000216,10.055305000045337,10.750460000010207,11.370380000094883,12.021435000002384,12.8219950000057,13.418260000064038]",space,0.44768,0.0,30.0,30.0,3.0,1.0,,,,,,,,,,,,,
,,,,,,,,,,,block_1/none_t_92_3.wav,timbre,t,none,92.0,1.813425609,13.88349364,,,,yes,bose qc35,8,no,f,35,L,Yes,1,2020-09-16_12h17.20.371,kura-B2,2020.1.2,Win32,60,,,"[""space"",""space"",""space"",""space"",""space"",""space"",""space"",""space"",""space"",""space"",""space"",""space"",""space"",""space"",""space"",""space"",""space"",""space"",""space"",""space""]","[0.2517150000203401,0.6855649999342859,1.2966249999590218,1.9000499999383464,2.459015000029467,3.1226599999936298,3.768945000017993,4.440004999982193,5.120140000013635,5.725879999925382,6.350484999944456,6.985389999928884,7.600134999956936,8.166250000009313,8.76113500003703,9.403259999933653,10.029390000039712,10.593649999937043,11.24456000002101,11.872474999981932]",space,0.443295,0.0,31.0,31.0,17.0,1.0,,,,,,,,,,,,,
,,,,,,,,,,,block_1/medium_t_119_3.wav,timbre,t,medium,119.0,2.226222359,10.98477111,,,,yes,bose qc35,8,no,f,35,L,Yes,1,2020-09-16_12h17.20.371,kura-B2,2020.1.2,Win32,60,,,"[""space"",""space"",""space"",""space"",""space"",""space"",""space"",""space"",""space"",""space"",""space"",""space"",""space"",""space"",""space"",""space"",""space"",""space"",""space"",""space""]","[0.3714250000193715,0.8174550000112504,1.3519500000402331,1.8094649999402463,2.273425000021234,2.7195150000043213,3.1677449999842793,3.6227499999804422,4.000929999980144,4.455334999947809,4.8574749999679625,5.299684999976307,5.80230500001926,6.321615000022575,6.722880000015721,7.168255000025965,7.651489999960177,8.101105000008829,8.528879999998026,8.938429999980144]",space,0.46418,0.0,32.0,32.0,37.0,1.0,,,,,,,,,,,,,
,,,,,,,,,,,block_1/none_t_105_4.wav,timbre,t,none,105.0,1.782068205,15.59785052,,,,yes,bose qc35,8,no,f,35,L,Yes,1,2020-09-16_12h17.20.371,kura-B2,2020.1.2,Win32,60,,,"[""space"",""space"",""space"",""space"",""space"",""space"",""space"",""space"",""space"",""space"",""space"",""space"",""space"",""space"",""space"",""space"",""space"",""space"",""space"",""space"",""space"",""space"",""space"",""space"",""space"",""space"",""space"",""space""]","[0.42177999997511506,0.8811149999964982,1.3523800000548363,1.858089999994263,2.3517249999567866,2.8432050000410527,3.343720000004396,3.8779250000370666,4.397065000026487,4.862605000031181,5.370084999944083,5.840790000045672,6.3637650000164285,6.807954999967478,7.292860000045039,7.7243999999482185,8.305930000031367,8.793964999960735,9.18522500002291,9.716329999966547,10.168429999961518,10.675419999985024,11.280404999968596,11.78867999999784,12.19932500005234,12.783449999988079,13.257330000051297,13.749689999967813]",space,0.635255,0.0,33.0,33.0,20.0,1.0,,,,,,,,,,,,,
,,,,,,,,,,,block_1/strong_t_72_4.wav,timbre,t,strong,72.0,1.194355845,16.3115894,,,,yes,bose qc35,8,no,f,35,L,Yes,1,2020-09-16_12h17.20.371,kura-B2,2020.1.2,Win32,60,,,"[""space"",""space"",""space"",""space"",""space"",""space"",""space"",""space"",""space"",""space"",""space"",""space"",""space"",""space"",""space"",""space"",""space"",""space"",""space"",""space""]","[0.7737399999750778,1.1914749999996275,2.1147349999519065,2.9685249999165535,3.71738499996718,4.511464999988675,5.238879999960773,6.080599999986589,6.835359999909997,7.636779999942519,8.402029999997467,9.324869999894872,9.977639999939129,10.761554999975488,11.490154999890365,12.412414999911562,13.13926999992691,13.971489999908954,14.700454999925569,15.472609999938868]",space,0.51426,0.0,34.0,34.0,1.0,1.0,,,,,,,,,,,,,
,,,,,,,,,,,block_1/weak_t_92_3.wav,timbre,t,weak,92.0,1.190820523,16.55263458,,,,yes,bose qc35,8,no,f,35,L,Yes,1,2020-09-16_12h17.20.371,kura-B2,2020.1.2,Win32,60,,,"[""space"",""space"",""space"",""space"",""space"",""space"",""space"",""space"",""space"",""space"",""space"",""space"",""space"",""space"",""space"",""space"",""space"",""space"",""space"",""space"",""space"",""space"",""space"",""space"",""space""]","[0.27506500005256385,0.7012600000016391,1.263145000091754,2.0017900000093505,2.6669850000180304,3.2931899999966845,3.902654999983497,4.5133750000968575,5.221780000021681,5.822975000017323,6.388849999988452,7.068130000028759,7.6758750000735745,8.322099999990314,8.914680000045337,9.547015000018291,10.156000000075437,10.842610000050627,11.451490000006743,12.089355000061914,12.728990000090562,13.346030000015162,13.949075000011362,14.568255000049248,15.23967999999877]",space,0.47391,0.0,35.0,35.0,38.0,1.0,,,,,,,,,,,,,
,,,,,,,,,,,block_1/medium_t_72_4.wav,timbre,t,medium,72.0,1.659874932,19.69733525,,,,yes,bose qc35,8,no,f,35,L,Yes,1,2020-09-16_12h17.20.371,kura-B2,2020.1.2,Win32,60,,,"[""space"",""space"",""space"",""space"",""space"",""space"",""space"",""space"",""space"",""space"",""space"",""space"",""space"",""space"",""space"",""space"",""space"",""space"",""space"",""space"",""space""]","[0.26330999995116144,1.0016199999954551,1.9223899999633431,2.8814799999818206,3.973770000040531,4.938139999983832,5.854975000023842,6.750869999988936,7.6623250000411645,8.533854999928735,9.4127800000133,10.27546999999322,11.112949999980628,12.141739999991842,12.985639999969862,13.869805000023916,14.789174999925308,15.715764999971725,16.625194999971427,17.48066000000108,18.364379999926314]",space,0.41295,0.0,36.0,36.0,36.0,1.0,,,,,,,,,,,,,
,,,,,,,,,,,block_1/medium_t_92_3.wav,timbre,t,medium,92.0,2.360774731,14.34626226,,,,yes,bose qc35,8,no,f,35,L,Yes,1,2020-09-16_12h17.20.371,kura-B2,2020.1.2,Win32,60,,,"[""space"",""space"",""space"",""space"",""space"",""space"",""space"",""space"",""space"",""space"",""space"",""space"",""space"",""space"",""space"",""space"",""space"",""space"",""space"",""space"",""space""]","[0.2925199999008328,0.8091249999124557,1.4903299999423325,2.0770599999232218,2.6579499999061227,3.236149999895133,3.859679999994114,4.476399999926798,5.0513499999651685,5.6646949999267235,6.224849999998696,6.889649999910034,7.405769999953918,8.011314999894239,8.657769999932498,9.246624999912456,9.85008999996353,10.468194999964908,11.035009999992326,11.660839999909513,12.197339999955148]",space,0.5704,0.0,37.0,37.0,35.0,1.0,,,,,,,,,,,,,
,,,,,,,,,,,block_1/medium_t_81_4.wav,timbre,t,medium,81.0,1.136743646,13.9322992,,,,yes,bose qc35,8,no,f,35,L,Yes,1,2020-09-16_12h17.20.371,kura-B2,2020.1.2,Win32,60,,,"[""space"",""space"",""space"",""space"",""space"",""space"",""space"",""space"",""space"",""space"",""space"",""space"",""space"",""space"",""space"",""space"",""space"",""space"",""space"",""space""]","[0.5733049999689683,1.2096449999371544,1.8172550000017509,2.6135700000450015,3.1925800000317395,3.841690000030212,4.466119999997318,5.020494999946095,5.954350000014529,6.449404999963008,7.123024999978952,7.670215000049211,8.547795000020415,9.09554999996908,9.8114849999547,10.51832499995362,11.04645000002347,11.724159999983385,12.38706999993883,13.123599999933504]",space,0.57633,0.0,38.0,38.0,2.0,1.0,,,,,,,,,,,,,
,,,,,,,,,,,block_1/strong_t_81_3.wav,timbre,t,strong,81.0,2.437587677,17.65296183,,,,yes,bose qc35,8,no,f,35,L,Yes,1,2020-09-16_12h17.20.371,kura-B2,2020.1.2,Win32,60,,,"[""space"",""space"",""space"",""space"",""space"",""space"",""space"",""space"",""space"",""space"",""space"",""space"",""space"",""space"",""space"",""space"",""space"",""space"",""space"",""space""]","[0.7283949999837205,1.624089999939315,2.4058749999385327,3.1392749999649823,3.9237499999580905,4.681809999980032,5.473480000044219,6.251245000050403,7.02925000002142,7.91862500004936,8.560569999972358,9.33569500001613,10.05120500002522,11.114369999966584,11.638915000017732,12.358654999989085,13.059149999986403,14.08371499995701,14.827010000008158,15.635600000037812]",space,0.468935,0.0,39.0,39.0,24.0,1.0,,,,,,,,,,,,,
,,,,,,,,,,,block_2/medium_n_81_3.wav,no,n,medium,81.0,2.235189468,17.75582439,,,,yes,bose qc35,8,no,f,35,L,Yes,1,2020-09-16_12h17.20.371,kura-B2,2020.1.2,Win32,60,,,,,,,,,,,,space,1.95681,"[""space"",""space"",""space"",""space"",""space"",""space"",""space"",""space"",""space"",""space"",""space"",""space"",""space"",""space"",""space"",""space"",""space"",""space"",""space"",""space""]","[0.2775400000391528,0.7369150000158697,1.2333199999993667,2.176605000044219,3.026090000057593,3.900800000061281,4.722285000025295,5.539805000065826,6.3107200000667945,7.146185000077821,7.9050800000550225,8.672595000010915,9.452460000058636,10.267845000023954,11.112475000089034,11.925800000084564,12.715985000017099,13.520805000094697,14.289375000051223,15.106645000050776]",space,0.564095,0.0,0.0,0.0,33.0,1.0,,
,,,,,,,,,,,block_2/weak_n_105_4.wav,no,n,weak,105.0,1.277365727,12.0504723,,,,yes,bose qc35,8,no,f,35,L,Yes,1,2020-09-16_12h17.20.371,kura-B2,2020.1.2,Win32,60,,,,,,,,,,,,,,"[""space"",""space"",""space"",""space"",""space"",""space"",""space"",""space"",""space"",""space"",""space"",""space"",""space"",""space"",""space"",""space"",""space"",""space"",""space"",""space"",""space"",""space""]","[0.2425300000468269,0.7511950000189245,1.2011049999855459,1.5349850000347942,2.0206500000786036,2.578289999975823,3.1255499999970198,3.63448500004597,4.149949999991804,4.726380000007339,5.263660000055097,5.752704999991693,6.340280000003986,6.841330000082962,7.36851000005845,7.901315000024624,8.359485000022687,8.941119999974035,9.406760000041686,9.996709999977611,10.516195000032894,10.995360000059009]",space,0.800155,0.0,1.0,1.0,28.0,1.0,,
,,,,,,,,,,,block_2/none_n_72_3.wav,no,n,none,72.0,2.393872505,24.12062987,,,,yes,bose qc35,8,no,f,35,L,Yes,1,2020-09-16_12h17.20.371,kura-B2,2020.1.2,Win32,60,,,,,,,,,,,,,,"[""space"",""space"",""space"",""space"",""space"",""space"",""space"",""space"",""space"",""space"",""space"",""space"",""space"",""space"",""space"",""space"",""space"",""space"",""space"",""space"",""space"",""space"",""space"",""space"",""space"",""space"",""space"",""space"",""space"",""space"",""space"",""space"",""space"",""space"",""space"",""space"",""space"",""space"",""space"",""space"",""space""]","[0.27709999994840473,0.8612250000005588,1.3860449999338016,1.9434849999379367,2.472859999979846,3.0341349999653175,3.574934999924153,4.061654999968596,4.637585000018589,5.113015000009909,5.748039999976754,6.1875899999868125,6.747209999943152,7.358594999997877,7.709900000016205,8.278790000011213,8.860214999993332,9.416474999976344,10.00104999996256,10.619629999971949,11.11247499997262,11.717040000017732,12.250554999918677,12.81325000000652,13.368659999920055,13.857519999961369,14.416005000006407,14.925594999920577,15.484704999951646,15.989384999964386,16.55051500000991,17.073864999925718,17.58990999998059,18.30141499999445,18.739004999981262,19.23519999999553,20.023174999980256,20.397359999944456,20.82262999995146,21.324214999913238,21.81132500001695]",space,1.014955,0.0,2.0,2.0,18.0,1.0,,
,,,,,,,,,,,block_2/weak_n_92_4.wav,no,n,weak,92.0,2.26710089,14.35326869,,,,yes,bose qc35,8,no,f,35,L,Yes,1,2020-09-16_12h17.20.371,kura-B2,2020.1.2,Win32,60,,,,,,,,,,,,,,"[""space"",""space"",""space"",""space"",""space"",""space"",""space"",""space"",""space"",""space"",""space"",""space"",""space"",""space"",""space"",""space"",""space"",""space"",""space"",""space"",""space""]","[0.4005650000181049,0.8267600000835955,1.35558500001207,2.0572350000729784,2.6697799999965355,3.2792750000953674,3.869180000037886,4.433705000090413,5.0517750000581145,5.56819500005804,6.1597650001058355,6.789060000097379,7.419255000073463,8.066495000035502,8.672210000106134,9.278635000111535,9.879775000037625,10.448124999995343,11.071055000065826,11.70085000002291,12.223850000067614]",space,0.90304,0.0,3.0,3.0,15.0,1.0,,
,,,,,,,,,,,block_2/strong_n_81_3.wav,no,n,strong,81.0,2.384474622,16.38941793,,,,yes,bose qc35,8,no,f,35,L,Yes,1,2020-09-16_12h17.20.371,kura-B2,2020.1.2,Win32,60,,,,,,,,,,,,,,"[""space"",""space"",""space"",""space"",""space"",""space"",""space"",""space"",""space"",""space"",""space"",""space"",""space"",""space"",""space"",""space"",""space"",""space"",""space"",""space"",""space""]","[0.12241999991238117,0.7099699999671429,1.5012149999383837,2.2249099999899045,2.9168499999213964,3.618514999980107,4.34554999996908,5.069154999917373,5.774904999998398,6.468939999933355,7.214659999939613,7.9201950000133365,8.603260000003502,9.334685000008903,10.075450000003912,10.85242000001017,11.478959999978542,12.179404999944381,12.96106499992311,13.635374999954365,14.362280000001192]",space,0.65654,0.0,4.0,4.0,10.0,1.0,,
,,,,,,,,,,,block_2/strong_n_105_3.wav,no,n,strong,105.0,2.095458379,13.32602527,,,,yes,bose qc35,8,no,f,35,L,Yes,1,2020-09-16_12h17.20.371,kura-B2,2020.1.2,Win32,60,,,,,,,,,,,,,,"[""space"",""space"",""space"",""space"",""space"",""space"",""space"",""space"",""space"",""space"",""space"",""space"",""space"",""space"",""space"",""space"",""space"",""space"",""space"",""space""]","[0.25596500001847744,0.7787699999753386,1.200249999994412,1.940915000042878,2.3559299999615178,2.9010700000217184,3.504899999941699,4.101574999978766,4.694989999989048,5.239300000015646,5.835044999956153,6.401205000001937,6.963409999967553,7.52492999995593,8.1497199999867,8.641880000010133,9.376169999944977,9.793210000032559,10.33479500003159,10.987869999953546]",space,0.35676,0.0,5.0,5.0,9.0,1.0,,
,,,,,,,,,,,block_2/medium_n_105_4.wav,no,n,medium,105.0,2.115061775,16.52181914,,,,yes,bose qc35,8,no,f,35,L,Yes,1,2020-09-16_12h17.20.371,kura-B2,2020.1.2,Win32,60,,,,,,,,,,,,,,"[""space"",""space"",""space"",""space"",""space"",""space"",""space"",""space"",""space"",""space"",""space"",""space"",""space"",""space"",""space"",""space"",""space"",""space"",""space"",""space"",""space""]","[0.22751500003505498,0.6080650000367314,1.1925200000405312,1.8542250000173226,2.473770000040531,3.076854999992065,3.823259999975562,4.551409999956377,5.256664999993518,6.011015000054613,6.783225000021048,7.4939350000349805,8.234460000065155,9.02159500005655,9.690300000016578,10.417860000045039,11.151070000021718,11.87554000003729,12.643395000020973,13.385329999960959,14.076490000006743]",space,0.55147,0.0,6.0,6.0,12.0,1.0,,
,,,,,,,,,,,block_2/none_n_72_4.wav,no,n,none,72.0,1.743803892,24.48607147,,,,yes,bose qc35,8,no,f,35,L,Yes,1,2020-09-16_12h17.20.371,kura-B2,2020.1.2,Win32,60,,,,,,,,,,,,,,"[""space"",""space"",""space"",""space"",""space"",""space"",""space"",""space"",""space"",""space"",""space"",""space"",""space"",""space"",""space"",""space"",""space"",""space"",""space"",""space"",""space"",""space"",""space"",""space"",""space"",""space"",""space"",""space"",""space"",""space"",""space"",""space"",""space"",""space"",""space"",""space""]","[0.4761949999956414,0.91402000002563,1.5585849999915808,2.2342199999839067,2.9462599999969825,3.6632299999473616,4.262254999950528,4.918429999961518,5.495460000005551,6.151414999971166,6.782769999932498,7.393255000002682,8.049534999998286,8.757325000013225,9.334874999942258,9.917279999936,10.518760000006296,11.082964999950491,11.750439999974333,12.436284999945201,13.100845000008121,13.823469999944791,14.519970000023022,15.127579999971204,15.853690000018105,16.537950000027195,17.16568999993615,17.78446500003338,18.444750000024214,19.058229999965988,19.68929000000935,20.387770000030287,21.05560500000138,21.717779999948107,22.382419999921694,22.8739849999547]",space,0.628755,0.0,7.0,7.0,21.0,1.0,,
,,,,,,,,,,,block_2/medium_n_92_4.wav,no,n,medium,92.0,1.021723279,13.61201806,,,,yes,bose qc35,8,no,f,35,L,Yes,1,2020-09-16_12h17.20.371,kura-B2,2020.1.2,Win32,60,,,,,,,,,,,,,,"[""space"",""space"",""space"",""space"",""space"",""space"",""space"",""space"",""space"",""space"",""space"",""space"",""space"",""space"",""space"",""space"",""space"",""space"",""space"",""space"",""space""]","[0.38431500003207475,0.9141150000505149,1.5009149999823421,2.1953499999362975,2.7892249999567866,3.3949449999490753,4.068949999986216,4.752654999960214,5.263674999936484,5.861260000034235,6.5560099999420345,7.146975000039674,7.841909999959171,8.404235000023618,9.070524999988265,9.766984999994747,10.356499999994412,11.002164999954402,11.551375000039116,12.272250000038184,12.735164999961853]",space,0.54326,0.0,8.0,8.0,11.0,1.0,,
,,,,,,,,,,,block_2/medium_n_72_3.wav,no,n,medium,72.0,1.994146771,18.06802432,,,,yes,bose qc35,8,no,f,35,L,Yes,1,2020-09-16_12h17.20.371,kura-B2,2020.1.2,Win32,60,,,,,,,,,,,,,,"[""space"",""space"",""space"",""space"",""space"",""space"",""space"",""space"",""space"",""space"",""space"",""space"",""space"",""space"",""space"",""space"",""space"",""space"",""space"",""space""]","[0.3599350000731647,0.8407450000522658,1.412040000082925,2.384610000066459,3.192890000063926,4.027495000045747,4.976714999997057,5.734525000094436,6.511605000006966,7.3338000000221655,8.24936500005424,9.043935000081547,9.846105000004172,10.715535000083037,11.516954999999143,12.379980000085197,13.156955000013113,13.974700000020675,14.755950000020675,15.41100500000175]",space,0.536815,0.0,9.0,9.0,13.0,1.0,,
,,,,,,,,,,,block_2/none_n_119_3.wav,no,n,none,119.0,1.37370001,14.3364211,,,,yes,bose qc35,8,no,f,35,L,Yes,1,2020-09-16_12h17.20.371,kura-B2,2020.1.2,Win32,60,,,,,,,,,,,,,,"[""space"",""space"",""space"",""space"",""space"",""space"",""space"",""space"",""space"",""space"",""space"",""space"",""space"",""space"",""space"",""space"",""space"",""space"",""space"",""space"",""space"",""space"",""space""]","[0.41862000001128763,0.8525000000372529,1.6081649999832734,2.2022199999773875,2.851744999992661,3.592464999994263,4.164710000040941,4.577879999997094,5.084205000079237,5.739515000022948,6.367384999990463,6.966914999997243,7.553459999966435,8.145640000002459,8.657669999985956,9.21949000004679,9.78874500002712,10.286235000006855,10.82448499999009,11.403490000055172,11.94293999997899,12.567095000064,13.18866500002332]",space,0.524695,0.0,10.0,10.0,24.0,1.0,,
,,,,,,,,,,,block_2/strong_n_81_4.wav,no,n,strong,81.0,1.736263272,17.70810001,,,,yes,bose qc35,8,no,f,35,L,Yes,1,2020-09-16_12h17.20.371,kura-B2,2020.1.2,Win32,60,,,,,,,,,,,,,,"[""space"",""space"",""space"",""space"",""space"",""space"",""space"",""space"",""space"",""space"",""space"",""space"",""space"",""space"",""space"",""space"",""space"",""space"",""space"",""space"",""space""]","[0.504600000102073,0.9840500000864267,1.7139500000048429,2.564375000074506,3.444525000057183,4.170780000044033,4.969145000097342,5.8468400000128895,6.618555000051856,7.4604150000959635,8.26918000006117,9.016150000039488,9.834705000044778,10.60666500008665,11.467875000089407,12.290190000087023,13.055590000003576,13.812685000011697,14.602370000095107,15.42652000009548,16.296280000009574]",space,0.520955,0.0,11.0,11.0,1.0,1.0,,
,,,,,,,,,,,block_2/weak_n_72_4.wav,no,n,weak,72.0,1.671954957,17.64637673,,,,yes,bose qc35,8,no,f,35,L,Yes,1,2020-09-16_12h17.20.371,kura-B2,2020.1.2,Win32,60,,,,,,,,,,,,,,"[""space"",""space"",""space"",""space"",""space"",""space"",""space"",""space"",""space"",""space"",""space"",""space"",""space"",""space"",""space"",""space"",""space"",""space"",""space"",""space""]","[0.3137799999676645,0.7793750000419095,1.401244999957271,2.0998400000389665,2.8217749999603257,3.635535000008531,4.5847950000315905,5.46777500002645,6.353379999985918,7.117994999978691,7.816340000019409,8.576014999998733,9.374214999959804,10.205364999943413,10.959580000024289,11.905180000001565,12.910625000018626,13.677479999954812,14.61661499994807,15.558919999981299]",space,0.550735,0.0,12.0,12.0,4.0,1.0,,
,,,,,,,,,,,block_2/strong_n_119_4.wav,no,n,strong,119.0,2.003027148,12.07137182,,,,yes,bose qc35,8,no,f,35,L,Yes,1,2020-09-16_12h17.20.371,kura-B2,2020.1.2,Win32,60,,,,,,,,,,,,,,"[""space"",""space"",""space"",""space"",""space"",""space"",""space"",""space"",""space"",""space"",""space"",""space"",""space"",""space"",""space"",""space"",""space"",""space"",""space"",""space"",""space""]","[0.4504450000822544,0.9209850000916049,1.263245000038296,1.7538400000194088,2.2802700001047924,2.722965000080876,3.2082000001100823,3.7844200000399724,4.233285000082105,4.833640000084415,5.240330000058748,5.758345000096597,6.29018500004895,6.763850000104867,7.278910000110045,7.8188800000352785,8.275085000088438,8.833875000011176,9.323980000102893,9.836760000092909,10.35550000006333]",space,0.238385,0.0,13.0,13.0,23.0,1.0,,
,,,,,,,,,,,block_2/none_n_105_4.wav,no,n,none,105.0,1.256367297,16.73296594,,,,yes,bose qc35,8,no,f,35,L,Yes,1,2020-09-16_12h17.20.371,kura-B2,2020.1.2,Win32,60,,,,,,,,,,,,,,"[""space"",""space"",""space"",""space"",""space"",""space"",""space"",""space"",""space"",""space"",""space"",""space"",""space"",""space"",""space"",""space"",""space"",""space"",""space"",""space"",""space""]","[0.6383500000229105,1.1251300000585616,1.8798050000332296,2.668915000045672,3.434830000041984,4.1771750000771135,4.949220000067726,6.009870000067167,6.820189999998547,7.563770000007935,8.426410000072792,9.133499999996275,9.918670000042766,10.662715000100434,11.493914999999106,12.171145000029355,12.91746000002604,13.664150000084192,14.282555000041611,14.9604700000491,15.720490000094287]",space,0.388615,0.0,14.0,14.0,14.0,1.0,,
,,,,,,,,,,,block_2/none_n_92_4.wav,no,n,none,92.0,2.009431863,15.90199422,,,,yes,bose qc35,8,no,f,35,L,Yes,1,2020-09-16_12h17.20.371,kura-B2,2020.1.2,Win32,60,,,,,,,,,,,,,,"[""space"",""space"",""space"",""space"",""space"",""space"",""space"",""space"",""space"",""space"",""space"",""space"",""space"",""space"",""space"",""space"",""space"",""space"",""space""]","[0.5304700001142919,1.3089000000618398,2.037595000001602,2.8573350000660866,3.6116600000532344,4.30582000000868,5.027180000091903,5.736435000086203,6.516060000052676,7.230375000042841,7.962215000065044,8.605670000077225,9.374485000036657,10.020935000036843,10.733555000042543,11.496525000082329,12.186245000106283,12.970630000112578,13.657430000021122]",space,0.55143,0.0,15.0,15.0,19.0,1.0,,
,,,,,,,,,,,block_2/weak_n_105_3.wav,no,n,weak,105.0,2.432347709,14.10785791,,,,yes,bose qc35,8,no,f,35,L,Yes,1,2020-09-16_12h17.20.371,kura-B2,2020.1.2,Win32,60,,,,,,,,,,,,,,"[""space"",""space"",""space"",""space"",""space"",""space"",""space"",""space"",""space"",""space"",""space"",""space"",""space"",""space"",""space"",""space"",""space"",""space"",""space""]","[0.47633000009227544,0.9666250000009313,1.4805500000948086,2.2035750000504777,2.801465000025928,3.5264550000429153,4.23131500009913,5.485950000002049,5.990295000025071,6.656539999996312,7.36363000003621,7.959755000076257,8.517755000037141,9.111825000029057,9.768470000009984,10.30981000000611,10.820449999999255,11.445380000048317,12.001525000086986]",space,0.43921,0.0,16.0,16.0,27.0,1.0,,
,,,,,,,,,,,block_2/medium_n_119_3.wav,no,n,medium,119.0,2.317779723,12.17918562,,,,yes,bose qc35,8,no,f,35,L,Yes,1,2020-09-16_12h17.20.371,kura-B2,2020.1.2,Win32,60,,,,,,,,,,,,,,"[""space"",""space"",""space"",""space"",""space"",""space"",""space"",""space"",""space"",""space"",""space"",""space"",""space"",""space"",""space"",""space"",""space"",""space"",""space""]","[0.4854700000723824,1.0136800000909716,1.5115350000560284,2.088010000064969,2.618485000100918,3.1898150000488386,3.856415000045672,4.314225000096485,4.824965000036173,5.309795000008307,5.805740000098012,6.300915000028908,6.841845000046305,7.250480000046082,7.679805000079796,8.227750000078231,8.669620000058785,9.14667000004556,9.609460000065155]",space,0.36712,0.0,17.0,17.0,22.0,1.0,,
,,,,,,,,,,,block_2/weak_n_119_3.wav,no,n,weak,119.0,1.689359171,10.04573105,,,,yes,bose qc35,8,no,f,35,L,Yes,1,2020-09-16_12h17.20.371,kura-B2,2020.1.2,Win32,60,,,,,,,,,,,,,,"[""space"",""space"",""space"",""space"",""space"",""space"",""space"",""space"",""space"",""space"",""space"",""space"",""space"",""space"",""space"",""space"",""space"",""space"",""space"",""space""]","[0.29522999993059784,0.8455399998929352,1.311299999943003,1.7444649999961257,2.1743999999016523,2.5670399999944493,3.0139749998925254,3.4336899999761954,3.887849999940954,4.342064999975264,4.80418999993708,5.183344999910332,5.557244999916293,5.971544999978505,6.356374999973923,6.752204999909736,7.217439999920316,7.656104999943636,8.108459999901243,8.5673999999417]",space,0.544685,0.0,18.0,18.0,37.0,1.0,,
,,,,,,,,,,,block_2/medium_n_81_4.wav,no,n,medium,81.0,1.594727623,16.1032537,,,,yes,bose qc35,8,no,f,35,L,Yes,1,2020-09-16_12h17.20.371,kura-B2,2020.1.2,Win32,60,,,,,,,,,,,,,,"[""space"",""space"",""space"",""space"",""space"",""space"",""space"",""space"",""space"",""space"",""space"",""space"",""space"",""space"",""space"",""space"",""space"",""space"",""space"",""space""]","[0.254990000044927,0.7289700000546873,1.4004450000356883,2.2248649999964982,2.9981799999950454,3.781425000051968,4.485134999966249,5.3118999999715015,5.983435000060126,6.740684999967925,7.424699999974109,8.156730000046082,8.894885000074282,9.618084999965504,10.368200000026263,11.01871500001289,11.800984999979846,13.258894999977201,13.972940000006929,14.809565000003204]",space,0.485505,0.0,19.0,19.0,38.0,1.0,,
,,,,,,,,,,,block_2/none_n_81_4.wav,no,n,none,81.0,1.032736778,20.98466422,,,,yes,bose qc35,8,no,f,35,L,Yes,1,2020-09-16_12h17.20.371,kura-B2,2020.1.2,Win32,60,,,,,,,,,,,,,,"[""space"",""space"",""space"",""space"",""space"",""space"",""space"",""space"",""space"",""space"",""space"",""space"",""space"",""space"",""space"",""space"",""space"",""space"",""space"",""space"",""space"",""space"",""space"",""space"",""space"",""space"",""space"",""space"",""space"",""space"",""space"",""space"",""space"",""space"",""space"",""space"",""space"",""space""]","[0.36457999993581325,0.9972199999028817,1.5431899999966845,2.0250799999339506,2.5309549999656156,2.975579999969341,3.514439999940805,4.000735000008717,4.508174999966286,5.102629999979399,5.7117499999003485,6.246189999976195,6.77898499998264,7.278044999926351,7.802099999971688,8.32894999999553,8.947659999947064,9.38486499991268,9.961194999981672,10.523654999909922,11.043034999980591,11.57551999995485,12.125204999931157,12.611689999932423,13.141224999912083,13.724754999973811,14.290410000015981,14.817404999979772,15.297144999960437,15.820209999918006,16.274409999954514,16.796224999940023,17.356334999902174,17.86964499996975,18.362174999900162,18.8900249999715,19.38400499999989,19.94710499991197]",space,0.537425,0.0,20.0,20.0,26.0,1.0,,
,,,,,,,,,,,block_2/weak_n_92_3.wav,no,n,weak,92.0,2.16711471,14.91038002,,,,yes,bose qc35,8,no,f,35,L,Yes,1,2020-09-16_12h17.20.371,kura-B2,2020.1.2,Win32,60,,,,,,,,,,,,,,"[""space"",""space"",""space"",""space"",""space"",""space"",""space"",""space"",""space"",""space"",""space"",""space"",""space"",""space"",""space"",""space"",""space"",""space"",""space"",""space""]","[0.409455000073649,0.8184250000631437,1.4019500000867993,2.0378800000762567,2.7237750000786036,3.330850000027567,4.021380000049248,4.613405000069179,5.169445000006817,5.900320000015199,6.4684650000417605,7.177510000066832,7.830100000021048,8.517555000027642,9.157560000079684,9.775030000018887,10.440234999987297,11.086255000089295,11.702430000063032,12.373380000004545]",space,0.322955,0.0,21.0,21.0,5.0,1.0,,
,,,,,,,,,,,block_2/medium_n_92_3.wav,no,n,medium,92.0,2.163023573,13.84869251,,,,yes,bose qc35,8,no,f,35,L,Yes,1,2020-09-16_12h17.20.371,kura-B2,2020.1.2,Win32,60,,,,,,,,,,,,,,"[""space"",""space"",""space"",""space"",""space"",""space"",""space"",""space"",""space"",""space"",""space"",""space"",""space"",""space"",""space"",""space"",""space"",""space"",""space"",""space""]","[0.2236999999731779,0.6773099999409169,1.1505049999104813,1.7061099999118596,2.297139999922365,2.875789999961853,3.4839999999385327,4.093215000000782,4.683420000015758,5.30816000001505,5.914024999947287,6.509665000019595,7.092680000001565,7.768180000013672,8.346885000006296,8.945449999999255,9.535344999982044,10.125049999915063,10.768144999979995,11.37465999997221]",space,0.411185,0.0,22.0,22.0,2.0,1.0,,
,,,,,,,,,,,block_2/medium_n_105_3.wav,no,n,medium,105.0,2.480661226,14.16274739,,,,yes,bose qc35,8,no,f,35,L,Yes,1,2020-09-16_12h17.20.371,kura-B2,2020.1.2,Win32,60,,,,,,,,,,,,,,"[""space"",""space"",""space"",""space"",""space"",""space"",""space"",""space"",""space"",""space"",""space"",""space"",""space"",""space"",""space"",""space"",""space"",""space"",""space"",""space"",""space""]","[0.27243500004988164,1.1004950000206009,1.5449599999701604,2.1350300000049174,2.710925000021234,3.2611249999608845,3.8432899999897927,4.468140000011772,5.0211050000507385,5.583675000001676,6.140174999949522,6.742444999981672,7.288159999996424,7.9115649999585,8.489519999944605,9.004975000047125,9.600680000032298,10.22715499997139,10.75956999999471,11.326274999999441,11.934110000031069]",space,0.45801,0.0,23.0,23.0,0.0,1.0,,
,,,,,,,,,,,block_2/none_n_105_3.wav,no,n,none,105.0,1.200203838,13.86165508,,,,yes,bose qc35,8,no,f,35,L,Yes,1,2020-09-16_12h17.20.371,kura-B2,2020.1.2,Win32,60,,,,,,,,,,,,,,"[""space"",""space"",""space"",""space"",""space"",""space"",""space"",""space"",""space"",""space"",""space"",""space"",""space"",""space"",""space"",""space"",""space"",""space"",""space"",""space"",""space"",""space"",""space"",""space"",""space"",""space"",""space""]","[0.04584999999497086,0.6563699999824166,1.198670000070706,1.9345800000010058,2.5275100000435486,3.0680500000016764,3.5388749999692664,4.108529999968596,4.5020100000547245,4.9777300000423566,5.453295000013895,5.95347499998752,6.392995000001974,6.82695999997668,7.269500000053085,7.696385000017472,8.190350000048056,8.6101900000358,9.121595000033267,9.603125000023283,10.027009999961592,10.474965000059456,10.906474999967031,11.32398500002455,11.773694999981672,12.285099999979138,12.665005000075325]",space,0.49095,0.0,24.0,24.0,6.0,1.0,,
,,,,,,,,,,,block_2/strong_n_72_4.wav,no,n,strong,72.0,1.689031128,17.05764791,,,,yes,bose qc35,8,no,f,35,L,Yes,1,2020-09-16_12h17.20.371,kura-B2,2020.1.2,Win32,60,,,,,,,,,,,,,,"[""space"",""space"",""space"",""space"",""space"",""space"",""space"",""space"",""space"",""space"",""space"",""space"",""space"",""space"",""space"",""space"",""space"",""space"",""space"",""space""]","[0.4427999999606982,1.3334950000280514,2.2570700000505894,3.0669200000120327,3.762125000008382,4.574604999972507,5.356224999995902,6.202294999966398,6.947240000008605,7.893445000052452,8.704735000035726,9.449834999977611,10.28510500001721,11.120330000063404,11.777254999964498,12.533500000019558,13.305219999980181,14.084745000000112,14.928539999993518,15.714470000006258]",space,0.51756,0.0,25.0,25.0,35.0,1.0,,
,,,,,,,,,,,block_2/none_n_119_4.wav,no,n,none,119.0,1.538189981,14.89986799,,,,yes,bose qc35,8,no,f,35,L,Yes,1,2020-09-16_12h17.20.371,kura-B2,2020.1.2,Win32,60,,,,,,,,,,,,,,"[""space"",""space"",""space"",""space"",""space"",""space"",""space"",""space"",""space"",""space"",""space"",""space"",""space"",""space"",""space"",""space"",""space"",""space"",""space"",""space"",""space"",""space"",""space"",""space"",""space""]","[0.4850099999457598,1.0357399999629706,1.5671449999790639,2.0829699999885634,2.692369999946095,3.1636700000381097,3.7496350000146776,4.323755000019446,4.875660000019707,5.504425000050105,5.925704999943264,6.435060000047088,6.888675000052899,7.4218800000380725,7.950854999944568,8.412235000054352,8.90907499997411,9.427215000032447,9.9727300000377,10.485489999991842,11.035410000011325,11.62106000003405,12.234964999952354,12.69067499996163,13.261814999976195]",space,0.662375,0.0,26.0,26.0,20.0,1.0,,
,,,,,,,,,,,block_2/strong_n_72_3.wav,no,n,strong,72.0,2.337906276,17.4032124,,,,yes,bose qc35,8,no,f,35,L,Yes,1,2020-09-16_12h17.20.371,kura-B2,2020.1.2,Win32,60,,,,,,,,,,,,,,"[""space"",""space"",""space"",""space"",""space"",""space"",""space"",""space"",""space"",""space"",""space"",""space"",""space"",""space"",""space"",""space"",""space"",""space"",""space"",""space"",""space""]","[0.3340600000228733,0.8014899999834597,1.4727500000735745,2.26699000003282,3.049820000072941,3.8889600000111386,4.6668899999931455,5.4351250000763685,6.183874999987893,6.937005000072531,7.699665000080131,8.516859999974258,9.240409999969415,10.071364999981597,10.825475000077859,11.63641000003554,12.35090499999933,13.20140999997966,13.945720000076108,14.657865000073798,15.486415000050329]",space,0.69065,0.0,27.0,27.0,32.0,1.0,,
,,,,,,,,,,,block_2/weak_n_119_4.wav,no,n,weak,119.0,1.653391966,12.42708811,,,,yes,bose qc35,8,no,f,35,L,Yes,1,2020-09-16_12h17.20.371,kura-B2,2020.1.2,Win32,60,,,,,,,,,,,,,,"[""space"",""space"",""space"",""space"",""space"",""space"",""space"",""space"",""space"",""space"",""space"",""space"",""space"",""space"",""space"",""space"",""space"",""space"",""space"",""space""]","[0.5357050000457093,1.0737949999747798,1.6181449999567121,2.2356399999698624,2.859855000046082,3.4191400000127032,3.945784999988973,4.4411850000033155,5.0444050000514835,5.617755000013858,6.1914050000486895,6.668569999979809,7.217969999997877,7.803489999962039,8.36199999996461,8.925629999954253,9.349545000004582,9.907430000021122,10.434555000043474,10.968710000044666]",space,0.46938,0.0,28.0,28.0,31.0,1.0,,
,,,,,,,,,,,block_2/medium_n_72_4.wav,no,n,medium,72.0,1.35197092,15.86054235,,,,yes,bose qc35,8,no,f,35,L,Yes,1,2020-09-16_12h17.20.371,kura-B2,2020.1.2,Win32,60,,,,,,,,,,,,,,"[""space"",""space"",""space"",""space"",""space"",""space"",""space"",""space"",""space"",""space"",""space"",""space"",""space"",""space"",""space"",""space"",""space"",""space"",""space"",""space"",""space""]","[0.25358999997843057,0.6968949999427423,1.3305600000312552,2.2119549999479204,3.001784999971278,3.7167099999496713,4.533004999975674,5.2729050000198185,5.98444999998901,6.668259999947622,7.439200000022538,8.279274999978952,8.906545000034384,9.601814999943599,10.367859999998473,11.20952999999281,11.922735000029206,12.601799999945797,13.374610000057146,14.116675000055693,14.867790000047535]",space,0.610655,0.0,29.0,29.0,7.0,1.0,,
,,,,,,,,,,,block_2/weak_n_72_3.wav,no,n,weak,72.0,1.604938988,17.47283014,,,,yes,bose qc35,8,no,f,35,L,Yes,1,2020-09-16_12h17.20.371,kura-B2,2020.1.2,Win32,60,,,,,,,,,,,,,,"[""space"",""space"",""space"",""space"",""space"",""space"",""space"",""space"",""space"",""space"",""space"",""space"",""space"",""space"",""space"",""space"",""space"",""space"",""space"",""space"",""space""]","[0.5281050000339746,1.30590499995742,2.0233500000322238,2.738595000002533,3.550029999925755,4.235555000021122,4.983479999937117,5.921734999981709,6.743415000033565,7.484700000029989,8.44591499993112,9.11964499996975,9.940494999988005,10.617064999998547,11.374289999948815,12.217464999994263,12.908895000000484,13.688659999985248,14.527634999947622,15.296089999959804,16.136459999950603]",space,0.4591,0.0,30.0,30.0,8.0,1.0,,
,,,,,,,,,,,block_2/weak_n_81_3.wav,no,n,weak,81.0,2.376095497,17.43405468,,,,yes,bose qc35,8,no,f,35,L,Yes,1,2020-09-16_12h17.20.371,kura-B2,2020.1.2,Win32,60,,,,,,,,,,,,,,"[""space"",""space"",""space"",""space"",""space"",""space"",""space"",""space"",""space"",""space"",""space"",""space"",""space"",""space"",""space"",""space"",""space"",""space"",""space"",""space"",""space""]","[0.4404900000663474,1.016935000079684,1.771805000025779,2.487169999978505,3.3345050000352785,4.136850000009872,4.806805000058375,5.586260000010952,6.397415000014007,7.201265000039712,7.982335000066087,8.633135000010952,9.349724999978207,10.044690000009723,10.824510000064038,11.65164499997627,12.485385000007227,13.267570000025444,13.990975000080653,14.607635000022128,15.287330000079237]",space,0.359525,0.0,31.0,31.0,30.0,1.0,,
,,,,,,,,,,,block_2/strong_n_92_3.wav,no,n,strong,92.0,1.019287146,13.50967263,,,,yes,bose qc35,8,no,f,35,L,Yes,1,2020-09-16_12h17.20.371,kura-B2,2020.1.2,Win32,60,,,,,,,,,,,,,,"[""space"",""space"",""space"",""space"",""space"",""space"",""space"",""space"",""space"",""space"",""space"",""space"",""space"",""space"",""space"",""space"",""space"",""space"",""space"",""space"",""space""]","[0.1851800000295043,0.771610000054352,1.4164399999426678,2.082975000026636,2.6787400000030175,3.284815000020899,3.9238599999807775,4.530915000010282,5.217534999945201,5.777684999979101,6.442934999940917,7.101819999981672,7.621984999976121,8.217960000038147,8.93426999996882,9.60710999998264,10.21696999995038,10.780374999972992,11.416500000050291,12.160814999951981,12.756949999951757]",space,0.708745,0.0,32.0,32.0,39.0,1.0,,
,,,,,,,,,,,block_2/strong_n_92_4.wav,no,n,strong,92.0,1.480736093,15.18463632,,,,yes,bose qc35,8,no,f,35,L,Yes,1,2020-09-16_12h17.20.371,kura-B2,2020.1.2,Win32,60,,,,,,,,,,,,,,"[""space"",""space"",""space"",""space"",""space"",""space"",""space"",""space"",""space"",""space"",""space"",""space"",""space"",""space"",""space"",""space"",""space"",""space"",""space"",""space""]","[0.6381299999775365,1.2720999999437481,1.9109549999702722,2.651244999957271,3.3090549999615178,4.115995000000112,4.82903499994427,5.507299999939278,6.276524999993853,6.9911449999781325,7.669794999994338,8.404050000011921,9.081324999919161,9.786474999971688,10.521234999992885,11.155829999945126,11.897544999956153,12.634199999971315,13.36241499998141,14.095295000006445]",space,0.50088,0.0,33.0,33.0,34.0,1.0,,
,,,,,,,,,,,block_2/none_n_81_3.wav,no,n,none,81.0,2.161532659,18.80565964,,,,yes,bose qc35,8,no,f,35,L,Yes,1,2020-09-16_12h17.20.371,kura-B2,2020.1.2,Win32,60,,,,,,,,,,,,,,"[""space"",""space"",""space"",""space"",""space"",""space"",""space"",""space"",""space"",""space"",""space"",""space"",""space"",""space"",""space"",""space"",""space"",""space"",""space"",""space"",""space"",""space"",""space"",""space"",""space"",""space"",""space"",""space"",""space"",""space"",""space"",""space"",""space"",""space"",""space"",""space"",""space"",""space"",""space""]","[0.6347149999346584,1.0175699999090284,1.4423499999102205,1.8870699999388307,2.3293549999361858,2.784559999941848,3.2015149999642745,3.6457399999490008,4.076729999971576,4.481009999988601,4.800014999927953,5.260959999985062,5.736114999977872,6.143659999943338,6.5398999999742955,6.964094999944791,7.3776749999960884,7.734674999956042,8.162719999905676,8.569469999987632,8.967369999969378,9.358329999959096,9.742759999935515,10.218674999894574,10.585844999994151,10.955334999947809,11.386899999924935,11.859414999955334,12.274254999938421,12.694249999942258,13.118909999961033,13.523124999948777,13.99394499999471,14.355529999942519,14.846319999895059,15.234529999899678,15.607609999948181,16.03703000000678,16.50188499991782]",space,0.34983,0.0,34.0,34.0,29.0,1.0,,
,,,,,,,,,,,block_2/strong_n_119_3.wav,no,n,strong,119.0,2.299979207,12.06555744,,,,yes,bose qc35,8,no,f,35,L,Yes,1,2020-09-16_12h17.20.371,kura-B2,2020.1.2,Win32,60,,,,,,,,,,,,,,"[""space"",""space"",""space"",""space"",""space"",""space"",""space"",""space"",""space"",""space"",""space"",""space"",""space"",""space"",""space"",""space"",""space"",""space"",""space"",""space"",""space""]","[0.22103000001516193,0.8143500000005588,1.2335299999685958,1.70773000002373,2.1510550000239164,2.6967299999669194,3.166899999952875,3.6403949999948964,4.1838149999966845,4.601179999997839,5.094855000032112,5.523694999981672,6.12237500003539,6.606860000058077,7.070655000046827,7.532849999959581,8.034534999984317,8.508050000062212,9.008415000047535,9.457799999974668,9.999075000057928]",space,0.57451,0.0,35.0,35.0,16.0,1.0,,
,,,,,,,,,,,block_2/medium_n_119_4.wav,no,n,medium,119.0,1.918272059,10.22534689,,,,yes,bose qc35,8,no,f,35,L,Yes,1,2020-09-16_12h17.20.371,kura-B2,2020.1.2,Win32,60,,,,,,,,,,,,,,"[""space"",""space"",""space"",""space"",""space"",""space"",""space"",""space"",""space"",""space"",""space"",""space"",""space"",""space"",""space"",""space"",""space"",""space"",""space"",""space""]","[0.21853000007104129,0.5641450000694022,1.0670800000661984,1.4982950000558048,1.9709649999858811,2.370695000048727,2.7572200000286102,3.107315000030212,3.533625000040047,3.931689999997616,4.367100000032224,4.8765950000379235,5.32233500003349,5.779605000047013,6.235025000059977,6.7062900000019,7.1404249999905005,7.563105000066571,7.9881700000260025,8.454425000003539]",space,0.29253,0.0,36.0,36.0,17.0,1.0,,
,,,,,,,,,,,block_2/weak_n_81_4.wav,no,n,weak,81.0,1.139338257,16.19847658,,,,yes,bose qc35,8,no,f,35,L,Yes,1,2020-09-16_12h17.20.371,kura-B2,2020.1.2,Win32,60,,,,,,,,,,,,,,"[""space"",""space"",""space"",""space"",""space"",""space"",""space"",""space"",""space"",""space"",""space"",""space"",""space"",""space"",""space"",""space"",""space"",""space"",""space"",""space"",""space"",""space""]","[0.22019499994348735,0.6619299999438226,1.1924749999307096,1.8999649999896064,2.7136149998987094,3.503039999981411,4.238984999945387,5.035629999940284,5.759154999977909,6.452249999972992,7.011219999985769,7.6420149999903515,8.389204999897629,9.119049999979325,9.928779999958351,10.68454499996733,11.42148499994073,12.16266499995254,13.017749999999069,13.694684999994934,14.600834999931976,15.308989999932237]",space,0.374645,0.0,37.0,37.0,36.0,1.0,,
,,,,,,,,,,,block_2/none_n_92_3.wav,no,n,none,92.0,2.008897919,17.90894327,,,,yes,bose qc35,8,no,f,35,L,Yes,1,2020-09-16_12h17.20.371,kura-B2,2020.1.2,Win32,60,,,,,,,,,,,,,,"[""space"",""space"",""space"",""space"",""space"",""space"",""space"",""space"",""space"",""space"",""space"",""space"",""space"",""space"",""space"",""space"",""space"",""space"",""space"",""space"",""space"",""space"",""space"",""space""]","[0.24591000005602837,0.8142100000986829,1.486405000090599,2.1477900000754744,2.857605000026524,3.5689450000645593,4.192615000065416,4.809245000011288,5.63475000008475,6.313495000009425,7.033085000002757,7.68336000002455,8.411410000058822,9.124050000100397,9.816860000020824,10.47464500006754,11.159835000056773,11.83679500001017,12.460599999991246,13.212315000011586,13.941925000050105,14.505115000065416,15.189530000090599,15.874045000062324]",space,0.423965,0.0,38.0,38.0,25.0,1.0,,
,,,,,,,,,,,block_2/strong_n_105_4.wav,no,n,strong,105.0,1.723608797,13.55862014,,,,yes,bose qc35,8,no,f,35,L,Yes,1,2020-09-16_12h17.20.371,kura-B2,2020.1.2,Win32,60,,,,,,,,,,,,,,"[""space"",""space"",""space"",""space"",""space"",""space"",""space"",""space"",""space"",""space"",""space"",""space"",""space"",""space"",""space"",""space"",""space"",""space"",""space"",""space""]","[0.307994999922812,0.7638949999818578,1.408919999958016,1.9883899999549612,2.589469999889843,3.1566449999809265,3.7565499999327585,4.376069999998435,4.935734999948181,5.514689999981783,6.17492499994114,6.7685099999653175,7.36965499992948,7.972944999928586,8.534969999920577,9.138144999975339,9.772904999903403,10.3838799999794,10.890379999997094,11.445114999893121]",space,0.364135,0.0,39.0,39.0,3.0,1.0,,
,,,,,,,,,,,,,,,,,,,,,yes,bose qc35,8,no,f,35,L,Yes,1,2020-09-16_12h17.20.371,kura-B2,2020.1.2,Win32,60,,,,,,,,,,,,,,,,,,,,,,,space,47.498945
