key_resp.keys,key_resp.rt,practice_taps.keys,practice_taps.rt,keyresp.keys,keyresp.rt,practice_stims_loop.thisRepN,practice_stims_loop.thisTrialN,practice_stims_loop.thisN,practice_stims_loop.thisIndex,practice_stims_loop.ran,sndfile,type,tempo,cond,version,delay,dur,Participant Initials,"If you are a MTurk worker, what is your MTurk worker ID?","If you are not an MTurk worker, please provide your email address",Are you wearing headphones?,What are the headphone make and model?,"How many years of musical training, if any, do you have?",Do you have any hearing problems? Please describe,What is your sex (f/m/decline)?,What is your age?,What is your handedness (R/L/ambi)?,Are you currently in a secure and quiet room without a possible interruption?,session,date,expName,psychopyVersion,OS,frameRate,instructions_prompt.keys,instructions_prompt.rt,block1_taps.keys,block1_taps.rt,key_resp_2.keys,key_resp_2.rt,trials.thisRepN,trials.thisTrialN,trials.thisN,trials.thisIndex,trials.ran,key_resp2.keys,key_resp2.rt,block2_taps.keys,block2_taps.rt,key_resp_3.keys,key_resp_3.rt,trials_2.thisRepN,trials_2.thisTrialN,trials_2.thisN,trials_2.thisIndex,trials_2.ran,key_resp_4.keys,key_resp_4.rt
space,107.37204,"[""space"",""space"",""space"",""space"",""space"",""space"",""space"",""space"",""space"",""space"",""space"",""space"",""space"",""space"",""space"",""space""]","[4.068620000034571,4.781029999954626,6.1173450000351295,6.9257800000486895,8.012549999984913,9.197440000018105,10.008634999976493,10.911719999974594,12.147140000015497,13.114670000039041,14.140785000054166,15.188450000016019,16.372699999948964,17.380465000052936,18.348549999995157,19.42615499999374]",space,1.60798,0.0,0.0,0.0,3.0,1.0,block_2/weak_n_72_2.wav,no,n,weak,72.0,1.63372301,21.59472074,,,,Yes,Bose sound sport in ear headphones,2,No,M,27,R,Yes,1,2020-09-07_11h57.44.574,kura-B1,2020.1.2,MacIntel,60,,,,,,,,,,,,,,,,,,,,,,,,
,,"[""space"",""space"",""space"",""space"",""space"",""space"",""space"",""space"",""space"",""space"",""space"",""space"",""space"",""space"",""space"",""space"",""space"",""space"",""space"",""space"",""space""]","[0.2128050000173971,1.1167500000447035,1.660935000050813,2.16464500001166,2.788784999982454,3.599099999992177,4.324785000062548,4.90878000005614,5.653045000042766,6.303135000052862,6.892779999994673,7.428835000027902,8.044910000055097,8.764835000038147,9.429914999986067,10.192860000068322,10.814209999982268,11.366265000076964,11.9361650000792,12.62092500005383,13.303060000063851]",space,0.750635,0.0,1.0,1.0,0.0,1.0,block_1/medium_t_92_2.wav,timbre,t,medium,92.0,1.17246814,14.21682188,,,,Yes,Bose sound sport in ear headphones,2,No,M,27,R,Yes,1,2020-09-07_11h57.44.574,kura-B1,2020.1.2,MacIntel,60,,,,,,,,,,,,,,,,,,,,,,,,
,,"[""space"",""space"",""space"",""space"",""space"",""space"",""space"",""space"",""space"",""space"",""space"",""space"",""space"",""space"",""space""]","[0.22548000002279878,1.7442850000225008,3.4627849999815226,5.26671500003431,5.872514999937266,6.472504999954253,7.070234999991953,7.989545000018552,8.724779999931343,9.600459999986924,10.342364999931306,11.09687499993015,11.746814999962226,12.449679999961518,13.184819999965839]",space,0.57854,0.0,2.0,2.0,2.0,1.0,block_1/weak_t_92_1.wav,timbre,t,weak,92.0,2.207238706,15.60342918,,,,Yes,Bose sound sport in ear headphones,2,No,M,27,R,Yes,1,2020-09-07_11h57.44.574,kura-B1,2020.1.2,MacIntel,60,,,,,,,,,,,,,,,,,,,,,,,,
,,"[""space"",""space"",""space"",""space"",""space"",""space"",""space"",""space"",""space"",""space"",""space"",""space"",""space"",""space"",""space"",""space"",""space"",""space"",""space"",""space"",""space""]","[0.4790250000078231,1.2407599999569356,1.8574099999386817,2.5438650000141934,3.2781899999827147,4.045380000025034,4.766979999956675,5.5189949999330565,6.2665049999486655,7.035189999965951,7.736629999941215,8.478890000027604,9.24704499996733,10.058039999916218,10.760104999993928,11.504439999931492,12.263849999988452,13.016189999994822,13.800554999965243,14.543079999973997,15.311104999971576]",space,0.641605,0.0,3.0,3.0,1.0,1.0,block_2/strong_n_81_1.wav,no,n,strong,81.0,1.854905178,16.81653783,,,,Yes,Bose sound sport in ear headphones,2,No,M,27,R,Yes,1,2020-09-07_11h57.44.574,kura-B1,2020.1.2,MacIntel,60,,,,,,,,,,,,,,,,,,,,,,,,
,,,,,,,,,,,block_1/medium_t_72_2.wav,timbre,t,medium,72.0,1.374562099,18.5083943,,,,Yes,Bose sound sport in ear headphones,2,No,M,27,R,Yes,1,2020-09-07_11h57.44.574,kura-B1,2020.1.2,MacIntel,60,space,4.397675,"[""space"",""space"",""space"",""space"",""space"",""space"",""space"",""space"",""space"",""space"",""space"",""space"",""space"",""space"",""space"",""space"",""space"",""space"",""space"",""space""]","[0.3602799999061972,0.9436349999159575,1.6955899999011308,2.4633799999719486,3.303734999964945,4.131649999995716,5.103619999950752,5.952835000003688,6.854149999911897,7.75957999995444,8.65874999994412,9.53582499991171,10.41645499994047,11.319625000003725,12.195754999993369,13.023509999969974,13.975539999897592,14.87157999991905,15.755774999968708,16.63162999995984]",space,0.57221,0.0,0.0,0.0,28.0,1.0,,,,,,,,,,,,,
,,,,,,,,,,,block_1/none_t_119_1.wav,timbre,t,none,119.0,1.970403652,15.3319456,,,,Yes,Bose sound sport in ear headphones,2,No,M,27,R,Yes,1,2020-09-07_11h57.44.574,kura-B1,2020.1.2,MacIntel,60,,,"[""space"",""space"",""space"",""space"",""space"",""space"",""space"",""space"",""space"",""space"",""space"",""space"",""space"",""space""]","[0.30954000004567206,2.0180200000759214,2.880559999961406,3.661255000042729,4.198805000050925,5.153999999980442,6.138144999975339,7.038814999978058,7.897935000015423,8.910700000007637,9.862595000071451,10.915150000015274,11.867214999976568,12.842000000062399]",space,0.42424,0.0,1.0,1.0,39.0,1.0,,,,,,,,,,,,,
,,,,,,,,,,,block_1/strong_t_119_2.wav,timbre,t,strong,119.0,2.38266194,11.99749187,,,,Yes,Bose sound sport in ear headphones,2,No,M,27,R,Yes,1,2020-09-07_11h57.44.574,kura-B1,2020.1.2,MacIntel,60,,,"[""space"",""space"",""space"",""space"",""space"",""space"",""space"",""space"",""space"",""space"",""space"",""space"",""space"",""space"",""space"",""space"",""space"",""space"",""space"",""space"",""space""]","[0.31088000000454485,0.7942999999504536,1.1440099999308586,1.5827399999834597,2.0604249999159947,2.5295299999415874,2.998234999948181,3.4320450000232086,3.9347599999746308,4.422759999986738,4.90219499997329,5.353269999963231,5.819879999966361,6.287649999954738,6.771899999934249,7.278829999966547,7.7862200000090525,8.294789999956265,8.825399999972433,9.262329999939539,9.728569999919273]",space,0.78232,0.0,2.0,2.0,31.0,1.0,,,,,,,,,,,,,
,,,,,,,,,,,block_1/strong_t_92_2.wav,timbre,t,strong,92.0,1.228007131,14.47607969,,,,Yes,Bose sound sport in ear headphones,2,No,M,27,R,Yes,1,2020-09-07_11h57.44.574,kura-B1,2020.1.2,MacIntel,60,,,"[""space"",""space"",""space"",""space"",""space"",""space"",""space"",""space"",""space"",""space"",""space"",""space"",""space"",""space"",""space"",""space"",""space"",""space"",""space"",""space"",""space""]","[0.2917650000890717,0.6327550000278279,1.344645000062883,2.064790000091307,2.768995000049472,3.4313200000906363,4.099080000072718,4.766685000038706,5.43570000003092,6.088760000071488,6.792944999993779,7.4651750000193715,8.144865000038408,8.793500000028871,9.460140000097454,10.145865000085905,10.831104999990202,11.488785000052303,12.120875000022352,12.80877500004135,13.47266500000842]",space,0.57594,0.0,3.0,3.0,3.0,1.0,,,,,,,,,,,,,
,,,,,,,,,,,block_1/weak_t_105_1.wav,timbre,t,weak,105.0,1.816913882,14.30793429,,,,Yes,Bose sound sport in ear headphones,2,No,M,27,R,Yes,1,2020-09-07_11h57.44.574,kura-B1,2020.1.2,MacIntel,60,,,"[""space"",""space"",""space"",""space"",""space"",""space"",""space"",""space"",""space"",""space"",""space"",""space"",""space"",""space"",""space"",""space"",""space"",""space"",""space""]","[0.2231899999314919,0.7467699999688193,1.6109350000042468,2.530989999999292,3.3869699999922886,4.200039999908768,4.58696499990765,5.069359999964945,5.584669999894686,6.107024999917485,6.937204999965616,7.794984999927692,8.240934999892488,8.667834999971092,9.427404999965802,10.246479999972507,10.927584999939427,11.565859999973327,12.26699999999255]",space,0.34166,0.0,4.0,4.0,0.0,1.0,,,,,,,,,,,,,
,,,,,,,,,,,block_1/strong_t_119_1.wav,timbre,t,strong,119.0,2.009888221,11.97709911,,,,Yes,Bose sound sport in ear headphones,2,No,M,27,R,Yes,1,2020-09-07_11h57.44.574,kura-B1,2020.1.2,MacIntel,60,,,"[""space"",""space"",""space"",""space"",""space"",""space"",""space"",""space"",""space"",""space"",""space"",""space"",""space"",""space"",""space"",""space"",""space"",""space"",""space"",""space"",""space""]","[0.3595350000541657,0.7267899999860674,1.1599949999945238,1.6306600000243634,2.118555000051856,2.613050000043586,3.0868000000482425,3.582894999999553,4.08300500002224,4.60054500005208,5.102889999980107,5.56992000003811,6.05284500005655,6.558584999991581,7.094725000089966,7.591420000069775,8.092434999998659,8.55986500007566,9.062770000076853,9.527985000051558,10.014910000027157]",space,0.555685,0.0,5.0,5.0,27.0,1.0,,,,,,,,,,,,,
,,,,,,,,,,,block_1/none_t_81_2.wav,timbre,t,none,81.0,1.650015351,20.40348474,,,,Yes,Bose sound sport in ear headphones,2,No,M,27,R,Yes,1,2020-09-07_11h57.44.574,kura-B1,2020.1.2,MacIntel,60,,,"[""space"",""space"",""space"",""space"",""space"",""space"",""space"",""space"",""space"",""space"",""space"",""space"",""space"",""space"",""space"",""space""]","[0.22660499997437,0.6208300000289455,1.4499399999622256,2.6630199999781325,4.568070000037551,6.321420000051148,7.3242349999491125,8.442425000015646,9.997484999941662,11.598699999973178,13.084260000032373,13.977564999950118,15.291064999997616,16.60533499997109,17.478239999967627,18.363125000032596]",space,0.47517,0.0,6.0,6.0,10.0,1.0,,,,,,,,,,,,,
,,,,,,,,,,,block_1/none_t_72_1.wav,timbre,t,none,72.0,2.370838854,21.3551926,,,,Yes,Bose sound sport in ear headphones,2,No,M,27,R,Yes,1,2020-09-07_11h57.44.574,kura-B1,2020.1.2,MacIntel,60,,,"[""space"",""space"",""space"",""space"",""space"",""space"",""space"",""space"",""space"",""space"",""space"",""space"",""space"",""space"",""space"",""space"",""space"",""space"",""space"",""space"",""space"",""space"",""space""]","[0.24731000000610948,0.6950450000585988,1.5669600000837818,2.463994999998249,3.3032250000396743,3.6710750000784174,4.486975000007078,5.343265000032261,6.142930000089109,7.0401450000936165,7.927115000085905,8.831340000033379,9.798950000084005,10.633620000095107,11.331060000113212,12.43906500004232,13.38655000005383,14.279095000005327,15.124000000068918,16.06288000009954,17.04714000003878,18.103130000061356,19.039215000113472]",space,0.44187,0.0,7.0,7.0,23.0,1.0,,,,,,,,,,,,,
,,,,,,,,,,,block_1/weak_t_105_2.wav,timbre,t,weak,105.0,2.298632362,16.24153486,,,,Yes,Bose sound sport in ear headphones,2,No,M,27,R,Yes,1,2020-09-07_11h57.44.574,kura-B1,2020.1.2,MacIntel,60,,,"[""space"",""space"",""space"",""space"",""space"",""space"",""space"",""space"",""space"",""space"",""space"",""space"",""space"",""space"",""space"",""space"",""space"",""space"",""space"",""space"",""space""]","[0.20863000000827014,1.0492450000019744,1.7693100000033155,2.5114949999842793,3.3369800000218675,3.965440000058152,4.667890000040643,5.440885000047274,6.22507000004407,6.956269999966025,7.329239999991842,7.945384999969974,8.725794999976642,9.309454999980517,9.945055000018328,10.5379950000206,11.214449999970384,11.815810000058264,12.366485000005923,12.857040000031702,13.536990000051446]",space,0.441835,0.0,8.0,8.0,2.0,1.0,,,,,,,,,,,,,
,,,,,,,,,,,block_1/medium_t_92_2.wav,timbre,t,medium,92.0,2.140863801,15.18521754,,,,Yes,Bose sound sport in ear headphones,2,No,M,27,R,Yes,1,2020-09-07_11h57.44.574,kura-B1,2020.1.2,MacIntel,60,,,"[""space"",""space"",""space"",""space"",""space"",""space"",""space"",""space"",""space"",""space"",""space"",""space"",""space"",""space"",""space"",""space"",""space"",""space"",""space"",""space"",""space""]","[0.2224500000011176,0.9126900000264868,1.4767850000644103,2.1303850000258535,2.7960800000000745,3.54706500004977,4.104750000056811,4.8008499999996275,5.50245500006713,6.270870000007562,6.90589000005275,7.473400000017136,8.112760000047274,8.845360000035726,9.49675000004936,10.18472500005737,10.796570000005886,11.4326000000583,12.08871000004001,12.65760500007309,13.319475000025705]",space,0.44319,0.0,9.0,9.0,32.0,1.0,,,,,,,,,,,,,
,,,,,,,,,,,block_1/strong_t_105_1.wav,timbre,t,strong,105.0,1.984276879,14.42695262,,,,Yes,Bose sound sport in ear headphones,2,No,M,27,R,Yes,1,2020-09-07_11h57.44.574,kura-B1,2020.1.2,MacIntel,60,,,"[""space"",""space"",""space"",""space"",""space"",""space"",""space"",""space"",""space"",""space"",""space"",""space"",""space"",""space"",""space"",""space""]","[3.105079999892041,3.738264999934472,4.355759999947622,4.993114999961108,5.626079999958165,6.249244999955408,6.877394999959506,7.511699999915436,8.153209999902174,8.833834999939427,9.444979999912903,10.121224999893457,10.753329999977723,11.386629999964498,12.072999999974854,12.681099999928847]",space,22.987685,0.0,10.0,10.0,20.0,1.0,,,,,,,,,,,,,
,,,,,,,,,,,block_1/none_t_105_2.wav,timbre,t,none,105.0,1.938353853,15.01835385,,,,Yes,Bose sound sport in ear headphones,2,No,M,27,R,Yes,1,2020-09-07_11h57.44.574,kura-B1,2020.1.2,MacIntel,60,,,"[""space"",""space"",""space"",""space"",""space"",""space"",""space"",""space"",""space"",""space"",""space"",""space"",""space"",""space"",""space"",""space"",""space"",""space"",""space""]","[0.2235649999929592,1.041510000010021,1.668969999998808,2.2784250000258908,2.997235000017099,3.697135000023991,4.420019999961369,5.049980000010692,5.790519999922253,6.536844999995083,7.305654999916442,7.9212749999715015,8.925924999988638,9.651734999963082,10.548109999974258,10.637449999921955,11.2677749999566,11.999044999945909,12.820044999942183]",space,1.64433,0.0,11.0,11.0,14.0,1.0,,,,,,,,,,,,,
,,,,,,,,,,,block_1/none_t_92_2.wav,timbre,t,none,92.0,1.89077586,18.43372371,,,,Yes,Bose sound sport in ear headphones,2,No,M,27,R,Yes,1,2020-09-07_11h57.44.574,kura-B1,2020.1.2,MacIntel,60,,,"[""space"",""space"",""space"",""space"",""space"",""space"",""space"",""space"",""space"",""space"",""space"",""space"",""space"",""space"",""space"",""space""]","[0.26629000005777925,1.080405000015162,2.184239999973215,2.8645849999738857,3.9687599999597296,5.104264999972656,6.296489999978803,7.392185000004247,8.280280000064522,9.443334999959916,10.646565000060946,11.704310000059195,12.73476500005927,13.88815999997314,14.906700000050478,15.987644999986514]",space,0.7133,0.0,12.0,12.0,18.0,1.0,,,,,,,,,,,,,
,,,,,,,,,,,block_1/medium_t_105_2.wav,timbre,t,medium,105.0,2.138064486,12.91584226,,,,Yes,Bose sound sport in ear headphones,2,No,M,27,R,Yes,1,2020-09-07_11h57.44.574,kura-B1,2020.1.2,MacIntel,60,,,"[""space"",""space"",""space"",""space"",""space"",""space"",""space"",""space"",""space"",""space"",""space"",""space"",""space"",""space"",""space"",""space"",""space"",""space"",""space""]","[0.25891500001307577,0.7085299999453127,1.2643499999539927,1.8165499999886379,2.4806600000010803,3.136629999964498,3.698589999927208,4.315829999977723,4.904484999948181,5.452354999957606,6.012624999973923,6.608499999972992,7.206144999945536,7.6326549999648705,8.190835000015795,8.759134999942034,9.336669999989681,9.946005000034347,10.564909999957308]",space,0.577295,0.0,13.0,13.0,19.0,1.0,,,,,,,,,,,,,
,,,,,,,,,,,block_1/none_t_105_1.wav,timbre,t,none,105.0,1.828771861,15.95090338,,,,Yes,Bose sound sport in ear headphones,2,No,M,27,R,Yes,1,2020-09-07_11h57.44.574,kura-B1,2020.1.2,MacIntel,60,,,"[""space"",""space"",""space"",""space"",""space"",""space"",""space"",""space"",""space"",""space"",""space"",""space"",""space"",""space"",""space"",""space"",""space"",""space"",""space"",""space"",""space""]","[0.21122500009369105,0.6436050001066178,1.2409050000132993,1.699195000110194,2.4280900000594556,3.063190000015311,3.8638100000098348,4.665730000007898,5.485435000038706,6.336285000084899,7.088660000008531,7.7957750000059605,8.579220000072382,9.238475000020117,9.807205000077374,10.803050000104122,11.51086000003852,12.14882000000216,12.951215000008233,13.615830000024289,14.404310000012629]",space,0.40743,0.0,14.0,14.0,17.0,1.0,,,,,,,,,,,,,
,,,,,,,,,,,block_1/weak_t_92_2.wav,timbre,t,weak,92.0,1.028761509,16.1946572,,,,Yes,Bose sound sport in ear headphones,2,No,M,27,R,Yes,1,2020-09-07_11h57.44.574,kura-B1,2020.1.2,MacIntel,60,,,"[""space"",""space"",""space"",""space"",""space"",""space"",""space"",""space"",""space"",""space"",""space"",""space"",""space"",""space"",""space"",""space"",""space"",""space"",""space"",""space""]","[0.3131849999772385,0.7591950000496581,1.5102699999697506,2.121129999984987,2.88945000001695,3.5529899999964982,4.337004999979399,5.12175000004936,5.919785000034608,6.771365000051446,7.572664999985136,8.442675000056624,9.295015000039712,10.062440000008792,10.86508000001777,11.666605000034906,12.473065000027418,13.251815000083297,14.053169999970123,14.841370000038296]",space,20.066185,0.0,15.0,15.0,37.0,1.0,,,,,,,,,,,,,
,,,,,,,,,,,block_1/weak_t_72_2.wav,timbre,t,weak,72.0,1.186310873,16.45742198,,,,Yes,Bose sound sport in ear headphones,2,No,M,27,R,Yes,1,2020-09-07_11h57.44.574,kura-B1,2020.1.2,MacIntel,60,,,"[""space"",""space"",""space"",""space"",""space"",""space"",""space"",""space"",""space"",""space"",""space"",""space"",""space"",""space"",""space"",""space"",""space"",""space"",""space"",""space"",""space""]","[0.2596449999837205,0.8071050000144169,1.226920000044629,1.770405000075698,2.418080000090413,3.3170800000661984,4.132650000043213,5.1220350000076,5.886705000069924,6.739550000056624,7.514000000082888,8.283070000004955,9.095810000086203,9.963705000001937,10.711660000029951,11.506025000009686,12.338420000043698,13.122120000072755,13.932935000048019,14.723319999990053,15.466170000028796]",space,0.424385,0.0,16.0,16.0,25.0,1.0,,,,,,,,,,,,,
,,,,,,,,,,,block_1/weak_t_81_2.wav,timbre,t,weak,81.0,1.961200407,15.36428431,,,,Yes,Bose sound sport in ear headphones,2,No,M,27,R,Yes,1,2020-09-07_11h57.44.574,kura-B1,2020.1.2,MacIntel,60,,,"[""space"",""space"",""space"",""space"",""space"",""space"",""space"",""space"",""space"",""space"",""space"",""space"",""space"",""space"",""space"",""space"",""space"",""space"",""space"",""space"",""space""]","[0.22618999995756894,0.6426750000100583,1.174669999978505,1.7778150000376627,2.4651450000237674,3.105115000042133,3.8493000000016764,4.534044999978505,5.225095000001602,5.90507500001695,6.621234999969602,7.345094999996945,8.041809999966063,8.883365000016056,9.594195000012405,10.314075000002049,11.001014999928884,11.631979999947362,12.27305499999784,13.01809000002686,13.653820000006817]",space,0.500455,0.0,17.0,17.0,5.0,1.0,,,,,,,,,,,,,
,,,,,,,,,,,block_1/weak_t_119_1.wav,timbre,t,weak,119.0,1.96015814,12.2695459,,,,Yes,Bose sound sport in ear headphones,2,No,M,27,R,Yes,1,2020-09-07_11h57.44.574,kura-B1,2020.1.2,MacIntel,60,,,"[""space"",""space"",""space"",""space"",""space"",""space"",""space"",""space"",""space"",""space"",""space"",""space"",""space"",""space"",""space"",""space"",""space"",""space""]","[0.20822000002954155,1.8074049999704584,2.548560000024736,2.899489999981597,3.6310649999650195,4.052135000005364,4.475850000046194,5.1840350000420585,5.771655000047758,6.123645000043325,6.779645000002347,7.075769999995828,7.639869999955408,8.211589999962598,8.825925000011921,9.395604999968782,9.931534999981523,10.496820000000298]",space,0.39055,0.0,18.0,18.0,12.0,1.0,,,,,,,,,,,,,
,,,,,,,,,,,block_1/none_t_119_2.wav,timbre,t,none,119.0,1.154672461,11.7267813,,,,Yes,Bose sound sport in ear headphones,2,No,M,27,R,Yes,1,2020-09-07_11h57.44.574,kura-B1,2020.1.2,MacIntel,60,,,"[""space"",""space"",""space"",""space"",""space"",""space"",""space"",""space"",""space"",""space"",""space"",""space"",""space"",""space"",""space"",""space"",""space"",""space"",""space""]","[0.32748500001616776,0.775980000034906,1.2461900000926107,1.8460750000085682,2.4493100000545382,3.097690000082366,3.6702250000089407,4.150360000086948,4.710339999990538,5.29499000008218,5.838265000027604,6.373885000008158,6.856180000002496,7.356205000076443,8.230205000028946,8.694365000003017,9.24702500004787,9.76628000009805,10.318220000015572]",space,0.497605,0.0,19.0,19.0,35.0,1.0,,,,,,,,,,,,,
,,,,,,,,,,,block_1/medium_t_92_1.wav,timbre,t,medium,92.0,2.038979261,15.74360511,,,,Yes,Bose sound sport in ear headphones,2,No,M,27,R,Yes,1,2020-09-07_11h57.44.574,kura-B1,2020.1.2,MacIntel,60,,,"[""space"",""space"",""space"",""space"",""space"",""space"",""space"",""space"",""space"",""space"",""space"",""space"",""space"",""space"",""space"",""space"",""space"",""space"",""space""]","[0.29115000006277114,1.0250249999808148,1.8778099999763072,2.596789999981411,3.3768550000386313,4.10097999998834,4.903195000020787,5.619440000038594,6.325064999982715,7.012940000044182,7.739230000064708,8.42921000008937,9.094105000025593,9.813130000024103,10.468970000045374,11.220790000050329,11.93183500005398,12.667145000072196,13.351690000039525]",space,0.38748,0.0,20.0,20.0,36.0,1.0,,,,,,,,,,,,,
,,,,,,,,,,,block_1/strong_t_72_2.wav,timbre,t,strong,72.0,2.307367753,17.72600721,,,,Yes,Bose sound sport in ear headphones,2,No,M,27,R,Yes,1,2020-09-07_11h57.44.574,kura-B1,2020.1.2,MacIntel,60,,,"[""space"",""space"",""space"",""space"",""space"",""space"",""space"",""space"",""space"",""space"",""space"",""space"",""space"",""space"",""space"",""space"",""space"",""space"",""space"",""space"",""space""]","[0.3092750000068918,0.9421800000127405,1.5012149999383837,2.2303850000025705,3.0372849999694154,3.8533299999544397,4.669394999975339,5.421220000018366,6.2200849999208,6.9733199999900535,7.739459999953397,8.549279999919236,9.397709999931976,10.21250499994494,11.01384499995038,11.821439999970607,12.619405000004917,13.385739999939688,14.157355000032112,14.925120000028983,15.791154999984428]",space,0.52133,0.0,21.0,21.0,6.0,1.0,,,,,,,,,,,,,
,,,,,,,,,,,block_1/medium_t_81_2.wav,timbre,t,medium,81.0,1.849325936,17.01676358,,,,Yes,Bose sound sport in ear headphones,2,No,M,27,R,Yes,1,2020-09-07_11h57.44.574,kura-B1,2020.1.2,MacIntel,60,,,"[""space"",""space"",""space"",""space"",""space"",""space"",""space"",""space"",""space"",""space"",""space"",""space"",""space"",""space"",""space"",""space"",""space"",""space"",""space"",""space""]","[0.30916499998420477,0.7602699999697506,1.20934999990277,2.016469999914989,2.872964999987744,3.7989700000034645,4.504679999896325,4.985964999999851,6.008669999893755,6.8536999999778345,7.624329999904148,8.417379999998957,9.17781499994453,9.984709999989718,10.752519999979995,11.581754999933764,12.392299999948591,13.145404999959283,14.0084799999604,14.760514999972656]",space,0.460675,0.0,22.0,22.0,7.0,1.0,,,,,,,,,,,,,
,,,,,,,,,,,block_1/strong_t_81_2.wav,timbre,t,strong,81.0,1.680376519,15.8366577,,,,Yes,Bose sound sport in ear headphones,2,No,M,27,R,Yes,1,2020-09-07_11h57.44.574,kura-B1,2020.1.2,MacIntel,60,,,"[""space"",""space"",""space"",""space"",""space"",""space"",""space"",""space"",""space"",""space"",""space"",""space"",""space"",""space"",""space"",""space"",""space"",""space"",""space"",""space"",""space""]","[0.26163500000257045,0.6260949999559671,1.3940050000092015,2.1648999999742955,2.898049999959767,3.648159999982454,4.354159999988042,5.074129999964498,5.803139999974519,6.490149999968708,7.188835000037216,7.914175000041723,8.698149999952875,9.36219000001438,10.098189999931492,10.85097000002861,11.570175000000745,12.26714999997057,12.970100000035018,13.70609999995213,14.47398999996949]",space,0.599885,0.0,23.0,23.0,26.0,1.0,,,,,,,,,,,,,
,,,,,,,,,,,block_1/medium_t_119_2.wav,timbre,t,medium,119.0,1.102065643,12.01802936,,,,Yes,Bose sound sport in ear headphones,2,No,M,27,R,Yes,1,2020-09-07_11h57.44.574,kura-B1,2020.1.2,MacIntel,60,,,"[""space"",""space"",""space"",""space"",""space"",""space"",""space"",""space"",""space"",""space"",""space"",""space"",""space"",""space"",""space"",""space"",""space"",""space"",""space"",""space"",""space""]","[0.2795649999752641,0.7758650000905618,1.2315899999812245,1.6295600000303239,2.0916100000031292,2.7136400000890717,3.213525000028312,3.8005200000479817,4.439520000014454,4.900885000010021,5.287499999976717,5.887555000022985,6.479730000020936,7.12257500004489,7.7234550000866875,8.279580000089481,8.776300000026822,9.394105000072159,10.028795000049286,10.62945500004571,11.146475000074133]",space,0.38336,0.0,24.0,24.0,38.0,1.0,,,,,,,,,,,,,
,,,,,,,,,,,block_1/weak_t_81_1.wav,timbre,t,weak,81.0,1.734429931,16.79973605,,,,Yes,Bose sound sport in ear headphones,2,No,M,27,R,Yes,1,2020-09-07_11h57.44.574,kura-B1,2020.1.2,MacIntel,60,,,"[""space"",""space"",""space"",""space"",""space"",""space"",""space"",""space"",""space"",""space"",""space"",""space"",""space"",""space"",""space"",""space"",""space"",""space"",""space"",""space""]","[0.24196500005200505,0.7760850000195205,1.3980750000337139,2.198175000026822,2.8702249999623746,3.5740699999732897,4.331765000009909,5.1687000000383705,5.974099999992177,6.8894149999832734,7.690425000037067,8.366189999971539,9.21042000001762,10.145265000057407,10.931585000013001,11.534134999965318,12.222154999966733,13.09464000002481,13.903649999992922,14.78929500002414]",space,0.324415,0.0,25.0,25.0,8.0,1.0,,,,,,,,,,,,,
,,,,,,,,,,,block_1/none_t_72_2.wav,timbre,t,none,72.0,1.436515358,19.69406638,,,,Yes,Bose sound sport in ear headphones,2,No,M,27,R,Yes,1,2020-09-07_11h57.44.574,kura-B1,2020.1.2,MacIntel,60,,,"[""space"",""space"",""space"",""space"",""space"",""space"",""space"",""space"",""space"",""space"",""space"",""space"",""space"",""space"",""space"",""space"",""space"",""space"",""space"",""space"",""space"",""space"",""space"",""space"",""space"",""space"",""space"",""space"",""space"",""space"",""space"",""space"",""space"",""space""]","[0.2086350000463426,0.7285700000356883,1.5609649999532849,2.2330249999649823,2.7636550000170246,3.2008500000229105,3.700135000050068,4.266545000020415,4.8407449999358505,5.452240000013262,5.969644999946468,6.489100000006147,6.992994999978691,7.497044999967329,8.016709999996237,8.528999999980442,9.049744999967515,9.562410000013188,10.048644999973476,10.565214999951422,11.098069999949075,11.648825000040233,12.195930000045337,12.736625000019558,13.216524999937974,13.74469500000123,14.296789999934845,14.896584999980405,15.448665000032634,15.99269500002265,16.54157999996096,17.0927199999569,17.680664999992587,18.216574999969453]",space,0.374525,0.0,26.0,26.0,21.0,1.0,,,,,,,,,,,,,
,,,,,,,,,,,block_1/weak_t_119_2.wav,timbre,t,weak,119.0,1.131621257,11.40046479,,,,Yes,Bose sound sport in ear headphones,2,No,M,27,R,Yes,1,2020-09-07_11h57.44.574,kura-B1,2020.1.2,MacIntel,60,,,"[""space"",""space"",""space"",""space"",""space"",""space"",""space"",""space"",""space"",""space"",""space"",""space"",""space"",""space"",""space"",""space"",""space"",""space"",""space"",""space""]","[0.26202999998349696,0.846239999984391,1.429865000071004,1.9959550000494346,2.5350600000238046,3.047720000031404,3.5582200000062585,4.116065000067465,4.602175000007264,5.018610000028275,5.421915000071749,5.855020000017248,6.404615000006743,6.922194999991916,7.4300400000065565,7.934265000047162,8.445984999998473,8.966215000022203,9.534014999982901,10.086495000054128]",space,0.524345,0.0,27.0,27.0,13.0,1.0,,,,,,,,,,,,,
,,,,,,,,,,,block_1/strong_t_72_1.wav,timbre,t,strong,72.0,2.410899129,18.9853209,,,,Yes,Bose sound sport in ear headphones,2,No,M,27,R,Yes,1,2020-09-07_11h57.44.574,kura-B1,2020.1.2,MacIntel,60,,,"[""space"",""space"",""space"",""space"",""space"",""space"",""space"",""space"",""space"",""space"",""space"",""space"",""space"",""space"",""space"",""space"",""space"",""space"",""space"",""space"",""space""]","[0.7275549999903888,1.1141699999570847,1.9858099999837577,2.865734999999404,3.6635000000242144,4.505709999939427,5.369805000023916,6.220644999993965,7.055165000027046,7.8659500000067055,8.681674999999814,9.49519499996677,10.282645000028424,11.115869999979623,11.970369999995455,12.785909999976866,13.577730000019073,14.425829999963753,15.255890000029467,16.082010000012815,16.844144999980927]",space,0.514915,0.0,28.0,28.0,9.0,1.0,,,,,,,,,,,,,
,,,,,,,,,,,block_1/strong_t_92_1.wav,timbre,t,strong,92.0,1.394968876,12.52589858,,,,Yes,Bose sound sport in ear headphones,2,No,M,27,R,Yes,1,2020-09-07_11h57.44.574,kura-B1,2020.1.2,MacIntel,60,,,"[""space"",""space"",""space"",""space"",""space"",""space"",""space"",""space"",""space"",""space"",""space"",""space"",""space"",""space"",""space"",""space"",""space"",""space"",""space"",""space""]","[0.592729999916628,1.2072799999732524,1.6346649999031797,2.1282549999887124,2.695344999898225,3.2986099999397993,3.865419999929145,4.433319999952801,5.0010849999962375,5.585394999943674,6.122509999899194,6.690584999974817,7.290754999965429,7.89160999993328,8.450704999966547,8.996609999914654,9.61867999995593,10.154920000000857,10.748234999948181,11.306609999970533]",space,0.62786,0.0,29.0,29.0,1.0,1.0,,,,,,,,,,,,,
,,,,,,,,,,,block_1/medium_t_72_1.wav,timbre,t,medium,72.0,1.564818535,18.8498072,,,,Yes,Bose sound sport in ear headphones,2,No,M,27,R,Yes,1,2020-09-07_11h57.44.574,kura-B1,2020.1.2,MacIntel,60,,,"[""space"",""space"",""space"",""space"",""space"",""space"",""space"",""space"",""space"",""space"",""space"",""space"",""space"",""space"",""space"",""space"",""space""]","[0.2076299999607727,0.942259999923408,1.6300699999555945,2.431739999912679,3.3999099999200553,4.316784999915399,5.271684999926947,6.171459999983199,7.008354999939911,7.97378999995999,11.332184999948367,12.234554999973625,13.22363999998197,14.288959999918006,15.047704999917187,15.89574999990873,16.74609499995131]",space,25.996195,0.0,30.0,30.0,24.0,1.0,,,,,,,,,,,,,
,,,,,,,,,,,block_1/none_t_81_1.wav,timbre,t,none,81.0,1.412848736,15.74926597,,,,Yes,Bose sound sport in ear headphones,2,No,M,27,R,Yes,1,2020-09-07_11h57.44.574,kura-B1,2020.1.2,MacIntel,60,,,"[""space"",""space"",""space"",""space"",""space"",""space"",""space"",""space"",""space"",""space"",""space"",""space"",""space"",""space"",""space"",""space"",""space"",""space"",""space"",""space"",""space"",""space"",""space"",""space"",""space"",""space"",""space"",""space""]","[0.22395999997388572,0.7329449999378994,1.1648649999406189,1.7141249999403954,2.2117299999808893,2.809045000001788,3.2692299999762326,3.814909999957308,4.350259999977425,4.896470000036061,5.4342999999644235,5.953514999942854,6.472139999968931,6.957014999934472,7.49022999999579,8.013949999934994,8.490585000021383,8.92640500003472,9.443039999925531,9.878299999982119,10.412759999977425,11.014480000012554,11.498670000000857,12.01550999993924,12.55733500001952,13.064864999963902,13.586110000032932,14.156914999941364]",space,17.86289,0.0,31.0,31.0,11.0,1.0,,,,,,,,,,,,,
,,,,,,,,,,,block_1/medium_t_81_1.wav,timbre,t,medium,81.0,2.382699777,16.54165669,,,,Yes,Bose sound sport in ear headphones,2,No,M,27,R,Yes,1,2020-09-07_11h57.44.574,kura-B1,2020.1.2,MacIntel,60,,,"[""space"",""space"",""space"",""space"",""space"",""space"",""space"",""space"",""space"",""space"",""space"",""space"",""space"",""space"",""space"",""space"",""space"",""space"",""space""]","[0.2964650000212714,0.8418350000865757,1.7113850000314415,2.6116600000532344,3.4459849999984726,4.148720000055619,4.904530000058003,5.640720000024885,6.376535000046715,7.117500000051223,7.922230000025593,8.691170000005513,9.4258550000377,10.145860000047833,10.832550000050105,11.5795550000621,12.332070000004023,13.056689999997616,13.80856000003405]",space,0.65615,0.0,32.0,32.0,4.0,1.0,,,,,,,,,,,,,
,,,,,,,,,,,block_1/medium_t_105_1.wav,timbre,t,medium,105.0,2.180706288,14.37050221,,,,Yes,Bose sound sport in ear headphones,2,No,M,27,R,Yes,1,2020-09-07_11h57.44.574,kura-B1,2020.1.2,MacIntel,60,,,"[""space"",""space"",""space"",""space"",""space"",""space"",""space"",""space"",""space"",""space"",""space"",""space"",""space"",""space"",""space"",""space"",""space"",""space"",""space"",""space""]","[0.2662799999816343,0.8434650000417605,1.5758099999511614,2.1281299999682233,2.9380749999545515,3.5220899999840185,4.215564999962226,4.800165000022389,5.442109999945387,5.967534999945201,6.588179999962449,7.222160000004806,7.811054999940097,8.474794999929145,9.130280000041239,9.802249999949709,10.462945000035688,11.122364999959245,11.769934999989346,12.416119999950752]",space,0.4073,0.0,33.0,33.0,16.0,1.0,,,,,,,,,,,,,
,,,,,,,,,,,block_1/strong_t_105_2.wav,timbre,t,strong,105.0,1.268100708,12.09472202,,,,Yes,Bose sound sport in ear headphones,2,No,M,27,R,Yes,1,2020-09-07_11h57.44.574,kura-B1,2020.1.2,MacIntel,60,,,"[""space"",""space"",""space"",""space"",""space"",""space"",""space"",""space"",""space"",""space"",""space"",""space"",""space"",""space"",""space"",""space"",""space"",""space"",""space"",""space"",""space""]","[0.257829999900423,0.6416650000028312,1.0943549999501556,1.645659999921918,2.1991099999286234,2.763039999990724,3.30282499990426,3.854234999977052,4.383084999979474,4.934654999990016,5.470024999929592,6.003449999960139,6.537394999992102,7.089314999990165,7.6412149999523535,8.198984999908134,8.76637500000652,9.310164999915287,9.886189999990165,10.414234999916516,10.964254999998957]",space,0.49983,0.0,34.0,34.0,22.0,1.0,,,,,,,,,,,,,
,,,,,,,,,,,block_1/none_t_92_1.wav,timbre,t,none,92.0,2.134114385,14.96545225,,,,Yes,Bose sound sport in ear headphones,2,No,M,27,R,Yes,1,2020-09-07_11h57.44.574,kura-B1,2020.1.2,MacIntel,60,,,"[""space"",""space"",""space"",""space"",""space"",""space"",""space"",""space"",""space"",""space"",""space"",""space"",""space"",""space"",""space"",""space"",""space"",""space"",""space"",""space"",""space"",""space"",""space""]","[0.18992999999318272,0.6820049999514595,1.361934999935329,1.9790349999675527,2.529744999948889,3.0956699999514967,3.6819599999580532,4.299319999990985,4.833869999973103,5.434690000023693,5.986045000026934,6.59401500003878,7.2099649999290705,7.7717849999899045,8.323904999997467,8.897894999943674,9.426579999970272,10.027824999997392,10.557954999967478,10.995875000022352,11.479670000029728,12.001794999931008,12.56856499996502]",space,0.40738,0.0,35.0,35.0,15.0,1.0,,,,,,,,,,,,,
,,,,,,,,,,,block_1/weak_t_92_1.wav,timbre,t,weak,92.0,1.851617747,15.24780822,,,,Yes,Bose sound sport in ear headphones,2,No,M,27,R,Yes,1,2020-09-07_11h57.44.574,kura-B1,2020.1.2,MacIntel,60,,,"[""space"",""space"",""space"",""space"",""space"",""space"",""space"",""space"",""space"",""space"",""space"",""space"",""space"",""space"",""space"",""space"",""space"",""space"",""space"",""space"",""space""]","[0.23059500008821487,0.678565000067465,1.2933350000530481,1.8274650000967085,2.350689999992028,2.94753500004299,3.534790000063367,4.206624999991618,5.001860000076704,5.703120000078343,6.326530000078492,6.988250000053085,7.539610000094399,8.246589999995194,8.910615000058897,9.56303000007756,10.302610000013374,10.965904999990016,11.633400000049733,12.334670000011101,12.958550000097603]",space,0.509355,0.0,36.0,36.0,33.0,1.0,,,,,,,,,,,,,
,,,,,,,,,,,block_1/weak_t_72_1.wav,timbre,t,weak,72.0,1.20875322,18.28390061,,,,Yes,Bose sound sport in ear headphones,2,No,M,27,R,Yes,1,2020-09-07_11h57.44.574,kura-B1,2020.1.2,MacIntel,60,,,"[""space"",""space"",""space"",""space"",""space"",""space"",""space"",""space"",""space"",""space"",""space"",""space"",""space"",""space"",""space"",""space"",""space"",""space"",""space"",""space"",""space"",""space"",""space"",""space"",""space""]","[0.2902849999954924,0.6993899999652058,1.2112999999662861,1.851425000000745,2.575529999914579,3.2980899999383837,4.067289999919012,4.685124999959953,5.431134999962524,6.211364999995567,6.937014999915846,7.705914999940433,8.207674999954179,8.779370000003837,9.531384999980219,10.2958599999547,10.987280000001192,11.667374999960884,12.303160000010394,13.26913999998942,13.886100000003353,14.60512999992352,15.348494999925606,16.125194999971427,16.8292599999113]",space,0.57519,0.0,37.0,37.0,29.0,1.0,,,,,,,,,,,,,
,,,,,,,,,,,block_1/strong_t_81_1.wav,timbre,t,strong,81.0,1.303718429,15.55909258,,,,Yes,Bose sound sport in ear headphones,2,No,M,27,R,Yes,1,2020-09-07_11h57.44.574,kura-B1,2020.1.2,MacIntel,60,,,"[""space"",""space"",""space"",""space"",""space"",""space"",""space"",""space"",""space"",""space"",""space"",""space"",""space"",""space"",""space"",""space"",""space"",""space"",""space"",""space"",""space""]","[0.508534999913536,0.8831749999662861,1.6769949999870732,2.4189349999651313,3.1148199999006465,3.8192399999825284,4.533824999933131,5.270090000005439,6.00387499993667,6.704964999924414,7.395045000012033,8.142384999897331,8.838749999995343,9.543324999976903,10.250954999937676,10.980484999949113,11.680590000003576,12.385899999993853,13.135260000010021,13.827064999961294,14.520729999989271]",space,0.41461,0.0,38.0,38.0,30.0,1.0,,,,,,,,,,,,,
,,,,,,,,,,,block_1/medium_t_119_1.wav,timbre,t,medium,119.0,1.91338692,12.93819418,,,,Yes,Bose sound sport in ear headphones,2,No,M,27,R,Yes,1,2020-09-07_11h57.44.574,kura-B1,2020.1.2,MacIntel,60,,,"[""space"",""space"",""space"",""space"",""space"",""space"",""space"",""space"",""space"",""space"",""space"",""space"",""space"",""space"",""space"",""space"",""space"",""space"",""space"",""space""]","[0.22713000001385808,0.8670250000432134,1.6444300001021475,2.20323000010103,2.8509499999927357,3.5550400000065565,4.2193650000263005,4.851130000082776,5.475065000005998,5.969615000067279,6.4548450000584126,6.995075000100769,7.540140000055544,8.10006000008434,8.611105000018142,9.112840000074357,9.644750000094064,10.199025000096299,10.715445000096224,11.235285000060685]",space,0.499485,0.0,39.0,39.0,34.0,1.0,,,,,,,,,,,,,
,,,,,,,,,,,block_2/weak_n_81_2.wav,no,n,weak,81.0,1.213149696,13.09673246,,,,Yes,Bose sound sport in ear headphones,2,No,M,27,R,Yes,1,2020-09-07_11h57.44.574,kura-B1,2020.1.2,MacIntel,60,,,,,,,,,,,,space,71.33337,"[""space"",""space"",""space"",""space"",""space"",""space"",""space"",""space"",""space"",""space"",""space"",""space"",""space"",""space"",""space"",""space"",""space"",""space"",""space"",""space"",""space""]","[0.4659349999856204,1.0144800000125542,1.602019999991171,2.200349999940954,2.7833349999273196,3.4260149999754503,3.9221850000321865,4.490209999959916,5.107115000020713,5.641999999992549,6.275919999927282,6.826005000039004,7.378135000006296,7.996504999930039,8.634079999988899,9.26465999998618,9.831879999954253,10.386044999933802,10.922125000040978,11.502895000041462,12.103995000012219]",space,0.827185,0.0,0.0,0.0,32.0,1.0,,
,,,,,,,,,,,block_2/strong_n_81_1.wav,no,n,strong,81.0,1.085814619,16.04744727,,,,Yes,Bose sound sport in ear headphones,2,No,M,27,R,Yes,1,2020-09-07_11h57.44.574,kura-B1,2020.1.2,MacIntel,60,,,,,,,,,,,,,,"[""space"",""space"",""space"",""space"",""space"",""space"",""space"",""space"",""space"",""space"",""space"",""space"",""space"",""space"",""space"",""space"",""space"",""space"",""space"",""space"",""space""]","[0.47239500004798174,0.6903000000165775,1.6425649999873713,2.4268600000068545,3.149650000035763,3.9008250000188127,4.685330000007525,5.4368000000249594,6.260770000051707,6.988755000056699,7.738920000032522,8.492719999980181,9.276380000053905,9.943500000052154,10.684740000055172,11.463865000056103,12.1990400000941,12.983720000018366,13.753529999987222,14.453145000035875,15.212705000070855]",space,0.57476,0.0,1.0,1.0,12.0,1.0,,
,,,,,,,,,,,block_2/medium_n_81_1.wav,no,n,medium,81.0,1.997436703,15.99943217,,,,Yes,Bose sound sport in ear headphones,2,No,M,27,R,Yes,1,2020-09-07_11h57.44.574,kura-B1,2020.1.2,MacIntel,60,,,,,,,,,,,,,,"[""space"",""space"",""space"",""space"",""space"",""space"",""space"",""space"",""space"",""space"",""space"",""space"",""space"",""space"",""space"",""space"",""space"",""space"",""space"",""space"",""space""]","[0.23103999998420477,0.8760000000474975,1.5110000000568107,2.245865000062622,2.950980000081472,3.7144150000531226,4.50124999997206,5.169289999990724,5.855199999990873,6.520774999982677,7.202530000009574,7.895260000019334,8.663075000047684,9.399035000009462,10.080790000036359,10.783075000043027,11.455130000016652,12.119004999985918,12.83898500003852,13.527000000001863,14.206795000005513]",space,0.459355,0.0,2.0,2.0,31.0,1.0,,
,,,,,,,,,,,block_2/none_n_105_2.wav,no,n,none,105.0,1.955418763,16.59637114,,,,Yes,Bose sound sport in ear headphones,2,No,M,27,R,Yes,1,2020-09-07_11h57.44.574,kura-B1,2020.1.2,MacIntel,60,,,,,,,,,,,,,,"[""space"",""space"",""space"",""space"",""space"",""space"",""space"",""space"",""space"",""space"",""space"",""space"",""space"",""space"",""space"",""space"",""space"",""space"",""space"",""space"",""space"",""space"",""space"",""space"",""space"",""space"",""space"",""space"",""space"",""space"",""space""]","[0.775374999968335,1.3672849999275059,1.8632149999029934,2.3291699999244884,2.799239999963902,3.313804999925196,3.7806349999736995,4.248655000003055,4.735114999930374,5.251504999934696,5.6552499999525025,6.1271649999544024,6.655135000008158,7.13906999991741,7.640574999968521,8.074274999904446,8.47921999997925,8.895184999913909,9.327470000018366,9.799354999908246,10.211994999903254,10.671254999935627,11.151084999903105,11.612369999988005,11.991379999904893,12.367959999945015,12.784204999916255,13.185274999937974,13.668940000003204,14.121049999957904,14.559279999928549]",space,0.62479,0.0,3.0,3.0,4.0,1.0,,
,,,,,,,,,,,block_2/strong_n_105_1.wav,no,n,strong,105.0,1.056930825,14.45525282,,,,Yes,Bose sound sport in ear headphones,2,No,M,27,R,Yes,1,2020-09-07_11h57.44.574,kura-B1,2020.1.2,MacIntel,60,,,,,,,,,,,,,,"[""space"",""space"",""space"",""space"",""space"",""space"",""space"",""space"",""space"",""space"",""space"",""space"",""space"",""space"",""space"",""space"",""space"",""space"",""space"",""space"",""space""]","[0.3990849999245256,0.80887999990955,1.477989999926649,2.1983199999667704,2.8639649999095127,3.533989999908954,4.190059999935329,4.855299999937415,5.5685399998910725,6.174189999932423,6.872899999958463,7.55699499999173,8.214129999978468,8.923459999961779,9.614504999946803,10.302159999962896,10.996224999893457,11.670154999941587,12.36766499991063,13.006239999900572,13.65414499992039]",space,0.80856,0.0,4.0,4.0,13.0,1.0,,
,,,,,,,,,,,block_2/strong_n_92_2.wav,no,n,strong,92.0,1.994887374,15.49683749,,,,Yes,Bose sound sport in ear headphones,2,No,M,27,R,Yes,1,2020-09-07_11h57.44.574,kura-B1,2020.1.2,MacIntel,60,,,,,,,,,,,,,,"[""space"",""space"",""space"",""space"",""space"",""space"",""space"",""space"",""space"",""space"",""space"",""space"",""space"",""space"",""space"",""space"",""space"",""space"",""space"",""space"",""space""]","[0.32770999998319894,0.7274350000079721,1.2474550000624731,1.928635000018403,2.61245500005316,3.2806750000454485,3.9524850000161678,4.666674999985844,5.359410000033677,6.019945000065491,6.743374999961816,7.440799999982119,8.158144999993965,8.831815000041388,9.535494999960065,10.263514999998733,10.96758499997668,11.632085000048392,12.335540000000037,13.040039999992587,13.736815000069328]",space,0.510305,0.0,5.0,5.0,39.0,1.0,,
,,,,,,,,,,,block_2/medium_n_119_1.wav,no,n,medium,119.0,1.010172499,10.57697522,,,,Yes,Bose sound sport in ear headphones,2,No,M,27,R,Yes,1,2020-09-07_11h57.44.574,kura-B1,2020.1.2,MacIntel,60,,,,,,,,,,,,,,"[""space"",""space"",""space"",""space"",""space"",""space"",""space"",""space"",""space"",""space"",""space"",""space"",""space"",""space"",""space"",""space"",""space"",""space"",""space"",""space""]","[0.27424499997869134,0.7316599999321625,1.2115249999333173,1.6611399999819696,2.1637399999890476,2.6835900000296533,3.1803499999223277,3.6984049999155104,4.199399999924935,4.701239999965765,5.234489999944344,5.718905000016093,6.216149999992922,6.708184999995865,7.179609999991953,7.699945000000298,8.21181499992963,8.699744999990799,9.212449999991804,9.72756999998819]",space,0.6463,0.0,6.0,6.0,24.0,1.0,,
,,,,,,,,,,,block_2/none_n_105_1.wav,no,n,none,105.0,1.731065446,15.85351443,,,,Yes,Bose sound sport in ear headphones,2,No,M,27,R,Yes,1,2020-09-07_11h57.44.574,kura-B1,2020.1.2,MacIntel,60,,,,,,,,,,,,,,"[""space"",""space"",""space"",""space"",""space"",""space"",""space"",""space"",""space"",""space"",""space"",""space"",""space"",""space"",""space"",""space"",""space"",""space"",""space"",""space"",""space"",""space"",""space"",""space"",""space"",""space"",""space"",""space"",""space"",""space"",""space"",""space"",""space"",""space"",""space"",""space""]","[0.22314999997615814,0.6666500000283122,1.0671350000193343,1.527280000038445,1.9304550000233576,2.3467599999858066,2.7864950000075623,3.012620000052266,3.4028300000354648,3.849060000036843,4.3501049999613315,4.770435000071302,5.2265400000615045,5.586789999972098,5.938414999982342,6.288124999962747,6.658554999972694,7.0746600000420585,7.530544999986887,7.898700000019744,8.292065000045113,8.746709999977611,9.17772999999579,9.618475000024773,10.01250000006985,10.328645000001416,10.68253500002902,11.131370000075549,11.532030000002123,11.965955000021495,12.400555000058375,12.786650000023656,13.170430000056513,13.586759999976493,13.922619999968447,14.288350000046194]",space,0.45849,0.0,7.0,7.0,0.0,1.0,,
,,,,,,,,,,,block_2/medium_n_105_1.wav,no,n,medium,105.0,1.976395362,15.17435455,,,,Yes,Bose sound sport in ear headphones,2,No,M,27,R,Yes,1,2020-09-07_11h57.44.574,kura-B1,2020.1.2,MacIntel,60,,,,,,,,,,,,,,"[""space"",""space"",""space"",""space"",""space"",""space"",""space"",""space"",""space"",""space"",""space"",""space"",""space"",""space"",""space"",""space"",""space"",""space"",""space"",""space"",""space"",""space"",""space"",""space""]","[0.658144999993965,1.1415149999083951,1.540889999945648,2.0958049999317154,2.6289799999212846,3.1799749999772757,3.639909999910742,4.065104999928735,4.583570000017062,5.149589999928139,5.668594999937341,6.288969999994151,6.888990000006743,7.4399699999485165,8.06513499992434,8.691664999932982,9.21546999993734,9.713284999947064,10.29171000001952,10.847444999963045,11.351479999953881,11.935449999989942,12.623324999934994,13.319559999974445]",space,0.643545,0.0,8.0,8.0,7.0,1.0,,
,,,,,,,,,,,block_2/none_n_92_2.wav,no,n,none,92.0,2.007703886,14.64294198,,,,Yes,Bose sound sport in ear headphones,2,No,M,27,R,Yes,1,2020-09-07_11h57.44.574,kura-B1,2020.1.2,MacIntel,60,,,,,,,,,,,,,,"[""space"",""space"",""space"",""space"",""space"",""space"",""space"",""space"",""space"",""space"",""space"",""space"",""space"",""space"",""space"",""space"",""space"",""space"",""space"",""space"",""space"",""space"",""space"",""space"",""space"",""space"",""space""]","[0.3137900000438094,0.7290050000883639,1.2011150000616908,1.5420400000875816,1.9609950000885874,2.341465000063181,2.7464100000215694,3.146335000055842,3.676520000095479,4.152905000024475,4.616950000054203,5.249320000060834,5.717885000049137,6.177100000088103,6.686375000048429,7.144990000058897,7.605270000058226,8.08099500008393,8.545020000077784,9.016900000046007,9.559045000001788,10.137145000044256,10.646350000053644,11.233104999992065,11.697530000004917,12.168880000011995,12.683130000019446]",space,0.515415,0.0,9.0,9.0,23.0,1.0,,
,,,,,,,,,,,block_2/weak_n_72_1.wav,no,n,weak,72.0,2.399201816,17.30954195,,,,Yes,Bose sound sport in ear headphones,2,No,M,27,R,Yes,1,2020-09-07_11h57.44.574,kura-B1,2020.1.2,MacIntel,60,,,,,,,,,,,,,,"[""space"",""space"",""space"",""space"",""space"",""space"",""space"",""space"",""space"",""space"",""space"",""space"",""space"",""space"",""space"",""space"",""space"",""space"",""space"",""space"",""space""]","[0.2162649999372661,0.768489999929443,1.600194999948144,2.379769999999553,3.1371499999659136,3.9843000000109896,4.688064999994822,5.4882399999769405,6.253950000042096,7.022424999973737,7.806680000037886,8.525634999969043,9.232175000011921,9.984244999941438,10.720194999943487,11.515759999980219,12.251180000021122,12.970220000017434,13.60964000003878,14.288285000016913,15.105680000036955]",space,0.48061,0.0,10.0,10.0,15.0,1.0,,
,,,,,,,,,,,block_2/weak_n_72_2.wav,no,n,weak,72.0,1.8411197,21.80211743,,,,Yes,Bose sound sport in ear headphones,2,No,M,27,R,Yes,1,2020-09-07_11h57.44.574,kura-B1,2020.1.2,MacIntel,60,,,,,,,,,,,,,,"[""space"",""space"",""space"",""space"",""space"",""space"",""space"",""space"",""space"",""space"",""space"",""space"",""space"",""space"",""space"",""space"",""space"",""space"",""space"",""space"",""space""]","[0.21305000002030283,0.6745100000407547,1.4270050000632182,2.501170000061393,3.4812450000317767,4.421860000002198,5.420980000053532,6.044985000044107,6.813165000057779,7.752775000059046,8.72604500001762,9.728000000002794,10.747870000079274,11.901130000012927,13.052965000038967,14.103430000017397,15.223835000069812,16.276930000050925,17.29377500002738,18.30161500000395,19.344195000012405]",space,0.45707,0.0,11.0,11.0,11.0,1.0,,
,,,,,,,,,,,block_2/weak_n_105_2.wav,no,n,weak,105.0,1.251032373,14.19257432,,,,Yes,Bose sound sport in ear headphones,2,No,M,27,R,Yes,1,2020-09-07_11h57.44.574,kura-B1,2020.1.2,MacIntel,60,,,,,,,,,,,,,,"[""space"",""space"",""space"",""space"",""space"",""space"",""space"",""space"",""space"",""space"",""space"",""space"",""space"",""space"",""space"",""space"",""space"",""space"",""space"",""space""]","[0.264009999926202,0.9259149999124929,1.552049999940209,2.279579999973066,2.7643999999854714,3.3036149999825284,3.9358050000155345,4.536465000011958,5.191884999978356,5.91989499994088,6.695734999957494,7.447909999988042,8.15784999995958,8.860379999969155,9.583764999988489,10.044905000017025,10.553659999975935,11.287829999928363,11.953969999914989,12.608654999989085]",space,0.608665,0.0,12.0,12.0,26.0,1.0,,
,,,,,,,,,,,block_2/strong_n_105_2.wav,no,n,strong,105.0,1.030135556,14.17553238,,,,Yes,Bose sound sport in ear headphones,2,No,M,27,R,Yes,1,2020-09-07_11h57.44.574,kura-B1,2020.1.2,MacIntel,60,,,,,,,,,,,,,,"[""space"",""space"",""space"",""space"",""space"",""space"",""space"",""space"",""space"",""space"",""space"",""space"",""space"",""space"",""space"",""space"",""space"",""space"",""space"",""space""]","[0.6790150000015274,1.3606800000416115,2.1350450000027195,2.8482899999944493,3.54867499996908,4.207070000004023,4.822830000077374,5.471009999979287,6.111129999975674,6.771735000074841,7.4765400000615045,8.126984999980778,8.727090000058524,9.410965000046417,10.07117000001017,10.718989999964833,11.36714500002563,12.016195000032894,12.651450000004843,13.327270000008866]",space,0.578495,0.0,13.0,13.0,9.0,1.0,,
,,,,,,,,,,,block_2/none_n_119_2.wav,no,n,none,119.0,2.143940737,13.70121965,,,,Yes,Bose sound sport in ear headphones,2,No,M,27,R,Yes,1,2020-09-07_11h57.44.574,kura-B1,2020.1.2,MacIntel,60,,,,,,,,,,,,,,"[""space"",""space"",""space"",""space"",""space"",""space"",""space"",""space"",""space"",""space"",""space"",""space"",""space"",""space"",""space"",""space"",""space"",""space"",""space"",""space"",""space"",""space"",""space"",""space"",""space"",""space"",""space"",""space""]","[0.2088299999013543,0.6257200000109151,1.1276450000004843,1.5396699999691918,1.9775249999947846,2.3194949999451637,2.6802049999823794,3.0618299999041483,3.414134999969974,3.839549999916926,4.287694999948144,4.7332499999320135,5.1171399999875575,5.487785000004806,5.886279999976978,6.304550000000745,6.705074999947101,7.247494999901392,7.72749499999918,8.242274999967776,8.708754999912344,9.095529999933206,9.494574999902397,9.951479999930598,10.397129999939352,10.860969999921508,11.319399999920279,11.807659999933094]",space,0.498175,0.0,14.0,14.0,25.0,1.0,,
,,,,,,,,,,,block_2/none_n_81_1.wav,no,n,none,81.0,1.160099605,17.42268464,,,,Yes,Bose sound sport in ear headphones,2,No,M,27,R,Yes,1,2020-09-07_11h57.44.574,kura-B1,2020.1.2,MacIntel,60,,,,,,,,,,,,,,"[""space"",""space"",""space"",""space"",""space"",""space"",""space"",""space"",""space"",""space"",""space"",""space"",""space"",""space"",""space"",""space"",""space"",""space"",""space"",""space"",""space"",""space"",""space"",""space"",""space"",""space"",""space"",""space"",""space"",""space"",""space"",""space"",""space"",""space"",""space"",""space""]","[0.22264000005088747,0.5922049999935552,1.016025000018999,1.4959700000472367,1.9770750000607222,2.378150000004098,2.846735000028275,3.3360500000417233,3.730515000061132,4.1199300000444055,4.750669999979436,5.233845000038855,5.672840000013821,6.13730000006035,6.504105000058189,6.928190000005998,7.405224999994971,7.896034999983385,8.37312500004191,8.832110000075772,9.296014999970794,9.7280449999962,10.232060000067577,10.778679999988526,11.272134999977425,11.815975000034086,12.304134999983944,12.800690000061877,13.251385000068694,13.704710000078194,14.152985000051558,14.591935000033118,15.064095000037923,15.560060000047088,16.00563000002876,16.457990000024438]",space,0.424545,0.0,15.0,15.0,29.0,1.0,,
,,,,,,,,,,,block_2/weak_n_119_2.wav,no,n,weak,119.0,1.359763169,11.32207609,,,,Yes,Bose sound sport in ear headphones,2,No,M,27,R,Yes,1,2020-09-07_11h57.44.574,kura-B1,2020.1.2,MacIntel,60,,,,,,,,,,,,,,"[""space"",""space"",""space"",""space"",""space"",""space"",""space"",""space"",""space"",""space"",""space"",""space"",""space"",""space"",""space"",""space"",""space"",""space"",""space"",""space"",""space"",""space"",""space""]","[0.20721500006038696,0.7090399999869987,1.080725000007078,1.5105200000107288,1.962415000074543,2.395405000075698,2.8503650000784546,3.2813000000314787,3.6888500000350177,4.1323750000447035,4.53331500000786,4.969485000008717,5.4186050000134856,5.888870000024326,6.392845000023954,6.857730000047013,7.312885000021197,7.744799999985844,8.209440000005998,8.659040000056848,9.16069500008598,9.611495000077412,10.094825000036508]",space,1.18829,0.0,16.0,16.0,36.0,1.0,,
,,,,,,,,,,,block_2/none_n_92_1.wav,no,n,none,92.0,1.273053946,17.86126256,,,,Yes,Bose sound sport in ear headphones,2,No,M,27,R,Yes,1,2020-09-07_11h57.44.574,kura-B1,2020.1.2,MacIntel,60,,,,,,,,,,,,,,"[""space"",""space"",""space"",""space"",""space"",""space"",""space"",""space"",""space"",""space"",""space"",""space"",""space"",""space"",""space"",""space"",""space"",""space"",""space"",""space"",""space"",""space"",""space"",""space"",""space"",""space"",""space"",""space"",""space"",""space"",""space"",""space"",""space"",""space"",""space"",""space"",""space"",""space"",""space"",""space""]","[0.2285149999661371,0.6445700000040233,1.1169949999311939,1.5774799999780953,1.9485449999338016,2.3806249999906868,2.830985000007786,3.189494999940507,3.545259999926202,3.9886749999132007,4.43269499996677,4.833824999979697,5.252499999944121,5.692579999915324,6.108419999945909,6.524534999975003,6.939184999908321,7.357489999965765,7.757424999959767,8.132714999956079,8.516624999931082,8.884834999917075,9.28458499989938,9.680844999966212,10.045354999951087,10.430919999955222,10.868474999908358,11.300569999963045,11.682169999927282,12.09918999997899,12.500939999939874,12.935024999896996,13.370149999973364,13.83652999997139,14.292654999997467,14.822444999939762,15.223284999956377,15.676529999938793,16.116574999992736,16.527549999998882]",space,0.46165,0.0,17.0,17.0,20.0,1.0,,
,,,,,,,,,,,block_2/weak_n_92_2.wav,no,n,weak,92.0,1.908793764,14.14589127,,,,Yes,Bose sound sport in ear headphones,2,No,M,27,R,Yes,1,2020-09-07_11h57.44.574,kura-B1,2020.1.2,MacIntel,60,,,,,,,,,,,,,,"[""space"",""space"",""space"",""space"",""space"",""space"",""space"",""space"",""space"",""space"",""space"",""space"",""space"",""space"",""space"",""space"",""space"",""space"",""space"",""space"",""space""]","[0.6468550000572577,0.705515000037849,1.3423600000096485,1.997940000030212,2.645835000090301,3.4482950000092387,3.902870000107214,4.534015000099316,5.130660000024363,5.637990000075661,6.222065000096336,6.817435000091791,7.466190000064671,8.104455000022426,8.788080000085756,9.366130000096746,10.058470000047237,10.626065000076778,11.211074999999255,11.814150000107475,12.430315000005066]",space,0.617495,0.0,18.0,18.0,6.0,1.0,,
,,,,,,,,,,,block_2/weak_n_81_1.wav,no,n,weak,81.0,2.025683857,14.86613737,,,,Yes,Bose sound sport in ear headphones,2,No,M,27,R,Yes,1,2020-09-07_11h57.44.574,kura-B1,2020.1.2,MacIntel,60,,,,,,,,,,,,,,"[""space"",""space"",""space"",""space"",""space"",""space"",""space"",""space"",""space"",""space"",""space"",""space"",""space"",""space"",""space"",""space"",""space"",""space""]","[0.21542000002227724,0.6083850000286475,1.0953600000357255,1.6123699999880046,2.1833950000582263,2.745820000069216,3.4552300000796095,4.049040000070818,4.585190000012517,5.147040000068955,5.869645000086166,6.575245000072755,9.881930000032298,10.567825000034645,11.20090000005439,11.839254999998957,12.417365000001155,12.947920000064187]",space,8.14207,0.0,19.0,19.0,35.0,1.0,,
,,,,,,,,,,,block_2/medium_n_92_2.wav,no,n,medium,92.0,1.042358962,12.57945647,,,,Yes,Bose sound sport in ear headphones,2,No,M,27,R,Yes,1,2020-09-07_11h57.44.574,kura-B1,2020.1.2,MacIntel,60,,,,,,,,,,,,,,"[""space"",""space"",""space"",""space"",""space"",""space"",""space"",""space"",""space"",""space"",""space"",""space"",""space"",""space"",""space"",""space"",""space"",""space"",""space"",""space""]","[0.24310500000137836,0.731205000076443,1.3094950000522658,1.8946050000377,2.419315000064671,3.0964399999938905,3.664170000003651,4.332705000066198,4.9165999999968335,5.468155000009574,6.107235000003129,6.707300000009127,7.321790000074543,7.941549999988638,8.55890000006184,9.21136000007391,9.867369999992661,10.511510000098497,11.147625000099652,11.699295000056736]",space,0.714865,0.0,20.0,20.0,1.0,1.0,,
,,,,,,,,,,,block_2/strong_n_72_1.wav,no,n,strong,72.0,1.979367889,17.70027492,,,,Yes,Bose sound sport in ear headphones,2,No,M,27,R,Yes,1,2020-09-07_11h57.44.574,kura-B1,2020.1.2,MacIntel,60,,,,,,,,,,,,,,"[""space"",""space"",""space"",""space"",""space"",""space"",""space"",""space"",""space"",""space"",""space"",""space"",""space"",""space"",""space"",""space"",""space"",""space"",""space"",""space"",""space""]","[0.34581500000786036,0.7140000000363216,1.5299200000008568,2.3697950000641868,3.1698600000236183,3.9545700000599027,4.753825000021607,5.5780450000893325,6.405035000061616,7.189430000027642,7.977865000022575,8.774610000080429,9.594525000080466,10.397275000112131,11.201760000083596,12.033785000094213,12.867615000111982,13.686615000013262,14.458640000084415,15.241905000060797,16.02601000003051]",space,0.7084,0.0,21.0,21.0,33.0,1.0,,
,,,,,,,,,,,block_2/strong_n_81_2.wav,no,n,strong,81.0,1.892264478,17.05494022,,,,Yes,Bose sound sport in ear headphones,2,No,M,27,R,Yes,1,2020-09-07_11h57.44.574,kura-B1,2020.1.2,MacIntel,60,,,,,,,,,,,,,,"[""space"",""space"",""space"",""space"",""space"",""space"",""space"",""space"",""space"",""space"",""space"",""space"",""space"",""space"",""space"",""space"",""space"",""space"",""space"",""space""]","[0.992409999947995,1.82902499998454,2.5620649999473244,3.3152749999426305,4.083839999977499,4.904235000023618,5.620435000048019,6.355259999982081,7.104865000001155,7.843359999940731,8.608905000030063,9.37906499998644,10.171779999975115,10.9394499999471,11.667140000034124,12.41913499997463,13.201495000044815,13.983929999987595,14.675449999980628,15.412260000011884]",space,0.815035,0.0,22.0,22.0,8.0,1.0,,
,,,,,,,,,,,block_2/medium_n_119_2.wav,no,n,medium,119.0,2.453413839,11.51042064,,,,Yes,Bose sound sport in ear headphones,2,No,M,27,R,Yes,1,2020-09-07_11h57.44.574,kura-B1,2020.1.2,MacIntel,60,,,,,,,,,,,,,,"[""space"",""space"",""space"",""space"",""space"",""space"",""space"",""space"",""space"",""space"",""space"",""space"",""space"",""space"",""space"",""space"",""space"",""space"",""space"",""space"",""space"",""space""]","[0.18862000002991408,0.6912449999945238,1.057520000031218,1.4760300000198185,1.8435499999905005,2.195369999972172,2.5472699999809265,3.0193949999520555,3.3755599999567494,3.8193650000030175,4.235244999988936,4.7157850000076,5.183799999998882,5.603374999947846,6.019160000025295,6.454054999980144,6.821375000057742,7.204380000010133,7.72335500002373,8.195300000021234,8.675309999962337,9.16327999997884]",space,0.70927,0.0,23.0,23.0,21.0,1.0,,
,,,,,,,,,,,block_2/medium_n_92_1.wav,no,n,medium,92.0,1.88300721,17.00042218,,,,Yes,Bose sound sport in ear headphones,2,No,M,27,R,Yes,1,2020-09-07_11h57.44.574,kura-B1,2020.1.2,MacIntel,60,,,,,,,,,,,,,,"[""space"",""space"",""space"",""space"",""space"",""space"",""space"",""space"",""space"",""space"",""space"",""space"",""space"",""space"",""space"",""space"",""space"",""space"",""space"",""space""]","[0.22667499992530793,0.7783949999138713,1.276754999998957,1.9757549999048933,2.563369999988936,3.3481299999402836,4.198009999934584,5.058549999957904,5.969304999918677,6.746624999912456,7.490499999956228,8.330604999908246,9.16250500001479,9.975849999929778,10.697109999950044,11.516145000001416,12.37066000001505,13.167174999951385,13.952839999925345,14.752819999936037]",space,0.69081,0.0,24.0,24.0,5.0,1.0,,
,,,,,,,,,,,block_2/weak_n_92_1.wav,no,n,weak,92.0,1.493156661,15.23787321,,,,Yes,Bose sound sport in ear headphones,2,No,M,27,R,Yes,1,2020-09-07_11h57.44.574,kura-B1,2020.1.2,MacIntel,60,,,,,,,,,,,,,,"[""space"",""space"",""space"",""space"",""space"",""space"",""space"",""space"",""space"",""space"",""space"",""space"",""space"",""space"",""space"",""space"",""space"",""space"",""space"",""space"",""space"",""space""]","[0.22478000004775822,0.7152850000420585,1.0928100000601262,1.73140000004787,2.3322550000157207,2.8295550000621006,3.4033800000324845,4.048195000039414,4.667385000037029,5.355704999994487,6.136600000085309,6.707185000064783,7.4224900000263005,8.124930000049062,8.70894500007853,9.39543999999296,10.067400000058115,10.745910000056028,11.414259999990463,12.066100000054576,12.718014999991283,13.402055000071414]",space,0.6274,0.0,25.0,25.0,2.0,1.0,,
,,,,,,,,,,,block_2/weak_n_105_1.wav,no,n,weak,105.0,2.307975641,12.32461963,,,,Yes,Bose sound sport in ear headphones,2,No,M,27,R,Yes,1,2020-09-07_11h57.44.574,kura-B1,2020.1.2,MacIntel,60,,,,,,,,,,,,,,"[""space"",""space"",""space"",""space"",""space"",""space"",""space"",""space"",""space"",""space"",""space"",""space"",""space"",""space"",""space"",""space"",""space"",""space"",""space"",""space"",""space"",""space""]","[0.2076299999607727,0.6239449999993667,1.0933299999451265,1.4934099999954924,1.9108549999073148,2.3655499999877065,2.8534799999324605,3.346819999977015,3.847289999946952,4.317119999905117,4.774414999992587,5.268114999984391,5.789549999986775,6.26977499993518,6.754324999987148,7.24546999996528,7.75523999996949,8.256869999924675,8.775179999996908,9.213439999963157,9.69487999996636,10.160879999981262]",space,0.57305,0.0,26.0,26.0,27.0,1.0,,
,,,,,,,,,,,block_2/medium_n_105_2.wav,no,n,medium,105.0,1.832509907,11.95341694,,,,Yes,Bose sound sport in ear headphones,2,No,M,27,R,Yes,1,2020-09-07_11h57.44.574,kura-B1,2020.1.2,MacIntel,60,,,,,,,,,,,,,,"[""space"",""space"",""space"",""space"",""space"",""space"",""space"",""space"",""space"",""space"",""space"",""space"",""space"",""space"",""space"",""space"",""space"",""space"",""space"",""space""]","[0.260149999987334,0.7472949998918921,1.2439249999588355,1.878154999925755,2.395604999968782,2.8804449999006465,3.4200199999613687,3.950459999963641,4.451574999955483,4.955434999894351,5.475379999959841,6.036794999963604,6.523199999937788,7.0549049999099225,7.579339999938384,8.125139999901876,8.608884999994189,9.099434999981895,9.683739999891259,10.187964999931864]",space,0.397265,0.0,27.0,27.0,3.0,1.0,,
,,,,,,,,,,,block_2/medium_n_72_2.wav,no,n,medium,72.0,2.017934227,19.05022448,,,,Yes,Bose sound sport in ear headphones,2,No,M,27,R,Yes,1,2020-09-07_11h57.44.574,kura-B1,2020.1.2,MacIntel,60,,,,,,,,,,,,,,"[""space"",""space"",""space"",""space"",""space"",""space"",""space"",""space"",""space"",""space"",""space"",""space"",""space"",""space"",""space"",""space"",""space"",""space"",""space"",""space""]","[0.19782999996095896,0.5590899999951944,1.2801200000103563,2.4460200000321493,3.312595000024885,4.23383499996271,5.102090000058524,6.019485000055283,6.896145000006072,7.786734999972396,8.664400000008754,9.549929999979213,10.382125000003725,11.315290000056848,12.182759999996051,13.005944999982603,13.91008000005968,14.771494999993593,15.614010000019334,16.494090000051074]",space,0.49461,0.0,28.0,28.0,14.0,1.0,,
,,,,,,,,,,,block_2/strong_n_119_1.wav,no,n,strong,119.0,2.397746816,12.26713457,,,,Yes,Bose sound sport in ear headphones,2,No,M,27,R,Yes,1,2020-09-07_11h57.44.574,kura-B1,2020.1.2,MacIntel,60,,,,,,,,,,,,,,"[""space"",""space"",""space"",""space"",""space"",""space"",""space"",""space"",""space"",""space"",""space"",""space"",""space"",""space"",""space"",""space"",""space"",""space"",""space"",""space"",""space""]","[0.44306499999947846,0.8756300000241026,1.342769999988377,1.8192450000206009,2.0446999999694526,2.4831250000279397,2.9151200000196695,3.4144450000021607,3.907299999962561,4.38719499995932,4.950175000005402,5.385325000039302,5.9022600000025705,6.410969999968074,6.921085000038147,7.404794999980368,7.941424999968149,8.457085000001825,9.00840499997139,9.499104999937117,9.979040000005625]",space,0.557845,0.0,29.0,29.0,19.0,1.0,,
,,,,,,,,,,,block_2/none_n_119_1.wav,no,n,none,119.0,1.472051285,13.63313972,,,,Yes,Bose sound sport in ear headphones,2,No,M,27,R,Yes,1,2020-09-07_11h57.44.574,kura-B1,2020.1.2,MacIntel,60,,,,,,,,,,,,,,"[""space"",""space"",""space"",""space"",""space"",""space"",""space"",""space"",""space"",""space"",""space"",""space"",""space"",""space"",""space"",""space"",""space"",""space"",""space"",""space"",""space"",""space"",""space"",""space"",""space"",""space"",""space"",""space"",""space"",""space""]","[0.2246949999826029,0.7140950000612065,1.190195000031963,1.5784650000277907,1.9703000000445172,2.3633799999952316,2.817935000057332,3.2138600000180304,3.5860650000395253,4.019120000069961,4.441940000047907,4.907205000054091,5.289885000092909,5.719905000063591,6.105915000080131,6.457954999990761,6.839905000058934,7.23953000002075,7.609745000023395,7.9139999999897555,8.281995000084862,8.6942450000206,9.11074999999255,9.554375000065193,9.985979999997653,10.380609999992885,10.831530000083148,11.26601500005927,11.723085000063293,12.290005000075325]",space,0.525745,0.0,30.0,30.0,22.0,1.0,,
,,,,,,,,,,,block_2/strong_n_119_2.wav,no,n,strong,119.0,1.626584736,10.88871625,,,,Yes,Bose sound sport in ear headphones,2,No,M,27,R,Yes,1,2020-09-07_11h57.44.574,kura-B1,2020.1.2,MacIntel,60,,,,,,,,,,,,,,"[""space"",""space"",""space"",""space"",""space"",""space"",""space"",""space"",""space"",""space"",""space"",""space"",""space"",""space"",""space"",""space"",""space"",""space"",""space"",""space"",""space""]","[0.28102999995462596,0.6331800000043586,1.017009999952279,1.4330249999184161,1.8817450000206009,2.3529799999669194,2.816965000005439,3.277339999913238,3.7647499999729916,4.216870000003837,4.667099999962375,5.151584999985062,5.60242000001017,6.069399999920279,6.570424999925308,7.009014999959618,7.47425500000827,7.957360000000335,8.459595000022091,8.912924999953248,9.378344999975525]",space,0.575275,0.0,31.0,31.0,17.0,1.0,,
,,,,,,,,,,,block_2/none_n_72_1.wav,no,n,none,72.0,2.425336639,22.99082417,,,,Yes,Bose sound sport in ear headphones,2,No,M,27,R,Yes,1,2020-09-07_11h57.44.574,kura-B1,2020.1.2,MacIntel,60,,,,,,,,,,,,,,"[""space"",""space"",""space"",""space"",""space"",""space"",""space"",""space"",""space"",""space"",""space"",""space"",""space"",""space"",""space"",""space"",""space"",""space"",""space"",""space"",""space"",""space"",""space"",""space"",""space"",""space"",""space"",""space"",""space"",""space"",""space"",""space"",""space"",""space"",""space"",""space"",""space"",""space"",""space"",""space"",""space"",""space"",""space"",""space"",""space"",""space""]","[0.2252149999840185,0.6094399999128655,1.0762549999635667,1.6104349999222904,1.9795750000048429,2.2451799999689683,2.720964999985881,3.2011400000192225,3.666109999991022,4.170539999962784,4.651710000005551,5.08913500001654,5.586045000003651,5.802879999973811,6.008964999928139,6.539254999952391,6.95492499996908,7.409125000005588,7.8810649999650195,8.141489999950863,8.558344999910332,8.985224999953061,9.449019999941811,9.924864999949932,10.446374999941327,10.956159999943338,11.47323999996297,12.057150000007823,12.593789999955334,12.825149999931455,13.27312999998685,13.80894499993883,14.23809999995865,14.67003499995917,15.173839999944903,15.726365000009537,16.29710999992676,16.875809999997728,17.394725000020117,17.95306999993045,18.413790000020526,18.947924999985844,19.465654999949038,19.93381999991834,20.367764999973588,22.145595000009052]",space,0.59153,0.0,32.0,32.0,18.0,1.0,,
,,,,,,,,,,,block_2/strong_n_72_2.wav,no,n,strong,72.0,2.258938628,19.59540121,,,,Yes,Bose sound sport in ear headphones,2,No,M,27,R,Yes,1,2020-09-07_11h57.44.574,kura-B1,2020.1.2,MacIntel,60,,,,,,,,,,,,,,"[""space"",""space"",""space"",""space"",""space"",""space"",""space"",""space"",""space"",""space"",""space"",""space"",""space"",""space"",""space"",""space"",""space"",""space"",""space"",""space"",""space""]","[0.37393499992322177,0.9588699999731034,1.5438650000141934,2.441954999929294,3.361254999996163,4.263099999981932,5.199159999960102,6.067054999992251,6.969029999920167,7.873810000019148,8.75812999997288,9.646264999988489,10.519220000016503,11.446634999942034,12.302434999961406,13.270244999905117,14.201279999921098,15.094074999913573,16.004859999986365,16.839609999908134,17.750364999985322]",space,0.65909,0.0,33.0,33.0,30.0,1.0,,
,,,,,,,,,,,block_2/medium_n_72_1.wav,no,n,medium,72.0,2.306836655,18.27731285,,,,Yes,Bose sound sport in ear headphones,2,No,M,27,R,Yes,1,2020-09-07_11h57.44.574,kura-B1,2020.1.2,MacIntel,60,,,,,,,,,,,,,,"[""space"",""space"",""space"",""space"",""space"",""space"",""space"",""space"",""space"",""space"",""space"",""space"",""space"",""space"",""space"",""space"",""space"",""space"",""space"",""space"",""space""]","[0.26178499998059124,0.8428200000198558,1.7823949999874458,2.592754999990575,3.3877699999138713,4.1991350000025705,4.987714999937452,5.769194999942556,6.620784999919124,7.443794999970123,8.259824999957345,9.09320000000298,9.861344999982975,10.684524999931455,11.447689999942668,12.219619999988936,13.019619999919087,13.85359499999322,14.675659999949858,15.475740000023507,16.375449999934062]",space,0.487,0.0,34.0,34.0,10.0,1.0,,
,,,,,,,,,,,block_2/none_n_72_2.wav,no,n,none,72.0,1.244195676,23.89829998,,,,Yes,Bose sound sport in ear headphones,2,No,M,27,R,Yes,1,2020-09-07_11h57.44.574,kura-B1,2020.1.2,MacIntel,60,,,,,,,,,,,,,,"[""space"",""space"",""space"",""space"",""space"",""space"",""space"",""space"",""space"",""space"",""space"",""space"",""space"",""space"",""space"",""space"",""space"",""space"",""space"",""space"",""space"",""space"",""space"",""space"",""space"",""space"",""space"",""space"",""space"",""space"",""space"",""space"",""space"",""space"",""space"",""space"",""space"",""space"",""space"",""space"",""space"",""space"",""space"",""space""]","[0.36152999999467283,0.8985199999297038,1.4431199999526143,1.9137799999443814,2.3958749999292195,2.8496599999489263,3.3142199999419972,3.9376550000160933,4.533044999931008,5.105704999994487,5.701939999940805,6.209754999959841,6.6706649999832734,7.1135449999710545,7.609669999917969,8.193740000016987,8.72965499991551,9.201804999960586,9.794974999967963,10.245564999990165,10.681484999950044,11.18687500001397,11.682474999921396,12.15378499997314,12.600414999993518,13.05437000002712,13.519244999974035,13.977684999932535,14.457694999990053,15.038794999942183,15.6095750000095,16.058489999966696,16.630394999985583,17.195049999980256,17.681649999925867,18.146654999931343,18.612684999941848,19.121674999943934,19.64772000000812,20.16660499991849,20.766644999966957,21.274669999955222,21.825624999939464,22.409719999996014]",space,6.645025,0.0,35.0,35.0,16.0,1.0,,
,,,,,,,,,,,block_2/weak_n_119_1.wav,no,n,weak,119.0,2.394125333,11.70850175,,,,Yes,Bose sound sport in ear headphones,2,No,M,27,R,Yes,1,2020-09-07_11h57.44.574,kura-B1,2020.1.2,MacIntel,60,,,,,,,,,,,,,,"[""space"",""space"",""space"",""space"",""space"",""space"",""space"",""space"",""space"",""space"",""space"",""space"",""space"",""space"",""space"",""space"",""space"",""space"",""space"",""space"",""space""]","[0.47429500008001924,0.911835000035353,1.3440950000658631,1.7520650000078604,2.1612150000873953,2.5677900000009686,2.963205000036396,3.4000500000547618,3.8241100000450388,4.265929999994114,4.649620000040159,5.087999999988824,5.585220000008121,6.055920000071637,6.4369100000476465,6.888980000047013,7.375965000013821,7.857160000014119,8.392110000015236,8.961164999986067,9.448030000086874]",space,0.608685,0.0,36.0,36.0,38.0,1.0,,
,,,,,,,,,,,block_2/medium_n_81_2.wav,no,n,medium,81.0,1.533387433,15.23592712,,,,Yes,Bose sound sport in ear headphones,2,No,M,27,R,Yes,1,2020-09-07_11h57.44.574,kura-B1,2020.1.2,MacIntel,60,,,,,,,,,,,,,,"[""space"",""space"",""space"",""space"",""space"",""space"",""space"",""space"",""space"",""space"",""space"",""space"",""space"",""space"",""space"",""space"",""space"",""space"",""space"",""space"",""space""]","[0.34113499999511987,0.8219599999720231,1.4503999999724329,2.0986249999841675,2.8298649999778718,3.4648299999535084,4.199735000031069,4.951604999951087,5.5714399999706075,6.3624650000128895,7.058384999982081,7.7465200000442564,8.450494999997318,9.22748500003945,9.850384999997914,10.554400000022724,11.264549999963492,11.9337199999718,12.784665000042878,13.303149999934249,13.686604999937117]",space,1.20676,0.0,37.0,37.0,34.0,1.0,,
,,,,,,,,,,,block_2/strong_n_92_1.wav,no,n,strong,92.0,2.132496366,14.62065963,,,,Yes,Bose sound sport in ear headphones,2,No,M,27,R,Yes,1,2020-09-07_11h57.44.574,kura-B1,2020.1.2,MacIntel,60,,,,,,,,,,,,,,"[""space"",""space"",""space"",""space"",""space"",""space"",""space"",""space"",""space"",""space"",""space"",""space"",""space"",""space"",""space"",""space"",""space"",""space"",""space"",""space"",""space""]","[0.3155399999814108,0.8839049999369308,1.594044999917969,2.278209999902174,2.915584999951534,3.4678149999817833,4.083559999940917,4.707804999896325,5.356069999979809,5.95230000000447,6.507634999928996,7.137489999993704,7.740539999911562,8.340824999962933,8.959639999899082,9.576789999962784,10.229159999988042,10.86746499990113,11.447424999903888,12.065744999912567,12.707454999908805]",space,3.182765,0.0,38.0,38.0,37.0,1.0,,
,,,,,,,,,,,block_2/none_n_81_2.wav,no,n,none,81.0,1.688814472,20.84019769,,,,Yes,Bose sound sport in ear headphones,2,No,M,27,R,Yes,1,2020-09-07_11h57.44.574,kura-B1,2020.1.2,MacIntel,60,,,,,,,,,,,,,,"[""space"",""space"",""space"",""space"",""space"",""space"",""space"",""space"",""space"",""space"",""space"",""space"",""space"",""space"",""space"",""space"",""space"",""space"",""space"",""space"",""space"",""space"",""space"",""space"",""space"",""space"",""space"",""space"",""space"",""space"",""space"",""space"",""space"",""space"",""space"",""space"",""space"",""space"",""space"",""space"",""space""]","[0.23205999995116144,0.6644450000021607,1.0763349999906495,1.4162850000429899,1.8113199999788776,2.1797200000146404,2.536149999941699,2.9999799999641255,3.3475900000194088,3.8164200000464916,4.283449999988079,4.704180000000633,5.101840000017546,5.516474999953061,5.954045000020415,6.376144999987446,6.808149999938905,7.323265000013635,7.832994999946095,8.377039999933913,8.876614999957383,9.410774999996647,9.929404999944381,10.472334999940358,10.647289999993518,11.216864999965765,11.732569999992847,12.368654999998398,12.936929999967106,13.436394999967888,14.088454999960959,14.755179999978282,15.307939999969676,15.664164999965578,16.032129999948665,16.46001999999862,16.944550000014715,17.512130000046454,18.01369499997236,18.44956999993883,18.984335000044666]",space,1.94413,0.0,39.0,39.0,28.0,1.0,,
,,,,,,,,,,,,,,,,,,,,,Yes,Bose sound sport in ear headphones,2,No,M,27,R,Yes,1,2020-09-07_11h57.44.574,kura-B1,2020.1.2,MacIntel,60,,,,,,,,,,,,,,,,,,,,,,,space,28.92749
