key_resp.keys,key_resp.rt,practice_taps.keys,practice_taps.rt,keyresp.keys,keyresp.rt,practice_stims_loop.thisRepN,practice_stims_loop.thisTrialN,practice_stims_loop.thisN,practice_stims_loop.thisIndex,practice_stims_loop.ran,sndfile,type,tempo,cond,version,delay,dur,Participant Initials,"If you are a MTurk worker, what is your MTurk worker ID?","If you are not an MTurk worker, please provide your email address",Are you wearing headphones?,What are the headphone make and model?,"How many years of musical training, if any, do you have?",Do you have any hearing problems? Please describe,What is your sex (f/m/decline)?,What is your age?,What is your handedness (R/L/ambi)?,Are you currently in a secure and quiet room without a possible interruption?,session ,date,expName,psychopyVersion,OS,frameRate,instructions_prompt.keys,instructions_prompt.rt,block1_taps.keys,block1_taps.rt,key_resp_2.keys,key_resp_2.rt,trials.thisRepN,trials.thisTrialN,trials.thisN,trials.thisIndex,trials.ran,key_resp2.keys,key_resp2.rt,block2_taps.keys,block2_taps.rt,key_resp_3.keys,key_resp_3.rt,trials_2.thisRepN,trials_2.thisTrialN,trials_2.thisN,trials_2.thisIndex,trials_2.ran,key_resp_4.keys,key_resp_4.rt
space,11.79117,"[""space"",""space"",""space"",""space"",""space"",""space"",""space"",""space"",""space"",""space"",""space"",""space"",""space"",""space"",""space"",""space"",""space"",""space"",""space""]","[0.9781449999427423,1.4302599999355152,1.8901199999963865,2.3458049999317154,2.8061349999625236,3.262304999982007,3.718430000008084,4.1961799999699,4.641074999934062,5.172174999956042,5.7086799999233335,6.242064999998547,6.730645000003278,7.2583599999779835,7.741884999908507,8.37589999998454,8.889139999984764,9.430590000003576,9.975694999913685]",space,2.48936,0.0,0.0,0.0,3.0,1.0,block_1/medium_t_119_4.wav,timbre,t,medium,119.0,1.752316959,11.57313329,,,,Yes,Grado SR125,17,,,,,,1,2020-09-14_22h18.47.480,kura-B2,2020.1.2,MacIntel,60,,,,,,,,,,,,,,,,,,,,,,,,
,,"[""space"",""space"",""space"",""space"",""space"",""space"",""space"",""space"",""space"",""space"",""space"",""space"",""space"",""space"",""space"",""space"",""space"",""space"",""space"",""space"",""space"",""space"",""space"",""space"",""space"",""space"",""space"",""space"",""space"",""space"",""space""]","[0.27038500003982335,0.600150000071153,1.1384700000053272,1.6350450000027195,2.1200550000648946,2.6774000000441447,3.1350450000027195,3.629630000097677,4.104755000094883,4.614130000001751,5.114390000002459,5.647445000009611,6.0791400000452995,6.602540000109002,7.1531850000610575,7.657945000100881,8.19662500009872,8.741580000030808,9.262325000017881,9.77938500000164,10.322130000102334,10.845150000066496,11.371480000088923,11.894850000040606,12.422645000042394,12.9237050000811,13.44265500002075,13.984545000013895,14.513935000053607,15.065310000092722,15.591420000069775]",space,2.772325,0.0,1.0,1.0,0.0,1.0,block_2/none_n_92_3.wav,no,n,none,92.0,2.306164339,18.20620969,,,,Yes,Grado SR125,17,,,,,,1,2020-09-14_22h18.47.480,kura-B2,2020.1.2,MacIntel,60,,,,,,,,,,,,,,,,,,,,,,,,
,,"[""space"",""space"",""space"",""space"",""space"",""space"",""space"",""space"",""space"",""space"",""space"",""space"",""space"",""space"",""space"",""space"",""space"",""space"",""space"",""space"",""space""]","[0.4725849999813363,0.9888900000369176,1.4481049999594688,1.88105500000529,2.425745000015013,3.001589999999851,3.5026450000004843,4.063994999974966,4.609504999942146,5.152884999988601,5.641629999969155,6.155799999949522,6.684329999960028,7.176145000034012,7.707025000010617,8.29405999998562,8.835300000035204,9.334690000046976,9.875955000054091,10.387605000054464,10.899149999953806]",space,1.20234,0.0,2.0,2.0,2.0,1.0,block_2/weak_n_105_4.wav,no,n,weak,105.0,1.982674472,12.75578105,,,,Yes,Grado SR125,17,,,,,,1,2020-09-14_22h18.47.480,kura-B2,2020.1.2,MacIntel,60,,,,,,,,,,,,,,,,,,,,,,,,
,,"[""space"",""space"",""space"",""space"",""space"",""space"",""space"",""space"",""space"",""space"",""space"",""space"",""space"",""space"",""space"",""space"",""space"",""space"",""space"",""space""]","[0.24370999995153397,0.6503299999749288,1.0853799999458715,1.4535550000146031,1.8730150000192225,2.291224999935366,2.7225849999813363,3.08507999998983,3.4870349999982864,3.906414999975823,4.363810000009835,4.81457499996759,5.298824999947101,5.793949999962933,6.234085000003688,6.665419999975711,7.176164999953471,7.6311599999899045,8.014579999959096,8.471744999988005]",space,2.863765,0.0,3.0,3.0,1.0,1.0,block_2/medium_n_119_4.wav,no,n,medium,119.0,1.224634286,9.531709116,,,,Yes,Grado SR125,17,,,,,,1,2020-09-14_22h18.47.480,kura-B2,2020.1.2,MacIntel,60,,,,,,,,,,,,,,,,,,,,,,,,
,,,,,,,,,,,block_1/medium_t_105_4.wav,timbre,t,medium,105.0,2.498438995,14.23458412,,,,Yes,Grado SR125,17,,,,,,1,2020-09-14_22h18.47.480,kura-B2,2020.1.2,MacIntel,60,space,8.604385,"[""space"",""space"",""space"",""space"",""space"",""space"",""space"",""space"",""space"",""space"",""space"",""space"",""space"",""space"",""space"",""space"",""space"",""space"",""space"",""space"",""space""]","[0.266730000032112,0.595629999996163,0.9547350000357255,1.3798250000691041,1.8560600000200793,2.297855000011623,2.7979599999962375,3.34195000003092,3.898700000019744,4.470440000062808,5.2603100000415,5.911365000065416,6.433090000064112,7.111845000064932,7.7839650000678375,8.350000000093132,9.041745000053197,9.667974999989383,10.25554500008002,10.82241999998223,11.448820000048727]",space,1.31619,0.0,0.0,0.0,23.0,1.0,,,,,,,,,,,,,
,,,,,,,,,,,block_1/strong_t_81_4.wav,timbre,t,strong,81.0,1.870008989,16.22765071,,,,Yes,Grado SR125,17,,,,,,1,2020-09-14_22h18.47.480,kura-B2,2020.1.2,MacIntel,60,,,"[""space"",""space"",""space"",""space"",""space"",""space"",""space"",""space"",""space"",""space"",""space"",""space"",""space"",""space"",""space"",""space"",""space"",""space"",""space"",""space"",""space""]","[0.3199700000695884,0.665720000048168,1.4689200000138953,2.2604300000239164,3.0411849999800324,3.7118699999991804,4.410600000061095,5.14632000005804,5.893210000009276,6.6213400000706315,7.350794999976642,8.057275000028312,8.7957400000887,9.55347000004258,10.244784999988042,10.965960000059567,11.743755000061356,12.455004999996163,13.169695000047795,13.848534999997355,14.600210000062361]",space,1.80165,0.0,1.0,1.0,34.0,1.0,,,,,,,,,,,,,
,,,,,,,,,,,block_1/medium_t_72_3.wav,timbre,t,medium,72.0,2.203768917,18.98399567,,,,Yes,Grado SR125,17,,,,,,1,2020-09-14_22h18.47.480,kura-B2,2020.1.2,MacIntel,60,,,"[""space"",""space"",""space"",""space"",""space"",""space"",""space"",""space"",""space"",""space"",""space"",""space"",""space"",""space"",""space"",""space"",""space"",""space"",""space"",""space""]","[0.1800400000065565,0.5685000000521541,1.5073649999685585,2.3114400000777096,3.182299999985844,4.051095000002533,4.938960000057705,5.81058499997016,6.692705000052229,7.5877950000576675,8.358155000023544,9.271090000052936,10.114300000015646,10.962859999970533,11.863480000058189,12.723235000041313,13.59526500001084,14.5291000000434,15.416620000032708,16.2451000000583]",space,0.81937,0.0,2.0,2.0,31.0,1.0,,,,,,,,,,,,,
,,,,,,,,,,,block_1/weak_t_119_3.wav,timbre,t,weak,119.0,1.729530605,11.14109523,,,,Yes,Grado SR125,17,,,,,,1,2020-09-14_22h18.47.480,kura-B2,2020.1.2,MacIntel,60,,,"[""space"",""space"",""space"",""space"",""space"",""space"",""space"",""space"",""space"",""space"",""space"",""space"",""space"",""space"",""space"",""space"",""space"",""space"",""space"",""space"",""space""]","[0.19324000005144626,0.7177350000711158,1.146599999978207,1.568375000031665,2.00956999999471,2.4191349999746308,2.8398550000274554,3.3567950000287965,3.797770000062883,4.267059999983758,4.699750000028871,5.2227500000735745,5.735665000043809,6.157740000053309,6.604690000065602,7.102300000027753,7.578779999981634,8.087294999975711,8.569660000037402,9.026904999976978,9.51190000004135]",space,0.451125,0.0,3.0,3.0,13.0,1.0,,,,,,,,,,,,,
,,,,,,,,,,,block_1/none_t_81_4.wav,timbre,t,none,81.0,1.802900323,17.84380735,,,,Yes,Grado SR125,17,,,,,,1,2020-09-14_22h18.47.480,kura-B2,2020.1.2,MacIntel,60,,,"[""space"",""space"",""space"",""space"",""space"",""space"",""space"",""space"",""space"",""space"",""space"",""space"",""space"",""space"",""space"",""space"",""space"",""space"",""space"",""space"",""space"",""space"",""space"",""space"",""space"",""space"",""space"",""space"",""space"",""space"",""space"",""space""]","[0.2493549999780953,0.6110699999844655,1.040999999968335,1.4569599999813363,1.924860000028275,2.4702050000196323,2.9919150000205263,3.4640150000341237,4.042675000033341,4.5806200000224635,5.056304999976419,5.552619999973103,6.132899999967776,6.776115000015125,7.3327099999878556,7.918720000074245,8.462599999969825,8.990315000060946,9.455515000037849,10.000594999990426,10.488469999982044,11.091635000077076,11.614300000015646,12.004315000027418,12.510929999989457,12.996430000057444,13.471344999969006,13.981845000060275,14.483345000073314,15.034740000031888,15.597650000010617,16.08796000003349]",space,0.81043,0.0,4.0,4.0,12.0,1.0,,,,,,,,,,,,,
,,,,,,,,,,,block_1/medium_t_72_4.wav,timbre,t,medium,72.0,1.659874932,19.69733525,,,,Yes,Grado SR125,17,,,,,,1,2020-09-14_22h18.47.480,kura-B2,2020.1.2,MacIntel,60,,,"[""space"",""space"",""space"",""space"",""space"",""space"",""space"",""space"",""space"",""space"",""space"",""space"",""space"",""space"",""space"",""space"",""space"",""space"",""space"",""space"",""space""]","[0.4282149999635294,0.9732200000435114,1.7579350000014529,2.576645000022836,3.512944999965839,4.082060000044294,4.599659999948926,5.468884999980219,6.524059999966994,7.451645000022836,8.381315000005998,9.299954999936745,10.229449999984354,11.198880000039935,12.122845000005327,13.000510000041686,13.838299999944866,14.720609999960288,15.58308000001125,16.56368499994278,17.425644999952056]",space,0.99368,0.0,5.0,5.0,36.0,1.0,,,,,,,,,,,,,
,,,,,,,,,,,block_1/medium_t_119_4.wav,timbre,t,medium,119.0,1.399295551,11.22011188,,,,Yes,Grado SR125,17,,,,,,1,2020-09-14_22h18.47.480,kura-B2,2020.1.2,MacIntel,60,,,"[""space"",""space"",""space"",""space"",""space"",""space"",""space"",""space"",""space"",""space"",""space"",""space"",""space"",""space"",""space"",""space"",""space"",""space"",""space""]","[0.17980000004172325,0.6735800000606105,1.2569099999964237,1.8254749999614432,2.301175000029616,2.8080949999857694,3.320549999945797,3.832219999982044,4.328289999975823,4.808339999988675,5.321669999975711,6.244975000037812,6.787215000018477,7.31113499996718,7.789555000024848,8.383080000057817,8.900699999998324,9.412250000052154,9.99320499994792]",space,1.486035,0.0,6.0,6.0,30.0,1.0,,,,,,,,,,,,,
,,,,,,,,,,,block_1/none_t_105_3.wav,timbre,t,none,105.0,2.248615294,16.06934092,,,,Yes,Grado SR125,17,,,,,,1,2020-09-14_22h18.47.480,kura-B2,2020.1.2,MacIntel,60,,,"[""space"",""space"",""space"",""space"",""space"",""space"",""space"",""space"",""space"",""space"",""space"",""space"",""space"",""space"",""space"",""space"",""space"",""space"",""space"",""space"",""space"",""space"",""space""]","[0.3572400000412017,1.0283350000390783,1.5914200000697747,2.097980000078678,2.624400000087917,3.071485000080429,3.5988699999870732,4.08871000004001,4.698175000026822,5.340740000014193,5.892865000059828,6.438960000057705,7.00487000006251,7.568610000074841,8.200460000080056,8.83554500003811,9.447120000026189,10.068680000025779,10.785625000018626,11.471935000037774,12.050550000043586,12.705275000073016,13.339500000001863]",space,1.336535,0.0,7.0,7.0,14.0,1.0,,,,,,,,,,,,,
,,,,,,,,,,,block_1/weak_t_81_3.wav,timbre,t,weak,81.0,1.53156375,17.80117826,,,,Yes,Grado SR125,17,,,,,,1,2020-09-14_22h18.47.480,kura-B2,2020.1.2,MacIntel,60,,,"[""space"",""space"",""space"",""space"",""space"",""space"",""space"",""space"",""space"",""space"",""space"",""space"",""space"",""space"",""space"",""space"",""space"",""space"",""space"",""space"",""space"",""space"",""space""]","[0.20974500000011176,0.6403849999187514,1.0422399999806657,1.591439999989234,2.0170349999098107,2.6022899999516085,3.4260299999732524,4.168319999938831,4.9835549999261275,5.458920000004582,6.069859999930486,6.875534999999218,7.736814999952912,8.522989999968559,9.239494999987073,10.127759999944828,10.959324999945238,11.70437499997206,12.484509999980219,13.310904999962077,14.114779999945313,14.931834999937564,15.731574999983422]",space,1.07144,0.0,8.0,8.0,6.0,1.0,,,,,,,,,,,,,
,,,,,,,,,,,block_1/none_t_119_4.wav,timbre,t,none,119.0,1.977931805,11.04042614,,,,Yes,Grado SR125,17,,,,,,1,2020-09-14_22h18.47.480,kura-B2,2020.1.2,MacIntel,60,,,"[""space"",""space"",""space"",""space"",""space"",""space"",""space"",""space"",""space"",""space"",""space"",""space"",""space"",""space"",""space"",""space"",""space"",""space""]","[0.18593999999575317,0.6997749999864027,1.1346849999390543,1.6296800000127405,2.286064999992959,2.8321449999930337,3.3219549999339506,3.860800000024028,4.44320500001777,5.031379999942146,5.578570000012405,6.106224999995902,6.669149999972433,7.206149999983609,7.812789999996312,8.374360000016168,8.9335199999623,9.97178999998141]",space,0.67898,0.0,9.0,9.0,27.0,1.0,,,,,,,,,,,,,
,,,,,,,,,,,block_1/medium_t_81_3.wav,timbre,t,medium,81.0,1.352794873,13.94617356,,,,Yes,Grado SR125,17,,,,,,1,2020-09-14_22h18.47.480,kura-B2,2020.1.2,MacIntel,60,,,"[""space"",""space"",""space"",""space"",""space"",""space"",""space"",""space"",""space"",""space"",""space"",""space"",""space"",""space"",""space"",""space"",""space"",""space"",""space"",""space"",""space""]","[0.17420500004664063,0.5463800000725314,0.9921099999919534,1.5493250000290573,2.364625000045635,3.095435000024736,3.7712700000265613,4.457150000031106,5.097335000056773,5.7159750000573695,6.42494500009343,7.033374999999069,7.620210000080988,8.284355000010692,8.915165000013076,9.483785000047646,10.17772999999579,10.814430000027642,11.409794999985024,12.043025000020862,12.747480000020005]",space,1.536395,0.0,10.0,10.0,8.0,1.0,,,,,,,,,,,,,
,,,,,,,,,,,block_1/weak_t_81_4.wav,timbre,t,weak,81.0,2.31768599,15.5134683,,,,Yes,Grado SR125,17,,,,,,1,2020-09-14_22h18.47.480,kura-B2,2020.1.2,MacIntel,60,,,"[""space"",""space"",""space"",""space"",""space"",""space"",""space"",""space"",""space"",""space"",""space"",""space"",""space"",""space"",""space"",""space"",""space"",""space"",""space"",""space""]","[0.18341000005602837,0.8094549999805167,1.4097150000743568,2.101135000004433,2.705335000064224,3.3690499999793246,4.018310000072233,4.709754999959841,5.359230000060052,5.975790000054985,6.5912800000514835,7.3359150000615045,8.0419750000583,8.758750000037253,9.439944999990985,10.061104999971576,10.722850000020117,11.43000499997288,12.138570000068285,12.747515000053681]",space,2.5742,0.0,11.0,11.0,0.0,1.0,,,,,,,,,,,,,
,,,,,,,,,,,block_1/none_t_72_3.wav,timbre,t,none,72.0,1.707698408,21.90234693,,,,Yes,Grado SR125,17,,,,,,1,2020-09-14_22h18.47.480,kura-B2,2020.1.2,MacIntel,60,,,"[""space"",""space"",""space"",""space"",""space"",""space"",""space"",""space"",""space"",""space"",""space"",""space"",""space"",""space"",""space"",""space"",""space"",""space"",""space"",""space"",""space"",""space"",""space"",""space"",""space"",""space"",""space"",""space"",""space"",""space"",""space"",""space"",""space"",""space"",""space"",""space"",""space"",""space"",""space"",""space""]","[0.3260649999137968,0.9115999999921769,1.4456849999260157,1.9051099999342114,2.376854999922216,2.855074999970384,3.3866099999286234,3.929939999943599,4.487229999969713,4.992179999942891,5.484279999975115,6.016694999998435,6.491124999942258,6.985929999966174,7.517059999983758,8.137140000006184,8.721900000004098,9.239859999972396,9.728599999914877,10.215830000001006,10.701499999966472,11.200964999967255,11.781589999911375,12.387924999929965,12.980184999993071,13.510264999931678,14.038104999926873,14.5587199999718,15.025380000006407,15.537784999934956,16.102574999909848,16.6634999999078,17.143984999973327,17.657619999954477,18.17553999996744,18.702829999965616,19.265724999946542,19.771454999921843,20.252934999996796,21.750995000009425]",space,1.06629,0.0,12.0,12.0,19.0,1.0,,,,,,,,,,,,,
,,,,,,,,,,,block_1/weak_t_92_3.wav,timbre,t,weak,92.0,1.190820523,16.55263458,,,,Yes,Grado SR125,17,,,,,,1,2020-09-14_22h18.47.480,kura-B2,2020.1.2,MacIntel,60,,,"[""space"",""space"",""space"",""space"",""space"",""space"",""space"",""space"",""space"",""space"",""space"",""space"",""space"",""space"",""space"",""space"",""space"",""space"",""space"",""space"",""space"",""space"",""space""]","[0.1880549999186769,0.5728349999990314,1.3062049999134615,2.0615949999773875,2.5580799999879673,3.0386299999663606,3.56890499999281,4.425469999900088,5.0203249999322,5.621744999894872,6.1833049999549985,6.871864999993704,7.593274999991991,8.335709999897517,9.068050000001676,9.94198999996297,10.747594999964349,11.452349999919534,12.110959999961779,12.867434999905527,13.773274999926798,14.513334999908693,15.268244999926537]",space,0.906415,0.0,13.0,13.0,38.0,1.0,,,,,,,,,,,,,
,,,,,,,,,,,block_1/weak_t_72_3.wav,timbre,t,weak,72.0,1.571303333,17.03996546,,,,Yes,Grado SR125,17,,,,,,1,2020-09-14_22h18.47.480,kura-B2,2020.1.2,MacIntel,60,,,"[""space"",""space"",""space"",""space"",""space"",""space"",""space"",""space"",""space"",""space"",""space"",""space"",""space"",""space"",""space"",""space"",""space"",""space"",""space"",""space"",""space""]","[0.23621000000275671,0.570729999919422,1.2687750000040978,1.9394499999471009,2.8161899999249727,3.5636999999405816,4.2989700000034645,5.0118199998978525,5.745589999947697,6.556434999918565,7.643319999915548,8.54317999992054,9.34375999995973,10.038949999958277,10.900029999902472,11.647129999939352,12.5304349999642,13.345724999904633,14.136029999936,14.945899999933317,16.866429999936372]",space,2.740595,0.0,14.0,14.0,26.0,1.0,,,,,,,,,,,,,
,,,,,,,,,,,block_1/strong_t_119_4.wav,timbre,t,strong,119.0,1.237037075,11.10492823,,,,Yes,Grado SR125,17,,,,,,1,2020-09-14_22h18.47.480,kura-B2,2020.1.2,MacIntel,60,,,"[""space"",""space"",""space"",""space"",""space"",""space"",""space"",""space"",""space"",""space"",""space"",""space"",""space"",""space"",""space"",""space"",""space"",""space"",""space"",""space"",""space""]","[0.22435499995481223,0.6042449999367818,0.9737549999263138,1.4636049999389797,1.9468999999808148,2.4782849999610335,2.945369999972172,3.465974999940954,3.9341899999417365,4.456204999936745,4.993849999969825,5.462184999953024,5.9792799999704584,6.4787699999287724,6.971855000010692,7.506124999956228,8.010200000018813,8.54923499992583,9.007609999971464,9.527875000028871,10.01976499997545]",space,0.685795,0.0,15.0,15.0,39.0,1.0,,,,,,,,,,,,,
,,,,,,,,,,,block_1/none_t_105_4.wav,timbre,t,none,105.0,1.782068205,15.59785052,,,,Yes,Grado SR125,17,,,,,,1,2020-09-14_22h18.47.480,kura-B2,2020.1.2,MacIntel,60,,,"[""space"",""space"",""space"",""space"",""space"",""space"",""space"",""space"",""space"",""space"",""space"",""space"",""space"",""space"",""space"",""space"",""space"",""space"",""space"",""space"",""space"",""space"",""space"",""space"",""space"",""space"",""space""]","[0.3029899999964982,0.6986599999945611,1.1670100000919774,1.7661050000460818,2.2840450000949204,2.818540000007488,3.3640350000932813,3.8775500000920147,4.4177050000289455,4.882325000013225,5.453964999993332,5.998140000039712,6.558405000017956,7.078800000017509,7.5719500000122935,8.09132500004489,8.614395000040531,9.15140000008978,9.616570000071079,10.165480000083335,10.76355000003241,11.29464000009466,11.881995000061579,12.467969999997877,13.01616500003729,13.634255000040866,15.511159999994561]",space,0.67722,0.0,16.0,16.0,20.0,1.0,,,,,,,,,,,,,
,,,,,,,,,,,block_1/strong_t_72_3.wav,timbre,t,strong,72.0,1.503157527,17.98057249,,,,Yes,Grado SR125,17,,,,,,1,2020-09-14_22h18.47.480,kura-B2,2020.1.2,MacIntel,60,,,"[""space"",""space"",""space"",""space"",""space"",""space"",""space"",""space"",""space"",""space"",""space"",""space"",""space"",""space"",""space"",""space"",""space"",""space"",""space"",""space""]","[0.41804499994032085,1.620340000023134,2.446555000031367,3.2602249999763444,4.0988049999577925,4.965529999928549,5.86730499996338,6.644869999960065,7.552765000029467,8.417950000031851,9.1892349999398,10.148165000020526,10.945064999978058,11.702419999986887,12.61874499998521,13.450270000030287,14.305104999919422,15.095964999985881,15.964529999997467,16.80623500002548]",space,0.731685,0.0,17.0,17.0,5.0,1.0,,,,,,,,,,,,,
,,,,,,,,,,,block_1/medium_t_105_3.wav,timbre,t,medium,105.0,1.131854181,11.90867958,,,,Yes,Grado SR125,17,,,,,,1,2020-09-14_22h18.47.480,kura-B2,2020.1.2,MacIntel,60,,,"[""space"",""space"",""space"",""space"",""space"",""space"",""space"",""space"",""space"",""space"",""space"",""space"",""space"",""space"",""space"",""space"",""space"",""space"",""space"",""space"",""space""]","[0.19274500000756234,0.5225250000366941,1.0048449999885634,1.5550350000848994,2.115029999986291,2.686035000020638,3.205680000013672,3.7867199999745935,4.302190000074916,4.896460000076331,5.431865000049584,6.0056750000221655,6.55093999998644,7.123405000078492,7.657790000084788,8.267470000078902,8.790039999992587,9.328685000073165,9.864975000033155,10.416790000046603,10.987275000079535]",space,1.38819,0.0,18.0,18.0,16.0,1.0,,,,,,,,,,,,,
,,,,,,,,,,,block_1/medium_t_92_3.wav,timbre,t,medium,92.0,2.360774731,14.34626226,,,,Yes,Grado SR125,17,,,,,,1,2020-09-14_22h18.47.480,kura-B2,2020.1.2,MacIntel,60,,,"[""space"",""space"",""space"",""space"",""space"",""space"",""space"",""space"",""space"",""space"",""space"",""space"",""space"",""space"",""space"",""space"",""space"",""space"",""space"",""space"",""space""]","[0.36626999999862164,0.6912399999564514,1.2968799999216571,1.8738249999005347,2.4822849999181926,3.077114999992773,3.70473499991931,4.272079999907874,4.898774999892339,5.449819999979809,6.05589499999769,6.659749999991618,7.251104999915697,7.867649999912828,8.471899999887682,9.116694999975152,9.671749999979511,10.288379999925382,10.8655049999943,11.439134999993257,12.046264999895357]",space,0.34872,0.0,19.0,19.0,35.0,1.0,,,,,,,,,,,,,
,,,,,,,,,,,block_1/none_t_81_3.wav,timbre,t,none,81.0,2.10326082,21.36648077,,,,Yes,Grado SR125,17,,,,,,1,2020-09-14_22h18.47.480,kura-B2,2020.1.2,MacIntel,60,,,"[""space"",""space"",""space"",""space"",""space"",""space"",""space"",""space"",""space"",""space"",""space"",""space"",""space"",""space"",""space"",""space"",""space"",""space"",""space"",""space"",""space"",""space"",""space"",""space"",""space"",""space"",""space"",""space"",""space"",""space"",""space"",""space"",""space"",""space"",""space"",""space""]","[0.17188000003807247,0.6213700000662357,1.1603700000559911,1.7420900000724941,2.1800100000109524,2.701839999994263,3.200230000074953,3.710510000004433,4.294975000084378,4.915144999977201,5.459580000024289,6.023980000056326,6.538635000004433,7.073545000050217,7.577610000036657,8.138860000064597,8.609690000070259,9.120690000010654,9.685385000077076,10.130370000028051,10.66498500003945,11.174059999990277,11.6631950000301,12.16347999998834,12.717835000017658,13.275430000037886,13.824965000036173,14.374124999972992,15.281985000008717,15.90760500007309,16.416290000081062,16.91841500008013,17.528404999990016,18.0953800000716,18.710459999972954,19.24489500001073]",space,0.710925,0.0,20.0,20.0,10.0,1.0,,,,,,,,,,,,,
,,,,,,,,,,,block_1/strong_t_72_4.wav,timbre,t,strong,72.0,1.194355845,16.3115894,,,,Yes,Grado SR125,17,,,,,,1,2020-09-14_22h18.47.480,kura-B2,2020.1.2,MacIntel,60,,,"[""space"",""space"",""space"",""space"",""space"",""space"",""space"",""space"",""space"",""space"",""space"",""space"",""space"",""space"",""space"",""space"",""space"",""space"",""space"",""space""]","[0.7914500000188127,1.1138849999988452,1.997609999962151,2.8332399999490008,3.6711199999554083,4.447039999999106,5.188454999937676,5.9819649999262765,6.715284999925643,7.5101550000254065,8.315394999925047,9.095830000005662,9.919329999946058,10.661465000011958,11.423725000000559,12.211584999924526,12.995499999960884,13.829919999931008,14.618174999952316,15.410964999930002]",space,1.20345,0.0,21.0,21.0,1.0,1.0,,,,,,,,,,,,,
,,,,,,,,,,,block_1/none_t_119_3.wav,timbre,t,none,119.0,1.169893331,12.28885025,,,,Yes,Grado SR125,17,,,,,,1,2020-09-14_22h18.47.480,kura-B2,2020.1.2,MacIntel,60,,,"[""space"",""space"",""space"",""space"",""space"",""space"",""space"",""space"",""space"",""space"",""space"",""space"",""space"",""space"",""space"",""space"",""space"",""space"",""space"",""space"",""space"",""space"",""space""]","[0.5214900000719354,1.0888650000561029,1.494840000057593,1.832479999982752,2.3329699999885634,2.9173850000370294,3.466995000024326,3.9245949999894947,4.384390000021085,4.851150000002235,5.335475000087172,5.837730000028387,6.318780000088736,6.836060000001453,7.305870000040159,7.895740000065416,8.36293000006117,8.820505000068806,9.33776000002399,9.809995000017807,10.299430000013672,10.808220000006258,11.31344000005629]",space,0.64444,0.0,22.0,22.0,32.0,1.0,,,,,,,,,,,,,
,,,,,,,,,,,block_1/weak_t_72_4.wav,timbre,t,weak,72.0,1.01386198,17.48964429,,,,Yes,Grado SR125,17,,,,,,1,2020-09-14_22h18.47.480,kura-B2,2020.1.2,MacIntel,60,,,"[""space"",""space"",""space"",""space"",""space"",""space"",""space"",""space"",""space"",""space"",""space"",""space"",""space"",""space"",""space"",""space"",""space"",""space"",""space"",""space"",""space"",""space""]","[0.1957749999128282,0.6651299999793991,1.310204999987036,1.7474349999101833,2.584470000001602,3.437195000005886,4.296065000002272,5.0681649999460205,5.979004999971949,6.843449999927543,7.689344999962486,8.380735000013374,9.201819999958389,10.118105000001378,10.899815000011586,11.626294999965467,12.442459999932908,13.380275000003166,14.17293499992229,14.965434999903664,15.773869999917224,16.58575500000734]",space,1.99487,0.0,23.0,23.0,33.0,1.0,,,,,,,,,,,,,
,,,,,,,,,,,block_1/strong_t_119_3.wav,timbre,t,strong,119.0,1.722630655,12.55029505,,,,Yes,Grado SR125,17,,,,,,1,2020-09-14_22h18.47.480,kura-B2,2020.1.2,MacIntel,60,,,"[""space"",""space"",""space"",""space"",""space"",""space"",""space"",""space"",""space"",""space"",""space"",""space"",""space"",""space"",""space"",""space"",""space"",""space"",""space"",""space""]","[0.6410550000146031,1.156154999975115,1.4990700000198558,2.0449599999701604,2.6374350000405684,3.1361500000348315,3.6910449999850243,4.2753800000064075,4.829265000065789,5.381675000069663,5.955215000081807,6.499200000078417,7.0717949999962,7.6139599999878556,8.20469000004232,8.74518500000704,9.2721550000133,9.909029999980703,10.434744999976829,10.974045000039041]",space,0.92001,0.0,24.0,24.0,28.0,1.0,,,,,,,,,,,,,
,,,,,,,,,,,block_1/strong_t_81_3.wav,timbre,t,strong,81.0,2.437587677,17.65296183,,,,Yes,Grado SR125,17,,,,,,1,2020-09-14_22h18.47.480,kura-B2,2020.1.2,MacIntel,60,,,"[""space"",""space"",""space"",""space"",""space"",""space"",""space"",""space"",""space"",""space"",""space"",""space"",""space"",""space"",""space"",""space"",""space"",""space"",""space"",""space"",""space""]","[0.3856750000268221,0.7098349999869242,1.6060799999395385,2.3880750000244007,3.1652899999171495,3.911710000014864,4.62754000001587,5.399280000012368,6.17367499996908,6.905009999987669,7.684024999965914,8.50819500000216,9.236279999953695,10.113224999979138,10.854369999957271,11.610905000008643,12.379109999979846,13.159884999971837,13.852160000009462,14.628395000007004,15.438435000018217]",space,1.329265,0.0,25.0,25.0,24.0,1.0,,,,,,,,,,,,,
,,,,,,,,,,,block_1/strong_t_105_4.wav,timbre,t,strong,105.0,2.094581561,12.21235934,,,,Yes,Grado SR125,17,,,,,,1,2020-09-14_22h18.47.480,kura-B2,2020.1.2,MacIntel,60,,,"[""space"",""space"",""space"",""space"",""space"",""space"",""space"",""space"",""space"",""space"",""space"",""space"",""space"",""space"",""space"",""space"",""space"",""space"",""space"",""space""]","[0.9088549999287352,1.2615999999688938,1.7603949999902397,2.2441150000086054,2.7183449999429286,3.23636500001885,3.731774999992922,4.203029999975115,4.701634999946691,5.209759999997914,5.707470000023022,6.1851150000002235,6.71289500000421,7.207494999980554,7.706339999916963,8.175564999924973,8.738215000019409,9.24347999994643,9.736885000020266,10.237294999998994]",space,1.536965,0.0,26.0,26.0,18.0,1.0,,,,,,,,,,,,,
,,,,,,,,,,,block_1/weak_t_119_4.wav,timbre,t,weak,119.0,1.438381355,12.04736095,,,,Yes,Grado SR125,17,,,,,,1,2020-09-14_22h18.47.480,kura-B2,2020.1.2,MacIntel,60,,,"[""space"",""space"",""space"",""space"",""space"",""space"",""space"",""space"",""space"",""space"",""space"",""space"",""space"",""space"",""space"",""space"",""space"",""space"",""space"",""space"",""space"",""space""]","[0.28830500005278736,0.6518850000575185,0.9805200000992045,1.4297750000841916,1.9849099999992177,2.5139400000916794,3.1059499999973923,3.618070000084117,4.182215000037104,4.574955000076443,5.146850000019185,5.68397500005085,6.307695000083186,6.778330000001006,7.278855000040494,7.82605000003241,8.35433500004001,8.847400000086054,9.28854500001762,9.79975500004366,10.259790000040084,10.737294999998994]",space,0.852105,0.0,27.0,27.0,11.0,1.0,,,,,,,,,,,,,
,,,,,,,,,,,block_1/none_t_92_4.wav,timbre,t,none,92.0,2.400883628,17.24192671,,,,Yes,Grado SR125,17,,,,,,1,2020-09-14_22h18.47.480,kura-B2,2020.1.2,MacIntel,60,,,"[""space"",""space"",""space"",""space"",""space"",""space"",""space"",""space"",""space"",""space"",""space"",""space"",""space"",""space"",""space"",""space"",""space"",""space"",""space"",""space"",""space"",""space"",""space"",""space"",""space"",""space"",""space"",""space"",""space"",""space""]","[0.29147999989800155,0.6027899999171495,1.0010199999669567,1.486864999984391,2.0337999999755993,2.6304699999745935,3.0964849999872968,3.641359999892302,4.11433999997098,4.607859999989159,5.111309999949299,5.645534999901429,6.125554999918677,6.660694999969564,7.109219999983907,7.563829999999143,8.098919999902137,8.625914999982342,9.118154999916442,9.599869999918155,10.130810000002384,10.627914999960922,11.149289999972098,11.70403499994427,12.182844999944791,12.679224999970756,13.163469999912195,13.658714999910444,14.105624999967404,14.610155000002123]",space,1.442325,0.0,28.0,28.0,22.0,1.0,,,,,,,,,,,,,
,,,,,,,,,,,block_1/weak_t_105_3.wav,timbre,t,weak,105.0,2.038080476,13.26905553,,,,Yes,Grado SR125,17,,,,,,1,2020-09-14_22h18.47.480,kura-B2,2020.1.2,MacIntel,60,,,"[""space"",""space"",""space"",""space"",""space"",""space"",""space"",""space"",""space"",""space"",""space"",""space"",""space"",""space"",""space"",""space"",""space"",""space"",""space"",""space""]","[0.18726999999489635,0.6547400000272319,1.496930000022985,2.098454999970272,2.689669999992475,3.1182900000130758,3.380600000033155,3.880419999943115,4.987874999991618,5.556809999980032,6.0119399999966845,6.6571299999486655,7.267200000002049,7.84238499996718,8.473394999979064,9.013199999928474,9.643685000017285,10.213965000002645,10.84698000003118,11.390754999942146]",space,8.04812,0.0,29.0,29.0,4.0,1.0,,,,,,,,,,,,,
,,,,,,,,,,,block_1/none_t_72_4.wav,timbre,t,none,72.0,1.772355542,25.47190203,,,,Yes,Grado SR125,17,,,,,,1,2020-09-14_22h18.47.480,kura-B2,2020.1.2,MacIntel,60,,,"[""space"",""space"",""space"",""space"",""space"",""space"",""space"",""space"",""space"",""space"",""space"",""space"",""space"",""space"",""space"",""space"",""space"",""space"",""space"",""space"",""space"",""space"",""space"",""space"",""space"",""space"",""space"",""space"",""space"",""space"",""space"",""space"",""space"",""space"",""space"",""space"",""space"",""space""]","[0.23791999998502433,0.6473949999781325,1.122745000058785,1.7373000000370666,2.2806300000520423,2.8217449999647215,3.348854999989271,3.9988850000081584,4.5976400000508875,5.162275000009686,5.691815000027418,6.211955000064336,6.851009999983944,7.3990950000006706,7.945285000023432,8.536349999951199,9.188175000017509,9.766004999983124,10.401670000050217,11.13905999995768,11.719404999981634,12.25875499995891,12.914259999990463,13.537795000011101,14.210259999963455,14.916319999960251,15.541670000064187,16.130594999995083,16.863340000039898,17.49028000002727,18.24560999998357,18.79355000006035,20.237020000000484,20.812950000050478,21.445264999987558,22.04673000006005,22.775290000019595,23.477130000013858]",space,0.42133,0.0,30.0,30.0,15.0,1.0,,,,,,,,,,,,,
,,,,,,,,,,,block_1/none_t_92_3.wav,timbre,t,none,92.0,1.813425609,13.88349364,,,,Yes,Grado SR125,17,,,,,,1,2020-09-14_22h18.47.480,kura-B2,2020.1.2,MacIntel,60,,,"[""space"",""space"",""space"",""space"",""space"",""space"",""space"",""space"",""space"",""space"",""space"",""space"",""space"",""space"",""space"",""space"",""space"",""space"",""space"",""space"",""space""]","[0.3570199999958277,1.1999350000405684,1.72570499998983,2.3495050000492483,2.9525350000476465,3.5687250000191852,4.293330000014976,5.0082600000314415,5.541109999991022,6.053659999975935,6.6004200000315905,7.153294999967329,7.842895000008866,8.263280000071973,8.867300000041723,9.367085000034422,9.858065000036731,10.362844999996014,10.795095000066794,11.317790000000969,11.79563499998767]",space,0.379395,0.0,31.0,31.0,17.0,1.0,,,,,,,,,,,,,
,,,,,,,,,,,block_1/strong_t_92_3.wav,timbre,t,strong,92.0,1.987733848,15.03440052,,,,Yes,Grado SR125,17,,,,,,1,2020-09-14_22h18.47.480,kura-B2,2020.1.2,MacIntel,60,,,"[""space"",""space"",""space"",""space"",""space"",""space"",""space"",""space"",""space"",""space"",""space"",""space"",""space"",""space"",""space"",""space"",""space"",""space"",""space"",""space"",""space""]","[0.1814200000371784,0.6682649999856949,1.2428200000431389,1.9658099999651313,2.6914899999974295,3.2604150000261143,3.9456650000065565,4.600875000003725,5.24695000005886,5.918790000025183,6.594095000065863,7.25777000002563,7.9177899999776855,8.58707000000868,9.099419999984093,9.841075000003912,10.533144999993965,11.226075000013225,11.864260000060312,12.59230999997817,13.277845000033267]",space,0.991275,0.0,32.0,32.0,3.0,1.0,,,,,,,,,,,,,
,,,,,,,,,,,block_1/medium_t_92_4.wav,timbre,t,medium,92.0,1.590939721,14.58753836,,,,Yes,Grado SR125,17,,,,,,1,2020-09-14_22h18.47.480,kura-B2,2020.1.2,MacIntel,60,,,"[""space"",""space"",""space"",""space"",""space"",""space"",""space"",""space"",""space"",""space"",""space"",""space"",""space"",""space"",""space"",""space"",""space"",""space"",""space"",""space"",""space""]","[0.3005600000033155,0.6549799999920651,1.2442999999038875,1.9682499999180436,2.607399999978952,3.3290699999779463,3.956529999966733,4.599659999948926,5.278349999920465,5.909099999931641,6.53079499991145,7.207079999963753,7.832070000004023,8.557774999993853,9.199179999995977,9.843104999978095,10.479934999952093,11.113610000000335,11.784804999944754,12.474674999946728,13.091044999891892]",space,0.655435,0.0,33.0,33.0,25.0,1.0,,,,,,,,,,,,,
,,,,,,,,,,,block_1/medium_t_81_4.wav,timbre,t,medium,81.0,1.136743646,13.9322992,,,,Yes,Grado SR125,17,,,,,,1,2020-09-14_22h18.47.480,kura-B2,2020.1.2,MacIntel,60,,,"[""space"",""space"",""space"",""space"",""space"",""space"",""space"",""space"",""space"",""space"",""space"",""space"",""space"",""space"",""space"",""space"",""space"",""space"",""space"",""space"",""space""]","[0.2463249999564141,0.6593149999389425,1.1018400000175461,1.8049699999392033,2.428884999942966,3.1535750000039116,3.6835250000003725,4.255125000025146,4.995140000013635,5.562795000034384,6.427559999981895,6.982609999948181,7.612609999952838,8.355114999925718,8.924484999966808,9.710955000016838,10.366399999940768,10.942849999992177,11.622124999994412,12.215729999938048,12.959514999995008]",space,0.79508,0.0,34.0,34.0,2.0,1.0,,,,,,,,,,,,,
,,,,,,,,,,,block_1/strong_t_105_3.wav,timbre,t,strong,105.0,1.518747526,13.05135524,,,,Yes,Grado SR125,17,,,,,,1,2020-09-14_22h18.47.480,kura-B2,2020.1.2,MacIntel,60,,,"[""space"",""space"",""space"",""space"",""space"",""space"",""space"",""space"",""space"",""space"",""space"",""space"",""space"",""space"",""space"",""space"",""space"",""space"",""space"",""space""]","[0.5204450000310317,1.1062300000339746,1.6648150000255555,2.263520000036806,2.9181500000413507,3.4470600000349805,4.0439799999585375,4.644184999982826,5.158369999960996,5.755355000030249,6.361589999985881,6.98245999997016,7.551495000021532,8.17113499995321,8.74518500000704,9.351425000000745,9.93942499998957,10.512009999947622,11.116664999979548,11.710944999940693]",space,1.5093,0.0,35.0,35.0,21.0,1.0,,,,,,,,,,,,,
,,,,,,,,,,,block_1/medium_t_119_3.wav,timbre,t,medium,119.0,2.226222359,10.98477111,,,,Yes,Grado SR125,17,,,,,,1,2020-09-14_22h18.47.480,kura-B2,2020.1.2,MacIntel,60,,,"[""space"",""space"",""space"",""space"",""space"",""space"",""space"",""space"",""space"",""space"",""space"",""space"",""space"",""space"",""space"",""space"",""space"",""space"",""space"",""space""]","[0.362639999948442,0.8250599999446422,1.2656999999890104,1.6980299999704584,2.154080000007525,2.6100099999457598,3.044869999983348,3.4752699999371544,3.9343799999915063,4.377879999927245,4.846969999955036,5.293024999904446,5.746419999981299,6.1901749999960884,6.653609999921173,7.087719999952242,7.555590000003576,7.995144999935292,8.472895000013523,8.884084999910556]",space,2.038745,0.0,36.0,36.0,37.0,1.0,,,,,,,,,,,,,
,,,,,,,,,,,block_1/weak_t_105_4.wav,timbre,t,weak,105.0,1.882880114,13.41285744,,,,Yes,Grado SR125,17,,,,,,1,2020-09-14_22h18.47.480,kura-B2,2020.1.2,MacIntel,60,,,"[""space"",""space"",""space"",""space"",""space"",""space"",""space"",""space"",""space"",""space"",""space"",""space"",""space"",""space"",""space"",""space"",""space"",""space"",""space"",""space""]","[0.7388600000413135,1.312510000076145,1.9090750000905246,2.515390000073239,3.0576500000897795,3.638035000069067,4.201710000052117,4.708474999992177,5.207360000000335,5.809330000076443,6.364830000093207,6.955485000042245,7.541270000045188,8.109250000095926,8.696059999987483,9.221935000037774,9.835045000072569,10.403725000098348,11.043765000067651,11.596525000059046]",space,0.660485,0.0,37.0,37.0,7.0,1.0,,,,,,,,,,,,,
,,,,,,,,,,,block_1/strong_t_92_4.wav,timbre,t,strong,92.0,1.022726917,13.26377,,,,Yes,Grado SR125,17,,,,,,1,2020-09-14_22h18.47.480,kura-B2,2020.1.2,MacIntel,60,,,"[""space"",""space"",""space"",""space"",""space"",""space"",""space"",""space"",""space"",""space"",""space"",""space"",""space"",""space"",""space"",""space"",""space"",""space"",""space""]","[0.8495899999979883,1.5502749999286607,2.159654999966733,2.8038249999517575,3.4087000000290573,4.0526349999709055,4.665084999985993,5.317894999985583,6.003889999934472,6.600084999925457,7.238610000000335,7.855779999983497,8.512205000035465,9.173055000021122,9.774199999985285,10.408470000023954,11.09167500003241,11.7062900000019,12.317184999934398]",space,0.51708,0.0,38.0,38.0,9.0,1.0,,,,,,,,,,,,,
,,,,,,,,,,,block_1/weak_t_92_4.wav,timbre,t,weak,92.0,1.530875014,13.01332399,,,,Yes,Grado SR125,17,,,,,,1,2020-09-14_22h18.47.480,kura-B2,2020.1.2,MacIntel,60,,,"[""space"",""space"",""space"",""space"",""space"",""space"",""space"",""space"",""space"",""space"",""space"",""space"",""space"",""space"",""space"",""space"",""space"",""space"",""space"",""space""]","[0.4646299999440089,1.0818799999542534,1.6548699999693781,2.270699999993667,2.8408099999651313,3.4376749999355525,4.054864999954589,4.626489999936894,5.191494999919087,5.798994999960996,6.402834999957122,6.9334999999264255,7.532810000004247,8.106024999986403,8.694874999928288,9.265224999981001,9.846709999954328,10.46284499997273,11.01109499996528,11.620584999909624]",space,0.487135,0.0,39.0,39.0,29.0,1.0,,,,,,,,,,,,,
,,,,,,,,,,,block_2/medium_n_119_3.wav,no,n,medium,119.0,2.317779723,12.17918562,,,,Yes,Grado SR125,17,,,,,,1,2020-09-14_22h18.47.480,kura-B2,2020.1.2,MacIntel,60,,,,,,,,,,,,space,246.116865,"[""space"",""space"",""space"",""space"",""space"",""space"",""space"",""space"",""space"",""space"",""space"",""space"",""space"",""space"",""space"",""space"",""space"",""space"",""space""]","[0.6012799999443814,1.1316899999510497,1.6082300000125542,1.9884600000223145,2.551359999924898,3.0292549999430776,3.564075000002049,4.138049999950454,4.6703749999869615,5.191804999951273,5.708525000023656,6.228219999931753,6.72317499993369,7.22652999998536,7.717895000008866,8.193054999923334,8.694490000023507,9.168064999976195,9.672064999933355]",space,1.19777,0.0,0.0,0.0,22.0,1.0,,
,,,,,,,,,,,block_2/medium_n_72_3.wav,no,n,medium,72.0,1.994146771,18.06802432,,,,Yes,Grado SR125,17,,,,,,1,2020-09-14_22h18.47.480,kura-B2,2020.1.2,MacIntel,60,,,,,,,,,,,,,,"[""space"",""space"",""space"",""space"",""space"",""space"",""space"",""space"",""space"",""space"",""space"",""space"",""space"",""space"",""space"",""space"",""space"",""space"",""space"",""space""]","[0.18180999998003244,0.5515550000127405,1.5469100000336766,2.328205000027083,3.1375450000632554,3.975165000068955,4.82289499999024,5.65617500001099,6.462275000056252,7.313420000020415,8.137485000072047,9.011174999992363,9.776599999982864,10.628310000058264,11.468620000057854,12.272240000078455,13.078700000070967,13.902645000023767,14.675720000057481,15.573384999996051]",space,0.77523,0.0,1.0,1.0,13.0,1.0,,
,,,,,,,,,,,block_2/medium_n_81_3.wav,no,n,medium,81.0,2.235189468,17.75582439,,,,Yes,Grado SR125,17,,,,,,1,2020-09-14_22h18.47.480,kura-B2,2020.1.2,MacIntel,60,,,,,,,,,,,,,,"[""space"",""space"",""space"",""space"",""space"",""space"",""space"",""space"",""space"",""space"",""space"",""space"",""space"",""space"",""space"",""space"",""space"",""space"",""space"",""space"",""space""]","[0.18375499988906085,0.6720999999670312,1.1508249999023974,2.1170449999626726,2.814579999889247,3.6635699999751523,4.502094999887049,5.340244999970309,6.0928349999012426,6.949389999965206,7.737384999985807,8.514579999959096,9.40427999990061,10.149069999926724,10.990844999905676,11.87075499992352,12.585544999921694,13.394459999981336,14.243924999958836,14.995639999979176,15.79977499996312]",space,0.85193,0.0,2.0,2.0,33.0,1.0,,
,,,,,,,,,,,block_2/medium_n_92_3.wav,no,n,medium,92.0,2.163023573,13.84869251,,,,Yes,Grado SR125,17,,,,,,1,2020-09-14_22h18.47.480,kura-B2,2020.1.2,MacIntel,60,,,,,,,,,,,,,,"[""space"",""space"",""space"",""space"",""space"",""space"",""space"",""space"",""space"",""space"",""space"",""space"",""space"",""space"",""space"",""space"",""space"",""space"",""space"",""space""]","[0.6127400000113994,1.0383549999678507,1.5673299999907613,2.1560899999458343,2.723615000024438,3.34113499999512,3.961834999965504,4.5325550000416115,5.133900000015274,5.77266499993857,6.354689999949187,6.988819999969564,7.588420000043698,8.20256500004325,8.810504999943078,9.434669999987818,10.020105000003241,10.636440000031143,11.21254500001669,11.840910000028089]",space,0.86938,0.0,3.0,3.0,2.0,1.0,,
,,,,,,,,,,,block_2/weak_n_81_4.wav,no,n,weak,81.0,1.139338257,16.19847658,,,,Yes,Grado SR125,17,,,,,,1,2020-09-14_22h18.47.480,kura-B2,2020.1.2,MacIntel,60,,,,,,,,,,,,,,"[""space"",""space"",""space"",""space"",""space"",""space"",""space"",""space"",""space"",""space"",""space"",""space"",""space"",""space"",""space"",""space"",""space"",""space"",""space"",""space""]","[0.18300499999895692,0.8255699999863282,1.7334199999459088,2.5592150000156835,3.3392750000348315,4.081544999964535,4.973669999977574,5.674239999963902,6.24519499996677,6.729580000042915,7.405720000038855,8.283564999932423,9.066899999976158,9.814494999940507,10.656970000010915,11.455629999982193,12.190754999988712,12.967059999937192,13.774194999947213,14.53241500002332]",space,0.483195,0.0,4.0,4.0,36.0,1.0,,
,,,,,,,,,,,block_2/weak_n_119_4.wav,no,n,weak,119.0,1.653391966,12.42708811,,,,Yes,Grado SR125,17,,,,,,1,2020-09-14_22h18.47.480,kura-B2,2020.1.2,MacIntel,60,,,,,,,,,,,,,,"[""space"",""space"",""space"",""space"",""space"",""space"",""space"",""space"",""space"",""space"",""space"",""space"",""space"",""space"",""space"",""space"",""space"",""space"",""space"",""space"",""space""]","[0.1368149999761954,0.6571700000204146,1.1540999999269843,1.6693100000265986,2.2825149999698624,2.871324999956414,3.4160899999551475,4.001025000005029,4.507299999939278,5.09266999992542,5.6816049999324605,6.215444999979809,6.792314999969676,7.2286999999778345,7.752654999960214,8.310485000023618,8.862934999982826,9.359089999925345,9.929084999952465,10.435539999976754,10.99395499995444]",space,0.07923,0.0,5.0,5.0,31.0,1.0,,
,,,,,,,,,,,block_2/medium_n_92_4.wav,no,n,medium,92.0,1.021723279,13.61201806,,,,Yes,Grado SR125,17,,,,,,1,2020-09-14_22h18.47.480,kura-B2,2020.1.2,MacIntel,60,,,,,,,,,,,,,,"[""space"",""space"",""space"",""space"",""space"",""space"",""space"",""space"",""space"",""space"",""space"",""space"",""space"",""space"",""space"",""space"",""space"",""space"",""space"",""space"",""space""]","[0.3257800000719726,0.8073749999748543,1.3824850000673905,2.0682550000492483,2.6483749999897555,3.3120399999897927,3.960495000006631,4.585835000034422,5.1962599999969825,5.876230000052601,6.509505000081845,7.095525000011548,7.767695000045933,8.374285000027157,8.990955000044778,9.645690000033937,10.228980000014417,10.924315000069328,11.512214999995194,12.126225000014529,12.722245000069961]",space,0.438815,0.0,6.0,6.0,11.0,1.0,,
,,,,,,,,,,,block_2/none_n_72_3.wav,no,n,none,72.0,2.393872505,24.12062987,,,,Yes,Grado SR125,17,,,,,,1,2020-09-14_22h18.47.480,kura-B2,2020.1.2,MacIntel,60,,,,,,,,,,,,,,"[""space"",""space"",""space"",""space"",""space"",""space"",""space"",""space"",""space"",""space"",""space"",""space"",""space"",""space"",""space"",""space"",""space"",""space"",""space"",""space"",""space"",""space"",""space"",""space"",""space"",""space"",""space"",""space"",""space"",""space""]","[0.6728850000072271,1.2074249999132007,1.8641150000039488,2.452754999976605,3.258259999915026,4.011239999905229,4.7395399999804795,5.450659999973141,6.2105599999194965,6.946499999961816,7.714254999998957,8.474225000012666,9.2855499999132,10.045264999964274,10.776289999950677,11.590304999961518,12.280945000005886,13.033794999937527,13.805869999923743,14.47425500000827,15.237734999973327,16.0604549999116,16.795259999926202,17.681905000004917,18.470119999954477,19.280595000018366,20.083624999970198,21.00421499996446,21.801719999988563,23.90824999997858]",space,0.755685,0.0,7.0,7.0,18.0,1.0,,
,,,,,,,,,,,block_2/strong_n_81_4.wav,no,n,strong,81.0,1.736263272,17.70810001,,,,Yes,Grado SR125,17,,,,,,1,2020-09-14_22h18.47.480,kura-B2,2020.1.2,MacIntel,60,,,,,,,,,,,,,,"[""space"",""space"",""space"",""space"",""space"",""space"",""space"",""space"",""space"",""space"",""space"",""space"",""space"",""space"",""space"",""space"",""space"",""space"",""space"",""space"",""space""]","[0.40550999995321035,0.8309600000502542,1.6289500000420958,2.4586249999701977,3.3044600000139326,4.124844999983907,4.903045000042766,5.695850000018254,6.4933550000423566,7.367609999957494,8.133219999959692,8.920675000059418,9.69933500001207,10.581000000005588,11.412050000042655,12.167449999949895,12.963989999960177,13.773524999967776,14.656405000016093,15.432834999985062,16.21977500000503]",space,1.64613,0.0,8.0,8.0,1.0,1.0,,
,,,,,,,,,,,block_2/weak_n_92_4.wav,no,n,weak,92.0,2.26710089,14.35326869,,,,Yes,Grado SR125,17,,,,,,1,2020-09-14_22h18.47.480,kura-B2,2020.1.2,MacIntel,60,,,,,,,,,,,,,,"[""space"",""space"",""space"",""space"",""space"",""space"",""space"",""space"",""space"",""space"",""space"",""space"",""space"",""space"",""space"",""space"",""space"",""space"",""space"",""space"",""space""]","[0.3241249999264255,0.7922249999828637,1.3454299999866635,2.002020000014454,2.6029299999354407,3.1925949999131262,3.7738349999999627,4.403089999919757,4.974049999960698,5.642724999925122,6.199749999912456,6.7851999999256805,7.402264999924228,7.995929999975488,8.602014999953099,9.221209999988787,9.818344999919645,10.441400000010617,11.07195499993395,11.656394999939948,12.303884999942966]",space,0.591795,0.0,9.0,9.0,15.0,1.0,,
,,,,,,,,,,,block_2/weak_n_92_3.wav,no,n,weak,92.0,2.16711471,14.91038002,,,,Yes,Grado SR125,17,,,,,,1,2020-09-14_22h18.47.480,kura-B2,2020.1.2,MacIntel,60,,,,,,,,,,,,,,"[""space"",""space"",""space"",""space"",""space"",""space"",""space"",""space"",""space"",""space"",""space"",""space"",""space"",""space"",""space"",""space"",""space"",""space"",""space"",""space""]","[0.5381599999964237,1.1969650000100955,1.848340000025928,2.511449999990873,3.145974999992177,3.8331499999621883,4.401784999994561,5.077180000022054,5.687069999985397,6.3817699999781325,7.056014999980107,7.742530000046827,8.353065000032075,9.02676000003703,9.68171999999322,10.346120000001974,10.990525000030175,11.595469999941997,12.346479999949224,13.04758499993477]",space,0.46277,0.0,10.0,10.0,5.0,1.0,,
,,,,,,,,,,,block_2/none_n_72_4.wav,no,n,none,72.0,1.743803892,24.48607147,,,,Yes,Grado SR125,17,,,,,,1,2020-09-14_22h18.47.480,kura-B2,2020.1.2,MacIntel,60,,,,,,,,,,,,,,"[""space"",""space"",""space"",""space"",""space"",""space"",""space"",""space"",""space"",""space"",""space"",""space"",""space"",""space"",""space"",""space"",""space"",""space"",""space"",""space"",""space"",""space"",""space"",""space"",""space"",""space"",""space"",""space"",""space"",""space"",""space"",""space"",""space""]","[0.2787900000112131,0.8878500000573695,1.6253149999538437,2.2848200000589713,2.886434999993071,3.5784650000277907,4.3097149999812245,4.967189999995753,5.63023999996949,6.3443500000284985,7.078970000031404,7.840349999954924,8.560015000053681,9.423274999950081,10.18304499995429,10.96270499995444,11.597584999981336,12.35346999997273,13.021060000057332,13.688899999950081,14.33507999998983,15.0878200000152,15.764854999957606,16.54728000005707,17.28590500005521,17.963355000014417,18.63828499999363,19.33995000005234,20.19122499995865,21.15178499999456,21.913650000002235,22.658010000013746,24.399465000024065]",space,0.70584,0.0,11.0,11.0,21.0,1.0,,
,,,,,,,,,,,block_2/weak_n_119_3.wav,no,n,weak,119.0,1.689359171,10.04573105,,,,Yes,Grado SR125,17,,,,,,1,2020-09-14_22h18.47.480,kura-B2,2020.1.2,MacIntel,60,,,,,,,,,,,,,,"[""space"",""space"",""space"",""space"",""space"",""space"",""space"",""space"",""space"",""space"",""space"",""space"",""space"",""space"",""space"",""space"",""space"",""space"",""space""]","[0.2698100000852719,0.8785449999850243,1.5498249999945983,2.0430349999805912,2.502195000066422,2.9178049999754876,3.391494999988936,3.761780000058934,4.208435000036843,4.616740000084974,5.044315000064671,5.4276600000448525,5.9190749999834225,6.365605000057258,6.802945000003092,7.228750000009313,7.627124999999069,8.088340000016615,8.554745000088587]",space,0.70846,0.0,12.0,12.0,37.0,1.0,,
,,,,,,,,,,,block_2/weak_n_72_4.wav,no,n,weak,72.0,1.671954957,17.64637673,,,,Yes,Grado SR125,17,,,,,,1,2020-09-14_22h18.47.480,kura-B2,2020.1.2,MacIntel,60,,,,,,,,,,,,,,"[""space"",""space"",""space"",""space"",""space"",""space"",""space"",""space"",""space"",""space"",""space"",""space"",""space"",""space"",""space"",""space"",""space"",""space"",""space"",""space""]","[0.2679250000510365,1.1530999999959022,1.8546950001036748,2.75045500008855,3.6192800001008436,4.530085000093095,5.336545000085607,6.143385000061244,7.022245000000112,7.775915000005625,8.6015100000659,9.33183000003919,10.327435000101104,11.204665000084788,12.105580000090413,12.86128000007011,13.636480000102893,14.381000000052154,15.21811500005424,15.941335000097752]",space,0.06763,0.0,13.0,13.0,4.0,1.0,,
,,,,,,,,,,,block_2/none_n_119_4.wav,no,n,none,119.0,1.538189981,14.89986799,,,,Yes,Grado SR125,17,,,,,,1,2020-09-14_22h18.47.480,kura-B2,2020.1.2,MacIntel,60,,,,,,,,,,,,,,"[""space"",""space"",""space"",""space"",""space"",""space"",""space"",""space"",""space"",""space"",""space"",""space"",""space"",""space"",""space"",""space"",""space"",""space"",""space"",""space"",""space"",""space""]","[0.5773599999956787,1.0055100000463426,1.5178900000173599,2.1125900000333786,2.550084999995306,3.1613600000273436,3.761445000069216,4.431899999966845,5.067265000077896,5.471740000066347,6.097120000049472,6.6217300000134856,7.143700000015087,7.75859500002116,8.40246000001207,9.018045000033453,9.697200000053272,10.342360000009649,11.138960000011139,11.806119999964722,12.451545000076294,13.307720000040717]",space,0.553445,0.0,14.0,14.0,20.0,1.0,,
,,,,,,,,,,,block_2/none_n_92_4.wav,no,n,none,92.0,2.009431863,15.90199422,,,,Yes,Grado SR125,17,,,,,,1,2020-09-14_22h18.47.480,kura-B2,2020.1.2,MacIntel,60,,,,,,,,,,,,,,"[""space"",""space"",""space"",""space"",""space"",""space"",""space"",""space"",""space"",""space"",""space"",""space"",""space"",""space"",""space"",""space"",""space"",""space"",""space"",""space"",""space""]","[0.5011700000613928,1.1649550000438467,1.9271500000031665,2.571860000025481,3.213880000053905,4.066910000052303,4.897475000005215,5.547235000063665,6.2014450000133365,6.826175000052899,7.397975000087172,8.013710000086576,8.712030000053346,9.441995000001043,10.030175000079907,10.717135000042617,11.548800000105985,12.28784500004258,13.024270000052638,13.716000000014901,14.880340000032447]",space,0.750695,0.0,15.0,15.0,19.0,1.0,,
,,,,,,,,,,,block_2/medium_n_72_4.wav,no,n,medium,72.0,1.35197092,15.86054235,,,,Yes,Grado SR125,17,,,,,,1,2020-09-14_22h18.47.480,kura-B2,2020.1.2,MacIntel,60,,,,,,,,,,,,,,"[""space"",""space"",""space"",""space"",""space"",""space"",""space"",""space"",""space"",""space"",""space"",""space"",""space"",""space"",""space"",""space"",""space"",""space"",""space"",""space"",""space""]","[0.17991499998606741,0.6082600000081584,1.4052000000374392,2.1672050000634044,2.9064200000138953,3.6595649999799207,4.460659999982454,5.122715000063181,5.870155000011437,6.570105000049807,7.332605000003241,8.172780000022613,8.878479999955744,9.557264999952167,10.258875000057742,11.01191999996081,11.761795000056736,12.508810000028461,13.334449999965727,14.003204999957234,14.709799999953248]",space,0.85279,0.0,16.0,16.0,7.0,1.0,,
,,,,,,,,,,,block_2/strong_n_92_4.wav,no,n,strong,92.0,1.480736093,15.18463632,,,,Yes,Grado SR125,17,,,,,,1,2020-09-14_22h18.47.480,kura-B2,2020.1.2,MacIntel,60,,,,,,,,,,,,,,"[""space"",""space"",""space"",""space"",""space"",""space"",""space"",""space"",""space"",""space"",""space"",""space"",""space"",""space"",""space"",""space"",""space"",""space"",""space"",""space""]","[0.344234999967739,1.2181250000139698,1.9336599999805912,2.6186150000430644,3.325704999966547,4.006599999964237,4.636365000042133,5.413300000014715,6.07550000003539,6.746069999993779,7.518950000056066,8.207369999960065,8.884429999976419,9.65905500005465,10.341295000049286,11.066040000063367,11.780045000021346,12.561690000002272,13.319974999991246,13.967115000006743]",space,2.753065,0.0,17.0,17.0,34.0,1.0,,
,,,,,,,,,,,block_2/weak_n_81_3.wav,no,n,weak,81.0,2.376095497,17.43405468,,,,Yes,Grado SR125,17,,,,,,1,2020-09-14_22h18.47.480,kura-B2,2020.1.2,MacIntel,60,,,,,,,,,,,,,,"[""space"",""space"",""space"",""space"",""space"",""space"",""space"",""space"",""space"",""space"",""space"",""space"",""space"",""space"",""space"",""space"",""space"",""space"",""space"",""space"",""space""]","[0.2018600000301376,0.9107350000413135,1.7188900000182912,2.430125000071712,3.2592250000452623,4.051465000025928,4.766660000081174,5.549165000091307,6.221505000023171,6.968035000027157,7.7077200000640005,8.427185000036843,9.264755000011064,10.015620000078343,10.774590000044554,11.500590000068769,12.215280000003986,12.965680000022985,13.741535000037402,14.541015000082552,15.287175000063144]",space,0.93078,0.0,18.0,18.0,30.0,1.0,,
,,,,,,,,,,,block_2/strong_n_119_4.wav,no,n,strong,119.0,2.003027148,12.07137182,,,,Yes,Grado SR125,17,,,,,,1,2020-09-14_22h18.47.480,kura-B2,2020.1.2,MacIntel,60,,,,,,,,,,,,,,"[""space"",""space"",""space"",""space"",""space"",""space"",""space"",""space"",""space"",""space"",""space"",""space"",""space"",""space"",""space"",""space"",""space"",""space"",""space"",""space""]","[0.6496549999574199,1.1510049999924377,1.587444999953732,2.0860249999677762,2.523840000038035,3.049250000040047,3.6021350000519305,4.107190000009723,4.621255000005476,5.120665000053123,5.624049999983981,6.114100000006147,6.63250499998685,7.117379999952391,7.671815000008792,8.168330000014976,8.647325000027195,9.159435000037774,9.6809699999867,10.181850000051782]",space,0.62627,0.0,19.0,19.0,23.0,1.0,,
,,,,,,,,,,,block_2/medium_n_81_4.wav,no,n,medium,81.0,1.594727623,16.1032537,,,,Yes,Grado SR125,17,,,,,,1,2020-09-14_22h18.47.480,kura-B2,2020.1.2,MacIntel,60,,,,,,,,,,,,,,"[""space"",""space"",""space"",""space"",""space"",""space"",""space"",""space"",""space"",""space"",""space"",""space"",""space"",""space"",""space"",""space"",""space"",""space"",""space"",""space"",""space"",""space""]","[0.19643000001087785,0.5450350000755861,1.294220000039786,2.1436450000619516,2.826340000028722,3.5886950000422075,4.364440000033937,5.126105000032112,5.815455000032671,6.602139999973588,7.272605000063777,8.014295000000857,8.716725000063889,9.428264999995008,10.184424999984913,10.906695000012405,11.6908650000114,12.435430000070482,13.149310000007972,13.852490000077523,14.645604999968782,15.874900000053458]",space,0.44729,0.0,20.0,20.0,38.0,1.0,,
,,,,,,,,,,,block_2/medium_n_105_3.wav,no,n,medium,105.0,2.480661226,14.16274739,,,,Yes,Grado SR125,17,,,,,,1,2020-09-14_22h18.47.480,kura-B2,2020.1.2,MacIntel,60,,,,,,,,,,,,,,"[""space"",""space"",""space"",""space"",""space"",""space"",""space"",""space"",""space"",""space"",""space"",""space"",""space"",""space"",""space"",""space"",""space"",""space"",""space"",""space"",""space""]","[0.2994300000136718,0.7423849999904633,1.3158550000516698,1.9268850000808015,2.459359999978915,3.0363999999826774,3.6680799999739975,4.238020000047982,4.806585000013001,5.390164999989793,5.985635000048205,6.559780000010505,7.126875000074506,7.735495000029914,8.310015000053681,8.896139999968,9.497880000039004,10.069630000041798,10.641635000007227,11.210865000030026,11.80608500004746]",space,0.444895,0.0,21.0,21.0,0.0,1.0,,
,,,,,,,,,,,block_2/none_n_92_3.wav,no,n,none,92.0,2.008897919,17.90894327,,,,Yes,Grado SR125,17,,,,,,1,2020-09-14_22h18.47.480,kura-B2,2020.1.2,MacIntel,60,,,,,,,,,,,,,,"[""space"",""space"",""space"",""space"",""space"",""space"",""space"",""space"",""space"",""space"",""space"",""space"",""space"",""space"",""space"",""space"",""space"",""space"",""space"",""space"",""space"",""space"",""space"",""space""]","[0.32883499993477017,0.7483599999686703,1.4215049999766052,2.139854999957606,2.809129999950528,3.468265000032261,4.090349999954924,4.690455000032671,5.362240000045858,5.981739999959245,6.654729999951087,7.22019999998156,7.81347499997355,8.448414999991655,9.212375000002794,9.837850000010803,10.495134999975562,11.133269999991171,11.804334999993443,12.644334999960847,13.32764999999199,14.081804999965243,14.866344999987632,15.577640000032261]",space,0.874625,0.0,22.0,22.0,25.0,1.0,,
,,,,,,,,,,,block_2/strong_n_72_3.wav,no,n,strong,72.0,2.337906276,17.4032124,,,,Yes,Grado SR125,17,,,,,,1,2020-09-14_22h18.47.480,kura-B2,2020.1.2,MacIntel,60,,,,,,,,,,,,,,"[""space"",""space"",""space"",""space"",""space"",""space"",""space"",""space"",""space"",""space"",""space"",""space"",""space"",""space"",""space"",""space"",""space"",""space"",""space"",""space""]","[0.44926000002305955,1.3255849999841303,2.1342250000452623,2.9109199999365956,3.652379999984987,4.490435000043362,5.239874999970198,6.03133499994874,6.732949999975972,7.480534999980591,8.288324999972247,9.048190000001341,9.829729999997653,10.617689999984577,11.340805000043474,12.217455000034533,13.052329999976791,13.747880000039004,14.521349999937229,15.301029999973252]",space,0.886725,0.0,23.0,23.0,32.0,1.0,,
,,,,,,,,,,,block_2/strong_n_72_4.wav,no,n,strong,72.0,1.689031128,17.05764791,,,,Yes,Grado SR125,17,,,,,,1,2020-09-14_22h18.47.480,kura-B2,2020.1.2,MacIntel,60,,,,,,,,,,,,,,"[""space"",""space"",""space"",""space"",""space"",""space"",""space"",""space"",""space"",""space"",""space"",""space"",""space"",""space"",""space"",""space"",""space"",""space"",""space"",""space"",""space""]","[0.18712000001687557,0.8434350000461563,1.3427849999861792,2.1649700000416487,2.9890150000574067,3.7648449999978766,4.538870000047609,5.342100000008941,6.1551750000799075,6.93316000001505,7.734340000082739,8.518999999971129,9.301850000047125,10.067849999992177,10.856185000040568,11.69394500006456,12.51637500000652,13.281919999979436,14.029964999994263,14.816145000047982,15.625480000046082]",space,0.86216,0.0,24.0,24.0,35.0,1.0,,
,,,,,,,,,,,block_2/strong_n_119_3.wav,no,n,strong,119.0,2.299979207,12.06555744,,,,Yes,Grado SR125,17,,,,,,1,2020-09-14_22h18.47.480,kura-B2,2020.1.2,MacIntel,60,,,,,,,,,,,,,,"[""space"",""space"",""space"",""space"",""space"",""space"",""space"",""space"",""space"",""space"",""space"",""space"",""space"",""space"",""space"",""space"",""space"",""space"",""space"",""space""]","[0.809320000000298,1.1468549999408424,1.602919999975711,2.112929999944754,2.567769999965094,3.0681199999526143,3.547844999935478,4.051304999971762,4.574049999937415,5.033010000013746,5.497084999922663,5.993254999979399,6.438725000014529,6.948299999930896,7.470495000015944,7.94879499997478,8.434679999947548,8.926424999954179,9.418390000006184,9.908975000027567]",space,0.58726,0.0,25.0,25.0,16.0,1.0,,
,,,,,,,,,,,block_2/none_n_81_4.wav,no,n,none,81.0,1.032736778,20.98466422,,,,Yes,Grado SR125,17,,,,,,1,2020-09-14_22h18.47.480,kura-B2,2020.1.2,MacIntel,60,,,,,,,,,,,,,,"[""space"",""space"",""space"",""space"",""space"",""space"",""space"",""space"",""space"",""space"",""space"",""space"",""space"",""space"",""space"",""space"",""space"",""space"",""space"",""space"",""space"",""space"",""space"",""space"",""space"",""space"",""space"",""space"",""space"",""space"",""space"",""space"",""space"",""space"",""space"",""space"",""space"",""space"",""space""]","[0.20659499999601394,0.5504100000252947,0.9283849999774247,1.438979999977164,1.8666149999480695,2.3339649999979883,2.791594999958761,3.321114999940619,3.779909999924712,4.298769999993965,4.788474999950267,5.268619999988005,5.796429999987595,6.3096049999585375,6.831739999935962,7.394035000004806,7.87761500000488,8.488675000029616,9.082404999993742,9.537754999939352,10.055304999928921,10.57290499994997,11.117450000019744,11.667584999930114,12.211569999926724,12.79399499995634,13.32558499998413,13.814260000013746,14.334580000024289,14.909069999936037,15.472079999977723,16.049179999972694,16.649014999973588,17.160754999960773,17.7155849999981,18.29261000000406,18.85670499992557,19.423429999966174,19.96539499994833]",space,2.089605,0.0,26.0,26.0,26.0,1.0,,
,,,,,,,,,,,block_2/none_n_81_3.wav,no,n,none,81.0,2.161532659,18.80565964,,,,Yes,Grado SR125,17,,,,,,1,2020-09-14_22h18.47.480,kura-B2,2020.1.2,MacIntel,60,,,,,,,,,,,,,,"[""space"",""space"",""space"",""space"",""space"",""space"",""space"",""space"",""space"",""space"",""space"",""space"",""space"",""space"",""space"",""space"",""space"",""space"",""space"",""space"",""space"",""space"",""space"",""space"",""space"",""space"",""space""]","[0.3578850000631064,0.7245250000851229,1.3633799999952316,1.88268500007689,2.54542500001844,3.1372400000691414,3.829535000026226,4.473014999995939,5.093010000069626,5.7699049999937415,6.426850000047125,7.096605000086129,7.67819500004407,8.26637500000652,8.867815000005066,9.525424999999814,10.186044999980368,10.827640000032261,11.526279999990948,12.277280000038445,13.118540000054054,13.847249999991618,14.496995000052266,15.193060000077821,15.868179999990389,16.59820500004571,18.762274999986403]",space,0.802365,0.0,27.0,27.0,29.0,1.0,,
,,,,,,,,,,,block_2/strong_n_92_3.wav,no,n,strong,92.0,1.019287146,13.50967263,,,,Yes,Grado SR125,17,,,,,,1,2020-09-14_22h18.47.480,kura-B2,2020.1.2,MacIntel,60,,,,,,,,,,,,,,"[""space"",""space"",""space"",""space"",""space"",""space"",""space"",""space"",""space"",""space"",""space"",""space"",""space"",""space"",""space"",""space"",""space"",""space"",""space"",""space"",""space""]","[0.42468499997630715,0.7288649999536574,1.2781500000273809,1.937195000005886,2.5610550000565127,3.191579999984242,3.826905000023544,4.483950000023469,5.096054999972694,5.730714999954216,6.376719999941997,7.021145000006072,7.640005000052042,8.249115000013262,8.884055000031367,9.559465000056662,10.1936299999943,10.80706000002101,11.47351499996148,12.108054999960586,12.752884999965318]",space,0.8461,0.0,28.0,28.0,39.0,1.0,,
,,,,,,,,,,,block_2/weak_n_72_3.wav,no,n,weak,72.0,1.604938988,17.47283014,,,,Yes,Grado SR125,17,,,,,,1,2020-09-14_22h18.47.480,kura-B2,2020.1.2,MacIntel,60,,,,,,,,,,,,,,"[""space"",""space"",""space"",""space"",""space"",""space"",""space"",""space"",""space"",""space"",""space"",""space"",""space"",""space"",""space"",""space"",""space"",""space"",""space"",""space"",""space""]","[0.16716499999165535,0.8147149999858811,1.7725599999539554,2.548979999963194,3.2513749999925494,3.976825000019744,4.830734999966808,5.695189999998547,6.4351150000002235,7.194879999966361,8.073089999961667,8.797404999961145,9.540369999944232,10.304175000055693,11.125364999985322,11.887480000033975,12.664394999970682,13.492130000027828,14.32350000005681,15.030679999967106,15.822930000023916]",space,0.337235,0.0,29.0,29.0,8.0,1.0,,
,,,,,,,,,,,block_2/strong_n_81_3.wav,no,n,strong,81.0,2.384474622,16.38941793,,,,Yes,Grado SR125,17,,,,,,1,2020-09-14_22h18.47.480,kura-B2,2020.1.2,MacIntel,60,,,,,,,,,,,,,,"[""space"",""space"",""space"",""space"",""space"",""space"",""space"",""space"",""space"",""space"",""space"",""space"",""space"",""space"",""space"",""space"",""space"",""space"",""space"",""space"",""space""]","[0.5850000000791624,1.292005000053905,2.095670000067912,2.7579300000797957,3.637860000017099,4.302365000010468,4.944015000015497,5.597360000014305,6.198295000009239,6.921919999993406,7.70367499999702,8.491800000076182,9.145254999981262,9.904225000063889,10.645635000080802,11.239550000056624,12.023540000081994,12.70188499998767,13.401930000050925,14.075385000091046,16.238800000050105]",space,0.699625,0.0,30.0,30.0,10.0,1.0,,
,,,,,,,,,,,block_2/strong_n_105_4.wav,no,n,strong,105.0,1.723608797,13.55862014,,,,Yes,Grado SR125,17,,,,,,1,2020-09-14_22h18.47.480,kura-B2,2020.1.2,MacIntel,60,,,,,,,,,,,,,,"[""space"",""space"",""space"",""space"",""space"",""space"",""space"",""space"",""space"",""space"",""space"",""space"",""space"",""space"",""space"",""space"",""space"",""space"",""space"",""space"",""space""]","[0.2744149999925867,0.787455000099726,1.2483300000894815,1.8261150000616908,2.3849050001008436,2.974670000025071,3.5862500000512227,4.197565000038594,4.796995000098832,5.391475000069477,5.965825000079349,6.6345600000349805,7.23511500004679,7.805980000062846,8.407780000008643,8.986870000022464,9.570485000032932,10.172435000073165,10.755450000055134,11.360165000078268,11.96963000006508]",space,0.564875,0.0,31.0,31.0,3.0,1.0,,
,,,,,,,,,,,block_2/medium_n_105_4.wav,no,n,medium,105.0,2.115061775,16.52181914,,,,Yes,Grado SR125,17,,,,,,1,2020-09-14_22h18.47.480,kura-B2,2020.1.2,MacIntel,60,,,,,,,,,,,,,,"[""space"",""space"",""space"",""space"",""space"",""space"",""space"",""space"",""space"",""space"",""space"",""space"",""space"",""space"",""space"",""space"",""space"",""space"",""space"",""space""]","[0.5491600000532344,1.0937250000424683,1.906665000016801,2.7778549999929965,3.529145000036806,4.4061450000153854,5.168875000090338,5.947780000045896,6.708265000022948,7.398230000049807,8.118209999985993,8.84223499998916,9.599755000090227,10.294130000052974,10.990200000000186,11.677425000001676,12.39570500003174,13.118375000078231,13.855274999979883,14.593710000044666]",space,0.631675,0.0,32.0,32.0,12.0,1.0,,
,,,,,,,,,,,block_2/none_n_105_3.wav,no,n,none,105.0,1.200203838,13.86165508,,,,Yes,Grado SR125,17,,,,,,1,2020-09-14_22h18.47.480,kura-B2,2020.1.2,MacIntel,60,,,,,,,,,,,,,,"[""space"",""space"",""space"",""space"",""space"",""space"",""space"",""space"",""space"",""space"",""space"",""space"",""space"",""space"",""space"",""space"",""space"",""space"",""space"",""space"",""space"",""space"",""space"",""space""]","[0.5126999999629334,0.92675500002224,1.58227499993518,2.3999149999581277,2.8870549999410287,3.34175999998115,3.836864999961108,4.35629499994684,4.87402500002645,5.350100000039674,5.8485400000354275,6.333059999975376,6.833935000002384,7.3758150000358,7.876199999940582,8.293895000009798,8.776180000044405,9.293334999936633,9.857704999973066,10.442559999995865,10.990185000002384,11.516309999977238,12.081634999951348,12.53058499994222]",space,0.146665,0.0,33.0,33.0,6.0,1.0,,
,,,,,,,,,,,block_2/strong_n_105_3.wav,no,n,strong,105.0,2.095458379,13.32602527,,,,Yes,Grado SR125,17,,,,,,1,2020-09-14_22h18.47.480,kura-B2,2020.1.2,MacIntel,60,,,,,,,,,,,,,,"[""space"",""space"",""space"",""space"",""space"",""space"",""space"",""space"",""space"",""space"",""space"",""space"",""space"",""space"",""space"",""space"",""space"",""space"",""space"",""space""]","[0.29197499994188547,0.959789999993518,1.6014699999941513,2.1262400000123307,2.734154999954626,3.3012200000230223,3.8994699999457225,4.4373849999392405,5.06628999998793,5.620370000018738,6.2417399999685585,6.795060000033118,7.368430000031367,7.932294999947771,8.500209999969229,9.098050000029616,9.621810000040568,10.23277500004042,10.808480000006966,11.36358999996446]",space,0.659465,0.0,34.0,34.0,9.0,1.0,,
,,,,,,,,,,,block_2/weak_n_105_4.wav,no,n,weak,105.0,1.277365727,12.0504723,,,,Yes,Grado SR125,17,,,,,,1,2020-09-14_22h18.47.480,kura-B2,2020.1.2,MacIntel,60,,,,,,,,,,,,,,"[""space"",""space"",""space"",""space"",""space"",""space"",""space"",""space"",""space"",""space"",""space"",""space"",""space"",""space"",""space"",""space"",""space"",""space"",""space"",""space"",""space"",""space""]","[0.180919999955222,0.5519900000654161,1.0090750000672415,1.4615200000116602,1.940595000050962,2.5309099999722093,3.091305000009015,3.6314750000601634,4.159375000046566,4.704185000038706,5.227850000024773,5.732040000031702,6.280099999974482,6.799390000058338,7.337449999991804,7.863335000001825,8.37596500001382,8.883065000060014,9.417009999975562,9.916930000064895,10.44507000001613,10.960579999955371]",space,0.868045,0.0,35.0,35.0,28.0,1.0,,
,,,,,,,,,,,block_2/weak_n_105_3.wav,no,n,weak,105.0,2.432347709,14.10785791,,,,Yes,Grado SR125,17,,,,,,1,2020-09-14_22h18.47.480,kura-B2,2020.1.2,MacIntel,60,,,,,,,,,,,,,,"[""space"",""space"",""space"",""space"",""space"",""space"",""space"",""space"",""space"",""space"",""space"",""space"",""space"",""space"",""space"",""space"",""space"",""space"",""space"",""space"",""space"",""space""]","[0.1884299999801442,0.7537200000369921,1.2803599999751896,1.748079999932088,2.125374999945052,2.5764450000133365,3.188609999953769,3.8831800000043586,4.442535000038333,5.009360000025481,5.625054999953136,6.178764999960549,6.669750000000931,7.2346850000321865,7.82819999998901,8.394734999979846,9.014994999975897,9.601789999986067,10.176310000009835,10.683835000032559,11.22124999994412,11.809789999970235]",space,0.698795,0.0,36.0,36.0,27.0,1.0,,
,,,,,,,,,,,block_2/none_n_105_4.wav,no,n,none,105.0,1.256367297,16.73296594,,,,Yes,Grado SR125,17,,,,,,1,2020-09-14_22h18.47.480,kura-B2,2020.1.2,MacIntel,60,,,,,,,,,,,,,,"[""space"",""space"",""space"",""space"",""space"",""space"",""space"",""space"",""space"",""space"",""space"",""space"",""space"",""space"",""space"",""space"",""space"",""space"",""space"",""space"",""space"",""space"",""space"",""space"",""space"",""space"",""space""]","[0.22877500008326024,0.6697600000770763,1.1352849999675527,1.4969500000588596,2.043400000082329,2.5890849999850616,3.0373000000836328,3.646294999984093,4.277085000067018,4.785980000044219,5.32397500006482,5.783219999982975,6.363914999994449,6.938979999977164,7.617474999977276,8.415795000037178,9.066740000038408,9.670745000010356,10.347829999984242,11.076549999997951,11.697795000043698,12.312400000053458,12.891330000013113,13.506125000072643,14.239385000080802,14.812030000030063,15.378454999998212]",space,0.479455,0.0,37.0,37.0,14.0,1.0,,
,,,,,,,,,,,block_2/medium_n_119_4.wav,no,n,medium,119.0,1.918272059,10.22534689,,,,Yes,Grado SR125,17,,,,,,1,2020-09-14_22h18.47.480,kura-B2,2020.1.2,MacIntel,60,,,,,,,,,,,,,,"[""space"",""space"",""space"",""space"",""space"",""space"",""space"",""space"",""space"",""space"",""space"",""space"",""space"",""space"",""space"",""space"",""space"",""space"",""space""]","[0.39043500006664544,0.9767449999926612,1.4968949999893084,1.9289950000820681,2.2730450000381097,2.6845650000032037,3.081140000023879,3.474765000049956,3.9078800000716,4.362220000009984,4.814080000040121,5.267020000028424,5.743544999975711,6.210580000071786,6.64632000005804,7.076785000041127,7.52023000002373,7.971695000072941,8.431199999991804]",space,0.341055,0.0,38.0,38.0,17.0,1.0,,
,,,,,,,,,,,block_2/none_n_119_3.wav,no,n,none,119.0,1.37370001,14.3364211,,,,Yes,Grado SR125,17,,,,,,1,2020-09-14_22h18.47.480,kura-B2,2020.1.2,MacIntel,60,,,,,,,,,,,,,,"[""space"",""space"",""space"",""space"",""space"",""space"",""space"",""space"",""space"",""space"",""space"",""space"",""space"",""space"",""space"",""space"",""space"",""space"",""space"",""space"",""space"",""space"",""space"",""space"",""space""]","[0.24257500004023314,0.5832749999826774,1.1576050000730902,1.8295500000240281,2.2820400000782683,2.706265000044368,3.188994999974966,3.73058500001207,4.0974350000033155,4.623535000020638,5.105025000055321,5.754599999985658,6.235960000078194,6.706000000005588,7.189454999985173,7.687715000007302,8.22487000003457,8.819100000080653,9.371945000020787,9.862300000037067,10.358059999998659,10.935464999987744,11.513840000028722,12.09113499999512,12.658494999981485]",space,0.45633,0.0,39.0,39.0,24.0,1.0,,
,,,,,,,,,,,,,,,,,,,,,Yes,Grado SR125,17,,,,,,1,2020-09-14_22h18.47.480,kura-B2,2020.1.2,MacIntel,60,,,,,,,,,,,,,,,,,,,,,,,space,58.22403
