key_resp.keys,key_resp.rt,practice_taps.keys,practice_taps.rt,keyresp.keys,keyresp.rt,practice_stims_loop.thisRepN,practice_stims_loop.thisTrialN,practice_stims_loop.thisN,practice_stims_loop.thisIndex,practice_stims_loop.ran,sndfile,type,tempo,cond,version,delay,dur,Participant Initials,"If you are a MTurk worker, what is your MTurk worker ID?","If you are not an MTurk worker, please provide your email address",Are you wearing headphones?,What are the headphone make and model?,"How many years of musical training, if any, do you have?",Do you have any hearing problems? Please describe,What is your sex (f/m/decline)?,What is your age?,What is your handedness (R/L/ambi)?,Are you currently in a secure and quiet room without a possible interruption?,session ,date,expName,psychopyVersion,OS,frameRate,instructions_prompt.keys,instructions_prompt.rt,block1_taps.keys,block1_taps.rt,key_resp_2.keys,key_resp_2.rt,trials.thisRepN,trials.thisTrialN,trials.thisN,trials.thisIndex,trials.ran,key_resp2.keys,key_resp2.rt,block2_taps.keys,block2_taps.rt,key_resp_3.keys,key_resp_3.rt,trials_2.thisRepN,trials_2.thisTrialN,trials_2.thisN,trials_2.thisIndex,trials_2.ran,key_resp_4.keys,key_resp_4.rt
space,13.357735,"[""space"",""space"",""space"",""space"",""space"",""space"",""space"",""space"",""space"",""space"",""space"",""space""]","[3.344519999984186,3.7444649999961257,4.171180000004824,4.6243499999982305,5.138090000022203,5.576449999993201,6.064385000034235,6.54425999999512,7.0081300000310875,7.464405000035185,7.907430000021122,8.36019999999553]",space,1.72655,0.0,0.0,0.0,1.0,1.0,block_2/medium_n_119_4.wav,no,n,medium,119.0,1.224634286,9.531709116,,,,Yes,Sennheiser CX300,16,no,m,30,R,Yes,1,2020-09-16_13h54.10.653,kura-B2,2020.1.2,Win32,60,,,,,,,,,,,,,,,,,,,,,,,,
,,"[""space"",""space"",""space"",""space"",""space"",""space"",""space"",""space"",""space"",""space"",""space"",""space"",""space"",""space"",""space"",""space""]","[2.1832399999839254,2.671440000005532,3.4388550000148825,4.294374999997672,5.107194999989588,6.094169999996666,7.103260000003502,8.07269499998074,8.934680000005756,10.07055499998387,11.175204999977723,12.014395000005607,13.014770000008866,13.91106499999296,14.88267999998061,15.71045499999309]",space,1.1571,0.0,1.0,1.0,0.0,1.0,block_2/none_n_92_3.wav,no,n,none,92.0,2.306164339,18.20620969,,,,Yes,Sennheiser CX300,16,no,m,30,R,Yes,1,2020-09-16_13h54.10.653,kura-B2,2020.1.2,Win32,60,,,,,,,,,,,,,,,,,,,,,,,,
,,"[""space"",""space"",""space"",""space"",""space"",""space"",""space"",""space"",""space"",""space"",""space"",""space"",""space"",""space"",""space""]","[3.1245249999919906,3.517475000000559,4.028749999997672,4.460560000035912,4.909500000008848,5.412335000000894,5.892195000022184,6.39630500000203,6.892185000004247,7.405469999997877,7.909250000026077,8.511969999992289,8.996335000032559,9.511930000036955,10.012730000016745]",space,1.70046,0.0,2.0,2.0,3.0,1.0,block_1/medium_t_119_4.wav,timbre,t,medium,119.0,1.752316959,11.57313329,,,,Yes,Sennheiser CX300,16,no,m,30,R,Yes,1,2020-09-16_13h54.10.653,kura-B2,2020.1.2,Win32,60,,,,,,,,,,,,,,,,,,,,,,,,
,,"[""space"",""space"",""space"",""space"",""space"",""space"",""space"",""space"",""space"",""space"",""space"",""space"",""space"",""space"",""space"",""space"",""space""]","[2.0755500000086613,2.67531500000041,3.1631449999986216,3.656215000024531,4.2062150000128895,4.852085000020452,5.44310500001302,5.923654999991413,6.467085000011139,6.995745000021998,7.499074999999721,8.019209999998566,8.515554999990854,9.051199999987148,9.571165000030305,10.099370000010822,10.612030000018422]",space,1.71793,0.0,3.0,3.0,2.0,1.0,block_2/weak_n_105_4.wav,no,n,weak,105.0,1.982674472,12.75578105,,,,Yes,Sennheiser CX300,16,no,m,30,R,Yes,1,2020-09-16_13h54.10.653,kura-B2,2020.1.2,Win32,60,,,,,,,,,,,,,,,,,,,,,,,,
,,,,,,,,,,,block_1/strong_t_92_4.wav,timbre,t,strong,92.0,1.022726917,13.26377,,,,Yes,Sennheiser CX300,16,no,m,30,R,Yes,1,2020-09-16_13h54.10.653,kura-B2,2020.1.2,Win32,60,space,6.58184,"[""space"",""space"",""space"",""space"",""space"",""space"",""space"",""space"",""space"",""space"",""space"",""space"",""space"",""space"",""space"",""space"",""space""]","[2.405284999986179,3.0876249999855645,3.7384999999776483,4.3393250000081025,4.989149999979418,5.639945000002626,6.275284999981523,6.924330000008922,7.5746950000175275,8.1260749999783,8.793780000007246,9.410444999986794,10.077884999976959,10.711324999982025,11.328334999969229,11.962605000007898,12.630409999983385]",space,1.62047,0.0,0.0,0.0,9.0,1.0,,,,,,,,,,,,,
,,,,,,,,,,,block_1/medium_t_81_3.wav,timbre,t,medium,81.0,1.352794873,13.94617356,,,,Yes,Sennheiser CX300,16,no,m,30,R,Yes,1,2020-09-16_13h54.10.653,kura-B2,2020.1.2,Win32,60,,,"[""space"",""space"",""space"",""space"",""space"",""space"",""space"",""space"",""space"",""space"",""space"",""space"",""space"",""space"",""space"",""space"",""space""]","[2.019365000014659,2.6863550000125542,3.3717600000090897,4.071200000005774,4.771260000008624,5.3720699999830686,5.990020000026561,6.706575000018347,7.356865000037942,7.9917799999821,8.641745000029914,9.30967500002589,9.976680000021588,10.62826500000665,11.278805000009015,11.913274999998976,12.546030000026803]",space,1.68951,0.0,1.0,1.0,8.0,1.0,,,,,,,,,,,,,
,,,,,,,,,,,block_1/none_t_105_3.wav,timbre,t,none,105.0,2.248615294,16.06934092,,,,Yes,Sennheiser CX300,16,no,m,30,R,Yes,1,2020-09-16_13h54.10.653,kura-B2,2020.1.2,Win32,60,,,"[""space"",""space"",""space"",""space"",""space"",""space"",""space"",""space"",""space"",""space"",""space"",""space"",""space"",""space"",""space"",""space"",""space"",""space"",""space"",""space"",""space"",""space""]","[2.492484999995213,3.395409999997355,3.870794999995269,4.275555000000168,4.624015000008512,5.163995000009891,5.731805000046734,6.211615000036545,6.763850000046659,7.251770000031684,7.756165000027977,8.310605000006035,8.860900000028778,9.388680000032764,9.971890000044368,10.555615000019316,11.11549500003457,11.694850000028964,12.307825000025332,12.877360000042245,13.446395000035409,14.051934999995865]",space,1.08747,0.0,2.0,2.0,14.0,1.0,,,,,,,,,,,,,
,,,,,,,,,,,block_1/weak_t_105_3.wav,timbre,t,weak,105.0,2.038080476,13.26905553,,,,Yes,Sennheiser CX300,16,no,m,30,R,Yes,1,2020-09-16_13h54.10.653,kura-B2,2020.1.2,Win32,60,,,"[""space"",""space"",""space"",""space"",""space"",""space"",""space"",""space"",""space"",""space"",""space"",""space"",""space"",""space"",""space"",""space""]","[2.4815250000101514,2.976810000021942,3.6979600000195205,4.265695000009146,4.841784999996889,5.401205000001937,5.913219999987632,6.449460000032559,7.0434450000175275,7.632900000025984,8.233355000033043,8.778370000014547,9.281164999993052,9.779329999990296,10.353204999992158,11.056860000011511]",space,0.914055,0.0,3.0,3.0,4.0,1.0,,,,,,,,,,,,,
,,,,,,,,,,,block_1/none_t_119_4.wav,timbre,t,none,119.0,1.977931805,11.04042614,,,,Yes,Sennheiser CX300,16,no,m,30,R,Yes,1,2020-09-16_13h54.10.653,kura-B2,2020.1.2,Win32,60,,,"[""space"",""space"",""space"",""space"",""space"",""space"",""space"",""space"",""space"",""space"",""space"",""space""]","[1.4408200000179932,2.0570750000188127,2.753114999970421,3.3931699999957345,4.121649999986403,4.823099999979604,5.488550000009127,6.201884999987669,6.940925000002608,7.681044999975711,8.362145000020973,9.093294999969658]",space,1.63673,0.0,4.0,4.0,27.0,1.0,,,,,,,,,,,,,
,,,,,,,,,,,block_1/strong_t_81_3.wav,timbre,t,strong,81.0,2.437587677,17.65296183,,,,Yes,Sennheiser CX300,16,no,m,30,R,Yes,1,2020-09-16_13h54.10.653,kura-B2,2020.1.2,Win32,60,,,"[""space"",""space"",""space"",""space"",""space"",""space"",""space"",""space"",""space"",""space"",""space"",""space"",""space"",""space"",""space"",""space"",""space"",""space"",""space""]","[0.5895500000333413,1.6173149999813177,2.416060000017751,3.272850000008475,4.055090000038035,4.806329999992158,5.549670000036713,6.3494250000221655,7.125694999995176,7.90958999999566,8.638455000007525,9.41350500000408,10.286070000031032,11.229770000034478,11.702155000006314,12.558599999989383,13.303209999983665,14.069910000020172,14.837850000010803]",space,0.97085,0.0,5.0,5.0,24.0,1.0,,,,,,,,,,,,,
,,,,,,,,,,,block_1/weak_t_81_4.wav,timbre,t,weak,81.0,2.31768599,15.5134683,,,,Yes,Sennheiser CX300,16,no,m,30,R,Yes,1,2020-09-16_13h54.10.653,kura-B2,2020.1.2,Win32,60,,,"[""space"",""space"",""space"",""space"",""space"",""space"",""space"",""space"",""space"",""space"",""space"",""space"",""space"",""space"",""space"",""space"",""space"",""space"",""space""]","[0.7890400000032969,1.6044650000403635,2.2449149999883957,2.935025000013411,3.629000000015367,4.3325000000186265,5.100930000015069,5.596415000036359,6.180690000008326,6.852780000015628,7.51724000001559,8.196540000033565,8.965020000003278,9.604890000016894,10.316619999997783,11.004710000008345,11.716920000035316,12.413609999988694,13.062930000014603]",space,4.33877,0.0,6.0,6.0,0.0,1.0,,,,,,,,,,,,,
,,,,,,,,,,,block_1/strong_t_72_3.wav,timbre,t,strong,72.0,1.503157527,17.98057249,,,,Yes,Sennheiser CX300,16,no,m,30,R,Yes,1,2020-09-16_13h54.10.653,kura-B2,2020.1.2,Win32,60,,,"[""space"",""space"",""space"",""space"",""space"",""space"",""space"",""space"",""space"",""space"",""space"",""space"",""space"",""space"",""space"",""space"",""space"",""space"",""space""]","[1.6876400000182912,2.5717549999826588,3.5211949999793433,4.343974999967031,5.176274999976158,5.9999449999886565,6.832349999982398,7.704555000003893,8.528080000018235,9.416380000009667,10.247679999971297,11.071799999976065,11.872144999972079,12.656749999965541,13.60012999997707,14.383674999990035,15.272134999977425,16.11478999996325,16.92755500000203]",space,1.12809,0.0,7.0,7.0,5.0,1.0,,,,,,,,,,,,,
,,,,,,,,,,,block_1/none_t_81_4.wav,timbre,t,none,81.0,1.802900323,17.84380735,,,,Yes,Sennheiser CX300,16,no,m,30,R,Yes,1,2020-09-16_13h54.10.653,kura-B2,2020.1.2,Win32,60,,,"[""space"",""space"",""space"",""space"",""space"",""space"",""space"",""space"",""space"",""space"",""space"",""space"",""space"",""space"",""space"",""space"",""space"",""space"",""space"",""space"",""space""]","[2.405224999994971,3.0347750000073574,3.6900349999777973,4.405465000018012,5.141145000001416,5.794140000012703,6.385415000026114,7.060694999992847,7.7294049999909475,8.417675000033341,9.129744999983814,9.81818000000203,10.48165999999037,11.16457999998238,11.814060000004247,12.539059999980964,13.2176750000217,13.867580000020098,14.52202999999281,15.22577000001911,15.873220000008587]",space,1.437045,0.0,8.0,8.0,12.0,1.0,,,,,,,,,,,,,
,,,,,,,,,,,block_1/weak_t_119_3.wav,timbre,t,weak,119.0,1.729530605,11.14109523,,,,Yes,Sennheiser CX300,16,no,m,30,R,Yes,1,2020-09-16_13h54.10.653,kura-B2,2020.1.2,Win32,60,,,"[""space"",""space"",""space"",""space"",""space"",""space"",""space"",""space"",""space"",""space"",""space"",""space"",""space"",""space"",""space"",""space"",""space"",""space""]","[2.0598549999995157,2.402330000011716,2.8994650000240654,3.1959050000295974,3.5382550000213087,3.8985500000417233,4.346635000023525,4.773725000035483,5.242885000014212,5.746540000021923,6.1746250000433065,6.590295000001788,7.114675000018906,7.742425000004005,8.252659999998286,8.75612000003457,9.18676500004949,9.69475500000408]",space,1.32295,0.0,9.0,9.0,13.0,1.0,,,,,,,,,,,,,
,,,,,,,,,,,block_1/strong_t_92_3.wav,timbre,t,strong,92.0,1.987733848,15.03440052,,,,Yes,Sennheiser CX300,16,no,m,30,R,Yes,1,2020-09-16_13h54.10.653,kura-B2,2020.1.2,Win32,60,,,"[""space"",""space"",""space"",""space"",""space"",""space"",""space"",""space"",""space"",""space"",""space"",""space"",""space"",""space"",""space"",""space"",""space"",""space"",""space""]","[1.396195000037551,2.0535150000359863,2.755650000006426,3.471305000013672,4.105870000028517,4.789340000017546,5.4228149999980815,6.073815000010654,6.7413850000011735,7.408050000027288,8.060980000009295,8.71017000003485,9.260074999998324,10.011715000029653,10.6784050000133,11.378550000023097,12.062945000012405,12.76425000000745,13.447890000010375]",space,1.219045,0.0,10.0,10.0,3.0,1.0,,,,,,,,,,,,,
,,,,,,,,,,,block_1/weak_t_92_4.wav,timbre,t,weak,92.0,1.530875014,13.01332399,,,,Yes,Sennheiser CX300,16,no,m,30,R,Yes,1,2020-09-16_13h54.10.653,kura-B2,2020.1.2,Win32,60,,,"[""space"",""space"",""space"",""space"",""space"",""space"",""space"",""space"",""space"",""space"",""space"",""space"",""space"",""space"",""space"",""space"",""space"",""space"",""space""]","[1.4871300000231713,1.9700200000079349,2.6221600000280887,3.1384300000499934,3.721990000049118,4.322695000038948,4.906345000024885,5.459614999999758,6.075750000018161,6.642005000030622,7.258790000050794,7.842720000015106,8.377000000036787,8.894285000045784,9.494140000024345,10.061340000014752,10.66268000000855,11.245730000024196,11.82949000003282]",space,0.985595,0.0,11.0,11.0,29.0,1.0,,,,,,,,,,,,,
,,,,,,,,,,,block_1/weak_t_81_3.wav,timbre,t,weak,81.0,1.53156375,17.80117826,,,,Yes,Sennheiser CX300,16,no,m,30,R,Yes,1,2020-09-16_13h54.10.653,kura-B2,2020.1.2,Win32,60,,,"[""space"",""space"",""space"",""space"",""space"",""space"",""space"",""space"",""space"",""space"",""space"",""space"",""space"",""space"",""space"",""space"",""space"",""space"",""space""]","[2.1362349999835715,2.7866800000192598,3.5871099999640137,4.038995000009891,4.738595000002533,5.523979999998119,6.257559999998193,7.058015000016894,7.825750000018161,8.676470000005793,9.462784999981523,10.328370000002906,11.07870000001276,11.879490000021178,12.614475000009406,13.43092000001343,14.282584999979008,15.083099999988917,15.933450000011362]",space,1.202875,0.0,12.0,12.0,6.0,1.0,,,,,,,,,,,,,
,,,,,,,,,,,block_1/medium_t_72_3.wav,timbre,t,medium,72.0,2.203768917,18.98399567,,,,Yes,Sennheiser CX300,16,no,m,30,R,Yes,1,2020-09-16_13h54.10.653,kura-B2,2020.1.2,Win32,60,,,"[""space"",""space"",""space"",""space"",""space"",""space"",""space"",""space"",""space"",""space"",""space"",""space"",""space"",""space"",""space"",""space"",""space"",""space""]","[1.7360849999822676,2.519819999986794,3.3874099999666214,4.27529499999946,5.272614999965299,6.074509999947622,6.907669999985956,7.7081949999555945,8.595634999976028,9.46005499997409,10.310939999995753,11.12858999997843,12.046199999982491,12.864914999983739,13.78080999996746,14.615279999969061,15.515589999966323,16.399664999975357]",space,0.77063,0.0,13.0,13.0,31.0,1.0,,,,,,,,,,,,,
,,,,,,,,,,,block_1/none_t_72_3.wav,timbre,t,none,72.0,1.707698408,21.90234693,,,,Yes,Sennheiser CX300,16,no,m,30,R,Yes,1,2020-09-16_13h54.10.653,kura-B2,2020.1.2,Win32,60,,,"[""space"",""space"",""space"",""space"",""space"",""space"",""space"",""space"",""space"",""space"",""space"",""space"",""space"",""space"",""space"",""space"",""space"",""space"",""space""]","[2.7703399999882095,3.6884399999980815,4.656109999981709,5.639604999974836,6.608039999962784,7.524904999998398,8.692809999978635,9.727104999998119,10.678544999973383,11.579105000011623,12.497524999955203,13.414339999959338,14.399830000009388,15.332835000008345,16.200454999983776,17.084709999966435,18.135829999984708,19.07003999996232,20.087884999986272]",space,0.836135,0.0,14.0,14.0,19.0,1.0,,,,,,,,,,,,,
,,,,,,,,,,,block_1/weak_t_72_3.wav,timbre,t,weak,72.0,1.571303333,17.03996546,,,,Yes,Sennheiser CX300,16,no,m,30,R,Yes,1,2020-09-16_13h54.10.653,kura-B2,2020.1.2,Win32,60,,,"[""space"",""space"",""space"",""space"",""space"",""space"",""space"",""space"",""space"",""space"",""space"",""space"",""space"",""space"",""space"",""space"",""space"",""space"",""space""]","[2.0198649999802,2.5203200000105426,2.820045000000391,3.2211000000243075,3.97146500000963,4.705714999989141,5.556589999992866,6.357369999983348,7.174379999982193,7.891754999989644,8.72597999998834,9.596459999971557,10.36089999997057,11.195460000017192,11.9801350000198,12.747069999983069,13.61436499998672,14.450294999987818,15.200339999981225]",space,1.26987,0.0,15.0,15.0,26.0,1.0,,,,,,,,,,,,,
,,,,,,,,,,,block_1/none_t_72_4.wav,timbre,t,none,72.0,1.772355542,25.47190203,,,,Yes,Sennheiser CX300,16,no,m,30,R,Yes,1,2020-09-16_13h54.10.653,kura-B2,2020.1.2,Win32,60,,,"[""space"",""space"",""space"",""space"",""space"",""space"",""space"",""space"",""space"",""space"",""space"",""space"",""space"",""space"",""space"",""space"",""space"",""space"",""space"",""space"",""space"",""space"",""space"",""space"",""space"",""space"",""space"",""space"",""space"",""space"",""space"",""space"",""space"",""space"",""space"",""space"",""space"",""space"",""space"",""space"",""space"",""space"",""space"",""space"",""space"",""space"",""space"",""space"",""space"",""space"",""space""]","[0.8381050000316463,4.705275000014808,5.089500000001863,5.4237650000141,5.790979999990668,6.173615000036079,6.5745999999926426,6.974855000036769,7.4079449999844655,7.775850000034552,8.159050000016578,8.544340000022203,8.9267300000065,9.32697500003269,9.72734500002116,10.110985000035726,10.512570000020787,10.89503000001423,11.26243499998236,11.629285000031814,12.013095000002068,12.380315000016708,12.730015000037383,13.11363999999594,13.532279999984894,13.91509500000393,14.29832499998156,14.683025000034831,15.06738000002224,15.403055000002496,15.766705000016373,16.150480000011157,16.53362499998184,16.902470000030007,17.301260000036564,17.668430000019725,18.035994999983814,18.402524999983143,18.835965000034776,19.25339000002714,19.654295000014827,20.054464999993797,20.47241500002565,20.88835999998264,21.32510000001639,21.688895000028424,22.03978500002995,22.423784999991767,22.82443500001682,23.20880500000203,23.607629999984056]",space,1.06927,0.0,16.0,16.0,15.0,1.0,,,,,,,,,,,,,
,,,,,,,,,,,block_1/medium_t_105_3.wav,timbre,t,medium,105.0,1.131854181,11.90867958,,,,Yes,Sennheiser CX300,16,no,m,30,R,Yes,1,2020-09-16_13h54.10.653,kura-B2,2020.1.2,Win32,60,,,"[""space"",""space"",""space"",""space"",""space"",""space"",""space"",""space"",""space"",""space"",""space"",""space"",""space"",""space"",""space"",""space""]","[2.770120000001043,3.3034849999821745,3.8720050000119954,4.455335000006016,4.989000000001397,5.522799999976996,6.1062099999981,6.624049999983981,7.174134999979287,7.7247649999917485,8.241544999997132,8.810579999990296,9.392150000028778,9.9442450000206,10.444109999982174,11.01111999998102]",space,1.052275,0.0,17.0,17.0,16.0,1.0,,,,,,,,,,,,,
,,,,,,,,,,,block_1/weak_t_119_4.wav,timbre,t,weak,119.0,1.438381355,12.04736095,,,,Yes,Sennheiser CX300,16,no,m,30,R,Yes,1,2020-09-16_13h54.10.653,kura-B2,2020.1.2,Win32,60,,,"[""space"",""space"",""space"",""space"",""space"",""space"",""space"",""space"",""space"",""space"",""space"",""space"",""space"",""space"",""space"",""space"",""space"",""space""]","[2.29081999999471,2.7871499999891967,3.3071149999741465,3.8055099999764934,4.257949999999255,4.8569149999530055,5.372779999976046,5.874354999978095,6.391279999981634,6.907970000000205,7.4439649999840185,8.00956999999471,8.526534999953583,9.046019999950659,9.61134000000311,9.995224999962375,10.378499999991618,10.845634999976028]",space,0.73668,0.0,18.0,18.0,11.0,1.0,,,,,,,,,,,,,
,,,,,,,,,,,block_1/strong_t_105_3.wav,timbre,t,strong,105.0,1.518747526,13.05135524,,,,Yes,Sennheiser CX300,16,no,m,30,R,Yes,1,2020-09-16_13h54.10.653,kura-B2,2020.1.2,Win32,60,,,"[""space"",""space"",""space"",""space"",""space"",""space"",""space"",""space"",""space"",""space"",""space"",""space"",""space"",""space"",""space"",""space"",""space"",""space""]","[1.2525400000158697,1.8198049999773502,2.4527949999901466,3.0234099999652244,3.621689999999944,4.222654999990482,4.789504999993369,5.391189999994822,5.929399999964517,6.540869999967981,7.175419999985024,7.775329999974929,8.327539999969304,8.926834999991115,9.543284999963362,10.129094999982044,10.744754999992438,11.295615000010002]",space,0.985895,0.0,19.0,19.0,21.0,1.0,,,,,,,,,,,,,
,,,,,,,,,,,block_1/weak_t_72_4.wav,timbre,t,weak,72.0,1.01386198,17.48964429,,,,Yes,Sennheiser CX300,16,no,m,30,R,Yes,1,2020-09-16_13h54.10.653,kura-B2,2020.1.2,Win32,60,,,"[""space"",""space"",""space"",""space"",""space"",""space"",""space"",""space"",""space"",""space"",""space"",""space"",""space"",""space"",""space"",""space"",""space""]","[2.9279800000367686,3.722155000024941,4.424125000019558,5.256500000017695,6.107205000007525,6.9275500000221655,7.792590000026394,8.659975000016857,9.561734999995679,10.478304999996908,11.297725000011269,12.096239999984391,12.863765000016429,13.731354999996256,14.582304999988992,15.399615000002086,16.26811499998439]",space,3.172225,0.0,20.0,20.0,33.0,1.0,,,,,,,,,,,,,
,,,,,,,,,,,block_1/none_t_119_3.wav,timbre,t,none,119.0,1.169893331,12.28885025,,,,Yes,Sennheiser CX300,16,no,m,30,R,Yes,1,2020-09-16_13h54.10.653,kura-B2,2020.1.2,Win32,60,,,"[""space"",""space"",""space"",""space"",""space"",""space"",""space"",""space"",""space"",""space"",""space"",""space"",""space"",""space"",""space"",""space"",""space"",""space"",""space"",""space"",""space"",""space"",""space"",""space"",""space"",""space"",""space"",""space""]","[2.738359999959357,3.054130000004079,3.3885449999943376,3.721434999955818,4.02193999994779,4.30671999999322,4.606344999978319,4.9056499999715015,5.223034999973606,5.523079999955371,5.823314999986906,6.12408499995945,6.440974999975879,6.740629999956582,7.0747299999929965,7.391554999980144,7.692709999973886,7.992724999960046,8.309539999987464,8.593429999949876,8.943934999988414,9.243235000001732,9.593720000004396,9.911265000002459,10.194424999994226,10.512014999985695,10.844454999954905,11.161884999950416]",space,0.702735,0.0,21.0,21.0,32.0,1.0,,,,,,,,,,,,,
,,,,,,,,,,,block_1/strong_t_119_4.wav,timbre,t,strong,119.0,1.237037075,11.10492823,,,,Yes,Sennheiser CX300,16,no,m,30,R,Yes,1,2020-09-16_13h54.10.653,kura-B2,2020.1.2,Win32,60,,,"[""space"",""space"",""space"",""space"",""space"",""space"",""space"",""space"",""space"",""space"",""space"",""space"",""space"",""space"",""space"",""space"",""space"",""space""]","[1.5356399999582209,2.052815000002738,2.5538400000077672,3.071219999983441,3.5879649999551475,4.091469999984838,4.588645000010729,5.089334999967832,5.590199999976903,6.140224999981001,6.641735000011977,7.107959999993909,7.642204999981914,8.125729999970645,8.642584999965038,9.143829999957234,9.660954999970272,10.161634999967646]",space,1.23651,0.0,22.0,22.0,39.0,1.0,,,,,,,,,,,,,
,,,,,,,,,,,block_1/none_t_92_4.wav,timbre,t,none,92.0,2.400883628,17.24192671,,,,Yes,Sennheiser CX300,16,no,m,30,R,Yes,1,2020-09-16_13h54.10.653,kura-B2,2020.1.2,Win32,60,,,"[""space"",""space"",""space"",""space"",""space"",""space"",""space"",""space"",""space"",""space"",""space"",""space"",""space"",""space"",""space""]","[2.6201649999711663,3.270554999995511,4.2545699999900535,5.27220499998657,6.324280000000726,7.211344999959692,8.092680000001565,9.09375,10.011520000000019,10.861944999953266,11.73139499995159,12.59647499996936,13.465059999958612,14.298879999958444,15.065734999952838]",space,0.736855,0.0,23.0,23.0,22.0,1.0,,,,,,,,,,,,,
,,,,,,,,,,,block_1/none_t_81_3.wav,timbre,t,none,81.0,2.10326082,21.36648077,,,,Yes,Sennheiser CX300,16,no,m,30,R,Yes,1,2020-09-16_13h54.10.653,kura-B2,2020.1.2,Win32,60,,,"[""space"",""space"",""space"",""space"",""space"",""space"",""space"",""space"",""space"",""space"",""space"",""space"",""space"",""space"",""space"",""space"",""space"",""space"",""space"",""space"",""space"",""space"",""space"",""space"",""space"",""space"",""space"",""space"",""space"",""space"",""space"",""space"",""space"",""space"",""space"",""space"",""space"",""space"",""space"",""space"",""space"",""space"",""space"",""space"",""space"",""space"",""space"",""space"",""space"",""space"",""space"",""space"",""space"",""space""]","[2.5867350000189617,3.237235000007786,3.6377250000368804,3.93849000002956,4.255260000005364,4.573674999992363,4.8723599999793805,5.189720000023954,5.490040000004228,5.790350000024773,6.123439999995753,6.4255250000278465,6.74207000003662,7.074774999986403,7.409734999993816,7.7256150000030175,8.04250999999931,8.342485000030138,8.659649999986868,8.993910000019241,9.29490000003716,9.594310000014957,9.91075500001898,10.211100000014994,10.494820000021718,10.811835000000428,11.111585000006016,11.381250000034925,11.695769999991171,11.996199999994133,12.29694999998901,12.59719000000041,12.897174999990966,13.1817850000225,13.480495000025257,13.76616500003729,14.08156500000041,14.415550000034273,14.682329999981448,14.966729999985546,15.266500000027008,15.56690500001423,15.883765000035055,16.16740999999456,16.483914999989793,16.800975000020117,17.10174499999266,17.401940000010654,17.7185499999905,18.019625000015367,18.319475000025705,18.636065000027884,18.936640000029,19.27043000003323]",space,1.01911,0.0,24.0,24.0,10.0,1.0,,,,,,,,,,,,,
,,,,,,,,,,,block_1/medium_t_92_3.wav,timbre,t,medium,92.0,2.360774731,14.34626226,,,,Yes,Sennheiser CX300,16,no,m,30,R,Yes,1,2020-09-16_13h54.10.653,kura-B2,2020.1.2,Win32,60,,,"[""space"",""space"",""space"",""space"",""space"",""space"",""space"",""space"",""space"",""space"",""space"",""space"",""space"",""space"",""space"",""space"",""space"",""space"",""space""]","[1.5868500000215136,2.0714349999907427,2.670704999996815,3.220819999987725,3.8212599999969825,4.422155000036582,4.9922350000124425,5.640665000013541,6.240915000031237,6.890835000027437,7.459305000025779,8.07578499999363,8.676550000032876,9.343105000036303,9.9271300000255,10.4957600000198,11.045470000011846,11.680495000036899,12.212890000024345]",space,4.374405,0.0,25.0,25.0,35.0,1.0,,,,,,,,,,,,,
,,,,,,,,,,,block_1/weak_t_105_4.wav,timbre,t,weak,105.0,1.882880114,13.41285744,,,,Yes,Sennheiser CX300,16,no,m,30,R,Yes,1,2020-09-16_13h54.10.653,kura-B2,2020.1.2,Win32,60,,,"[""space"",""space"",""space"",""space"",""space"",""space"",""space"",""space"",""space"",""space"",""space"",""space"",""space"",""space"",""space"",""space"",""space"",""space"",""space""]","[1.5672050000284798,2.1522100000292994,2.7519849999807775,3.286194999993313,3.786275000020396,4.337204999988899,4.820149999985006,5.356054999982007,5.939350000000559,6.523540000023786,7.055790000013076,7.674274999997579,8.242175000021234,8.826014999998733,9.409730000013951,9.942184999992605,10.54433499998413,11.160565000027418,11.761715000029653]",space,0.63571,0.0,26.0,26.0,7.0,1.0,,,,,,,,,,,,,
,,,,,,,,,,,block_1/strong_t_72_4.wav,timbre,t,strong,72.0,1.194355845,16.3115894,,,,Yes,Sennheiser CX300,16,no,m,30,R,Yes,1,2020-09-16_13h54.10.653,kura-B2,2020.1.2,Win32,60,,,"[""space"",""space"",""space"",""space"",""space"",""space"",""space"",""space"",""space"",""space"",""space"",""space"",""space"",""space"",""space"",""space"",""space"",""space"",""space""]","[1.3028300000005402,2.1538949999958277,2.971125000040047,3.7558150000404567,4.555665000050794,5.34023500001058,6.074345000030007,6.92550500005018,7.710190000012517,8.526470000040717,9.310750000004191,10.111005000013392,10.861700000008568,11.662725000001956,12.446575000009034,13.214495000021998,14.031950000033248,14.800229999993462,15.616235000023153]",space,0.635455,0.0,27.0,27.0,1.0,1.0,,,,,,,,,,,,,
,,,,,,,,,,,block_1/strong_t_119_3.wav,timbre,t,strong,119.0,1.722630655,12.55029505,,,,Yes,Sennheiser CX300,16,no,m,30,R,Yes,1,2020-09-16_13h54.10.653,kura-B2,2020.1.2,Win32,60,,,"[""space"",""space"",""space"",""space"",""space"",""space"",""space"",""space"",""space"",""space"",""space"",""space"",""space"",""space"",""space"",""space"",""space"",""space""]","[1.6195649999426678,2.186214999994263,2.7366049999836832,3.2874599999631755,3.85521999996854,4.455529999977443,5.006919999956153,5.574619999970309,6.125004999979865,6.6905299999634735,7.241794999979902,7.774954999971669,8.392809999990277,8.876964999944903,9.46135499997763,10.045449999975972,10.611129999975674,11.178864999965299]",space,0.63645,0.0,28.0,28.0,28.0,1.0,,,,,,,,,,,,,
,,,,,,,,,,,block_1/medium_t_81_4.wav,timbre,t,medium,81.0,1.136743646,13.9322992,,,,Yes,Sennheiser CX300,16,no,m,30,R,Yes,1,2020-09-16_13h54.10.653,kura-B2,2020.1.2,Win32,60,,,"[""space"",""space"",""space"",""space"",""space"",""space"",""space"",""space"",""space"",""space"",""space"",""space"",""space"",""space"",""space"",""space"",""space"",""space""]","[1.9525900000007823,2.5711449999944307,3.2711250000284053,3.871610000031069,4.422015000018291,5.089680000033695,5.773615000012796,6.424655000038911,7.141645000025164,7.8759549999958836,8.544065000023693,9.14409000001615,9.845020000007935,10.511570000031497,11.130135000043083,11.77947500004666,12.396860000037123,13.09835500002373]",space,0.63548,0.0,29.0,29.0,2.0,1.0,,,,,,,,,,,,,
,,,,,,,,,,,block_1/medium_t_92_4.wav,timbre,t,medium,92.0,1.590939721,14.58753836,,,,Yes,Sennheiser CX300,16,no,m,30,R,Yes,1,2020-09-16_13h54.10.653,kura-B2,2020.1.2,Win32,60,,,"[""space"",""space"",""space"",""space"",""space"",""space"",""space"",""space"",""space"",""space"",""space"",""space"",""space"",""space"",""space"",""space"",""space"",""space""]","[1.3191700000315905,2.020294999994803,2.6378700000350364,3.354924999992363,4.0217150000389665,4.723495000042021,5.273130000045057,5.957570000027772,6.6578450000379235,7.3585800000000745,8.092860000033397,8.743365000002086,9.377755000023171,10.060755000042263,10.678705000027549,11.329339999996591,11.997895000036806,12.598740000044927]",space,0.787505,0.0,30.0,30.0,25.0,1.0,,,,,,,,,,,,,
,,,,,,,,,,,block_1/medium_t_119_3.wav,timbre,t,medium,119.0,2.226222359,10.98477111,,,,Yes,Sennheiser CX300,16,no,m,30,R,Yes,1,2020-09-16_13h54.10.653,kura-B2,2020.1.2,Win32,60,,,"[""space"",""space"",""space"",""space"",""space"",""space"",""space"",""space"",""space"",""space"",""space"",""space"",""space"",""space"",""space"",""space"",""space"",""space""]","[1.3712500000256114,1.8526450000354089,2.320140000025276,2.7705149999819696,3.2211549999774434,3.654370000003837,4.073640000016894,4.521699999982957,4.972575000021607,5.422840000013821,5.8913700000266545,6.323520000034478,6.80968499998562,7.258000000030734,7.708604999992531,8.142739999981131,8.592490000010002,9.042989999987185]",space,0.66902,0.0,31.0,31.0,37.0,1.0,,,,,,,,,,,,,
,,,,,,,,,,,block_1/medium_t_72_4.wav,timbre,t,medium,72.0,1.659874932,19.69733525,,,,Yes,Sennheiser CX300,16,no,m,30,R,Yes,1,2020-09-16_13h54.10.653,kura-B2,2020.1.2,Win32,60,,,"[""space"",""space"",""space"",""space"",""space"",""space"",""space"",""space"",""space"",""space"",""space"",""space"",""space"",""space"",""space"",""space"",""space"",""space"",""space"",""space"",""space"",""space"",""space"",""space"",""space"",""space"",""space"",""space"",""space"",""space""]","[2.2197849999647588,3.0368549999548122,4.188479999953415,4.988529999973252,5.272959999972954,5.956544999964535,6.190925000002608,6.875119999982417,7.141279999981634,7.825894999958109,8.092369999969378,8.692515000002459,8.943229999975301,9.57675999996718,9.826624999986961,10.444309999991674,10.695175000000745,11.261759999964852,11.528445000003558,12.212589999951888,12.46384499996202,13.147209999966435,13.397529999958351,14.065019999979995,14.29829999996582,14.998519999964628,15.249844999983907,15.916834999981802,16.801344999985304,17.735404999984894]",space,0.736455,0.0,32.0,32.0,36.0,1.0,,,,,,,,,,,,,
,,,,,,,,,,,block_1/none_t_92_3.wav,timbre,t,none,92.0,1.813425609,13.88349364,,,,Yes,Sennheiser CX300,16,no,m,30,R,Yes,1,2020-09-16_13h54.10.653,kura-B2,2020.1.2,Win32,60,,,"[""space"",""space"",""space"",""space"",""space"",""space"",""space"",""space"",""space"",""space"",""space"",""space"",""space"",""space"",""space"",""space"",""space"",""space"",""space"",""space"",""space"",""space"",""space"",""space"",""space"",""space"",""space"",""space"",""space""]","[1.686035000020638,1.9866950000287034,2.320175000000745,2.6368249999941327,2.9709200000506826,3.3070250000455417,3.6382750000339,3.971525000000838,4.307705000042915,4.671840000024531,5.056825000036042,5.439170000026934,5.823495000018738,6.190605000010692,6.574820000038017,7.008525000012014,7.425915000028908,7.825405000010505,8.227385000034701,8.6258150000358,8.977955000009388,9.344770000025164,9.710985000012442,10.127755000023171,10.494479999993928,10.877795000036713,11.328880000044592,11.779890000005253,12.146830000041518]",space,0.65422,0.0,33.0,33.0,17.0,1.0,,,,,,,,,,,,,
,,,,,,,,,,,block_1/strong_t_81_4.wav,timbre,t,strong,81.0,1.870008989,16.22765071,,,,Yes,Sennheiser CX300,16,no,m,30,R,Yes,1,2020-09-16_13h54.10.653,kura-B2,2020.1.2,Win32,60,,,"[""space"",""space"",""space"",""space"",""space"",""space"",""space"",""space"",""space"",""space"",""space"",""space"",""space"",""space"",""space"",""space"",""space"",""space"",""space""]","[1.6145000000251457,2.4065449999761768,3.1257600000244565,3.813414999982342,4.581675000023097,5.302060000016354,6.02265499997884,6.7415299999993294,7.51761500001885,8.209399999992456,8.959090000018477,9.69390499999281,10.494200000015553,11.17593000002671,11.845585000002757,12.622730000002775,13.333675000001676,14.021665000007488,14.77349500003038]",space,0.661465,0.0,34.0,34.0,34.0,1.0,,,,,,,,,,,,,
,,,,,,,,,,,block_1/strong_t_105_4.wav,timbre,t,strong,105.0,2.094581561,12.21235934,,,,Yes,Sennheiser CX300,16,no,m,30,R,Yes,1,2020-09-16_13h54.10.653,kura-B2,2020.1.2,Win32,60,,,"[""space"",""space"",""space"",""space"",""space"",""space"",""space"",""space"",""space"",""space"",""space"",""space"",""space"",""space"",""space"",""space"",""space"",""space"",""space""]","[1.3337349999928847,1.860839999979362,2.3722149999812245,2.888054999988526,3.380834999959916,3.8772299999836832,4.380379999987781,4.876369999954477,5.364484999969136,5.885954999946989,6.39658000000054,6.909034999960568,7.4288249999517575,7.90904999995837,8.396889999974519,8.868589999969117,9.420574999996461,9.89442499994766,10.421814999950584]",space,1.77748,0.0,35.0,35.0,18.0,1.0,,,,,,,,,,,,,
,,,,,,,,,,,block_1/medium_t_119_4.wav,timbre,t,medium,119.0,1.399295551,11.22011188,,,,Yes,Sennheiser CX300,16,no,m,30,R,Yes,1,2020-09-16_13h54.10.653,kura-B2,2020.1.2,Win32,60,,,"[""space"",""space"",""space"",""space"",""space"",""space"",""space"",""space"",""space"",""space"",""space"",""space"",""space"",""space"",""space"",""space"",""space""]","[2.172779999964405,2.5886349999927916,3.0608999999822117,3.5048599999863654,3.965054999978747,4.396825000003446,4.876469999959227,5.356619999976829,5.885754999995697,6.407769999990705,6.908369999960996,7.40922499995213,7.925514999951702,8.476724999956787,9.006750000000466,9.54874999995809,10.068685000005644]",space,0.618875,0.0,36.0,36.0,30.0,1.0,,,,,,,,,,,,,
,,,,,,,,,,,block_1/medium_t_105_4.wav,timbre,t,medium,105.0,2.498438995,14.23458412,,,,Yes,Sennheiser CX300,16,no,m,30,R,Yes,1,2020-09-16_13h54.10.653,kura-B2,2020.1.2,Win32,60,,,"[""space"",""space"",""space"",""space"",""space"",""space"",""space"",""space"",""space"",""space"",""space"",""space"",""space"",""space"",""space"",""space"",""space"",""space"",""space""]","[1.1614899999694899,1.776914999994915,2.4411899999831803,2.977459999965504,3.5769599999766797,4.154589999991003,4.794309999968391,5.506154999951832,6.129264999995939,6.657814999984112,7.265224999981001,7.875189999991562,8.506279999972321,9.113684999989346,9.63330499996664,10.226584999996703,10.817399999999907,11.401429999968968,12.001089999976102]",space,0.63564,0.0,37.0,37.0,23.0,1.0,,,,,,,,,,,,,
,,,,,,,,,,,block_1/none_t_105_4.wav,timbre,t,none,105.0,1.782068205,15.59785052,,,,Yes,Sennheiser CX300,16,no,m,30,R,Yes,1,2020-09-16_13h54.10.653,kura-B2,2020.1.2,Win32,60,,,"[""space"",""space"",""space"",""space"",""space"",""space"",""space"",""space"",""space"",""space"",""space"",""space"",""space"",""space"",""space"",""space"",""space"",""space"",""space"",""space"",""space"",""space"",""space"",""space""]","[2.7371949999942444,3.2072200000402518,3.7270450000069104,4.26273499999661,4.847285000025295,5.294720000005327,5.758540000009816,6.208135000022594,6.64045000000624,7.134520000021439,7.630935000022873,8.062585000006948,8.520490000024438,8.992515000049025,9.502720000047702,10.022909999999683,10.510380000050645,10.910960000008345,11.377949999994598,11.838875000015832,12.346675000037067,12.80756000004476,13.270740000007208,13.734775000018999]",space,0.65152,0.0,38.0,38.0,20.0,1.0,,,,,,,,,,,,,
,,,,,,,,,,,block_1/weak_t_92_3.wav,timbre,t,weak,92.0,1.190820523,16.55263458,,,,Yes,Sennheiser CX300,16,no,m,30,R,Yes,1,2020-09-16_13h54.10.653,kura-B2,2020.1.2,Win32,60,,,"[""space"",""space"",""space"",""space"",""space"",""space"",""space"",""space"",""space"",""space"",""space"",""space"",""space"",""space"",""space"",""space"",""space"",""space""]","[1.7518449999624863,2.535989999945741,3.429149999981746,4.261219999985769,5.2610899999854155,5.861319999967236,6.477209999982733,7.1928099999786355,7.933309999993071,8.694234999944456,9.468964999949094,10.278704999946058,11.189469999982975,11.966439999989234,12.765289999952074,13.621244999987539,14.278044999984559,15.033284999954049]",space,0.7421,0.0,39.0,39.0,38.0,1.0,,,,,,,,,,,,,
,,,,,,,,,,,block_2/none_n_72_4.wav,no,n,none,72.0,1.743803892,24.48607147,,,,Yes,Sennheiser CX300,16,no,m,30,R,Yes,1,2020-09-16_13h54.10.653,kura-B2,2020.1.2,Win32,60,,,,,,,,,,,,space,3.77123,"[""space"",""space"",""space"",""space"",""space"",""space"",""space"",""space"",""space"",""space"",""space"",""space"",""space"",""space"",""space"",""space"",""space"",""space"",""space"",""space"",""space"",""space"",""space"",""space"",""space"",""space"",""space"",""space"",""space"",""space"",""space"",""space"",""space"",""space"",""space"",""space"",""space"",""space"",""space"",""space"",""space"",""space"",""space"",""space"",""space"",""space"",""space"",""space"",""space"",""space"",""space"",""space""]","[3.4215749999857508,3.748024999978952,4.05988499999512,4.412164999986999,4.772554999974091,5.0760299999965355,5.422834999975748,5.779544999997597,6.132189999974798,6.500040000013541,6.908144999993965,7.308699999994133,7.821219999983441,8.158805000013672,8.494925000006333,8.851844999997411,9.188435000018217,9.540600000007544,9.894729999999981,10.261040000012144,10.611485000001267,10.931945000018459,11.295020000019576,11.684200000017881,12.03566499997396,12.404199999989942,12.78792999999132,13.231450000021141,13.632114999985788,14.014904999989085,14.435494999983348,14.86017499997979,15.28396500000963,15.684430000022985,16.067700000014156,16.46987500000978,16.88706999999704,17.27561000001151,17.652215000009164,18.036410000000615,18.40397500002291,18.79597500001546,19.220169999985956,19.59549999999581,19.971484999987297,20.347869999997783,20.755935000022873,21.16437999997288,21.53179999999702,21.923850000021048,22.31614999996964,22.724099999992177]",space,1.12618,0.0,0.0,0.0,21.0,1.0,,
,,,,,,,,,,,block_2/none_n_92_3.wav,no,n,none,92.0,2.008897919,17.90894327,,,,Yes,Sennheiser CX300,16,no,m,30,R,Yes,1,2020-09-16_13h54.10.653,kura-B2,2020.1.2,Win32,60,,,,,,,,,,,,,,"[""space"",""space"",""space"",""space"",""space"",""space"",""space"",""space"",""space"",""space"",""space"",""space"",""space"",""space"",""space"",""space"",""space"",""space""]","[2.8717999999644235,3.4798899999586865,4.207514999958221,4.94336499995552,5.787054999964312,6.607664999959525,7.519919999991544,8.344654999964405,9.152064999972936,9.967390000005253,10.799505000002682,11.447339999955148,12.136209999967832,12.68833499995526,13.439504999958444,14.208004999964032,15.032329999958165,15.839509999961592]",space,0.923455,0.0,1.0,1.0,25.0,1.0,,
,,,,,,,,,,,block_2/strong_n_105_3.wav,no,n,strong,105.0,2.095458379,13.32602527,,,,Yes,Sennheiser CX300,16,no,m,30,R,Yes,1,2020-09-16_13h54.10.653,kura-B2,2020.1.2,Win32,60,,,,,,,,,,,,,,"[""space"",""space"",""space"",""space"",""space"",""space"",""space"",""space"",""space"",""space"",""space"",""space"",""space"",""space"",""space"",""space"",""space"",""space"",""space""]","[1.1693700000178069,1.7707749999826774,2.375014999997802,2.9207949999836273,3.553704999969341,4.127470000006724,4.689269999973476,5.2465700000175275,5.8309250000165775,6.441129999991972,6.991619999986142,7.551139999995939,8.111455000005662,8.694799999997485,9.257095000008121,9.871134999964852,10.447114999988116,10.999454999982845,11.56701499997871]",space,1.645765,0.0,2.0,2.0,9.0,1.0,,
,,,,,,,,,,,block_2/none_n_119_3.wav,no,n,none,119.0,1.37370001,14.3364211,,,,Yes,Sennheiser CX300,16,no,m,30,R,Yes,1,2020-09-16_13h54.10.653,kura-B2,2020.1.2,Win32,60,,,,,,,,,,,,,,"[""space"",""space"",""space"",""space"",""space"",""space"",""space"",""space"",""space"",""space"",""space"",""space"",""space"",""space"",""space""]","[1.4186900000204332,2.185910000000149,3.0799199999892153,3.888130000035744,4.776530000031926,5.616725000028964,6.464050000009593,7.256310000026133,7.991719999990892,8.759629999985918,9.528305000043474,10.320180000038818,11.079659999988507,11.912944999989122,12.689025000028778]",space,0.742835,0.0,3.0,3.0,24.0,1.0,,
,,,,,,,,,,,block_2/strong_n_81_3.wav,no,n,strong,81.0,2.384474622,16.38941793,,,,Yes,Sennheiser CX300,16,no,m,30,R,Yes,1,2020-09-16_13h54.10.653,kura-B2,2020.1.2,Win32,60,,,,,,,,,,,,,,"[""space"",""space"",""space"",""space"",""space"",""space"",""space"",""space"",""space"",""space"",""space"",""space"",""space"",""space"",""space"",""space"",""space"",""space"",""space""]","[1.5189249999821186,2.2370649999938905,2.953064999950584,3.693054999981541,4.397254999959841,5.088954999984708,5.807009999989532,6.509529999981169,7.20681499998318,7.9916899999952875,8.733614999975543,9.42312499997206,10.069539999996778,10.797029999957886,11.495384999958333,12.22147499996936,12.933309999993071,13.685604999947827,14.362784999946598]",space,0.80526,0.0,4.0,4.0,10.0,1.0,,
,,,,,,,,,,,block_2/medium_n_92_4.wav,no,n,medium,92.0,1.021723279,13.61201806,,,,Yes,Sennheiser CX300,16,no,m,30,R,Yes,1,2020-09-16_13h54.10.653,kura-B2,2020.1.2,Win32,60,,,,,,,,,,,,,,"[""space"",""space"",""space"",""space"",""space"",""space"",""space"",""space"",""space"",""space"",""space"",""space"",""space"",""space"",""space"",""space"",""space"",""space"",""space""]","[1.5781049999641255,2.2742799999541603,2.8371449999976903,3.4583549999515526,4.114419999998063,4.788079999969341,5.390034999989439,6.002645000000484,6.636954999994487,7.298244999954477,7.91420499997912,8.530455000000075,9.124504999956116,9.755249999987427,10.402114999946207,10.953944999957457,11.61227499996312,12.234199999948032,12.906514999980573]",space,1.21859,0.0,5.0,5.0,11.0,1.0,,
,,,,,,,,,,,block_2/weak_n_72_3.wav,no,n,weak,72.0,1.604938988,17.47283014,,,,Yes,Sennheiser CX300,16,no,m,30,R,Yes,1,2020-09-16_13h54.10.653,kura-B2,2020.1.2,Win32,60,,,,,,,,,,,,,,"[""space"",""space"",""space"",""space"",""space"",""space"",""space"",""space"",""space"",""space"",""space"",""space"",""space"",""space"",""space"",""space"",""space"",""space""]","[2.020950000034645,2.755639999988489,3.609490000002552,4.30517000000691,5.086569999984931,5.92964500002563,6.708604999992531,7.525170000037178,8.265415000030771,9.0610250000027,9.865740000037476,10.601974999997765,11.41340499999933,12.14869500003988,12.964320000028238,13.753610000014305,14.601330000034068,15.45793999999296]",space,0.57436,0.0,6.0,6.0,8.0,1.0,,
,,,,,,,,,,,block_2/medium_n_81_4.wav,no,n,medium,81.0,1.594727623,16.1032537,,,,Yes,Sennheiser CX300,16,no,m,30,R,Yes,1,2020-09-16_13h54.10.653,kura-B2,2020.1.2,Win32,60,,,,,,,,,,,,,,"[""space"",""space"",""space"",""space"",""space"",""space"",""space"",""space"",""space"",""space"",""space"",""space"",""space"",""space"",""space"",""space"",""space"",""space"",""space""]","[0.967789999966044,1.588274999987334,2.2694400000036694,3.0045549999922514,3.8066949999774806,4.564819999970496,5.239014999999199,5.98094499995932,6.700924999953713,7.484704999951646,8.205894999962766,8.96080499998061,9.65284499997506,10.428499999979977,11.204589999979362,11.878700000001118,12.678409999993164,13.421144999971148,14.133664999972098]",space,0.92151,0.0,7.0,7.0,38.0,1.0,,
,,,,,,,,,,,block_2/none_n_105_3.wav,no,n,none,105.0,1.200203838,13.86165508,,,,Yes,Sennheiser CX300,16,no,m,30,R,Yes,1,2020-09-16_13h54.10.653,kura-B2,2020.1.2,Win32,60,,,,,,,,,,,,,,"[""space"",""space"",""space"",""space"",""space"",""space"",""space"",""space"",""space"",""space"",""space"",""space"",""space"",""space"",""space"",""space"",""space"",""space"",""space"",""space"",""space"",""space"",""space"",""space"",""space"",""space"",""space""]","[1.5454550000140443,1.9455399999860674,2.345504999975674,2.7774199999985285,3.1868699999758974,3.60549499996705,4.073165000008885,4.52168000000529,4.961060000001453,5.345114999974612,5.761639999982435,6.178565000009257,6.625079999968875,7.081529999966733,7.492150000005495,7.865204999980051,8.3133749999688,8.761134999978822,9.177510000008624,9.617984999960754,10.065429999958724,10.513389999978244,10.985639999969862,11.428149999992456,11.817549999977928,12.241830000013579,12.65707499999553]",space,1.23599,0.0,8.0,8.0,6.0,1.0,,
,,,,,,,,,,,block_2/weak_n_105_3.wav,no,n,weak,105.0,2.432347709,14.10785791,,,,Yes,Sennheiser CX300,16,no,m,30,R,Yes,1,2020-09-16_13h54.10.653,kura-B2,2020.1.2,Win32,60,,,,,,,,,,,,,,"[""space"",""space"",""space"",""space"",""space"",""space"",""space"",""space"",""space"",""space"",""space"",""space"",""space"",""space"",""space"",""space"",""space"",""space""]","[1.5668150000274181,2.0595549999852665,2.5710800000233576,3.3070799999986775,3.9958950000000186,4.715844999998808,5.237520000024233,5.907085000013467,6.675779999990482,7.395710000011604,7.926565000030678,8.560880000004545,9.140354999981355,9.812099999981001,10.347695000004023,10.851584999996703,11.387074999976903,11.910335000022314]",space,0.635675,0.0,9.0,9.0,27.0,1.0,,
,,,,,,,,,,,block_2/none_n_119_4.wav,no,n,none,119.0,1.538189981,14.89986799,,,,Yes,Sennheiser CX300,16,no,m,30,R,Yes,1,2020-09-16_13h54.10.653,kura-B2,2020.1.2,Win32,60,,,,,,,,,,,,,,"[""space"",""space"",""space"",""space"",""space"",""space"",""space"",""space"",""space"",""space"",""space"",""space"",""space"",""space"",""space"",""space"",""space"",""space"",""space"",""space"",""space"",""space"",""space""]","[2.5437450000317767,3.159360000048764,3.9115700000547804,4.576350000046659,5.248070000030566,5.617330000037327,6.107295000052545,6.52438500005519,7.024550000031013,7.511915000039153,7.975740000023507,8.377215000044089,8.831710000056773,9.319580000010319,9.76778000005288,10.194385000038892,10.583605000050738,10.944475000025705,11.303785000054631,11.826270000019576,12.363340000039898,12.832610000041313,13.328605000046082]",space,0.95374,0.0,10.0,10.0,20.0,1.0,,
,,,,,,,,,,,block_2/medium_n_105_4.wav,no,n,medium,105.0,2.115061775,16.52181914,,,,Yes,Sennheiser CX300,16,no,m,30,R,Yes,1,2020-09-16_13h54.10.653,kura-B2,2020.1.2,Win32,60,,,,,,,,,,,,,,"[""space"",""space"",""space"",""space"",""space"",""space"",""space"",""space"",""space"",""space"",""space"",""space"",""space"",""space"",""space"",""space"",""space"",""space""]","[1.4068899999838322,2.222795000008773,2.9861849999870174,3.8627700000070035,4.720480000018142,5.3584699999773875,6.120924999995623,6.910849999985658,7.59855500003323,8.304730000032578,9.07675000000745,9.766279999981634,10.462304999993648,11.182604999979958,11.928784999996424,12.59446500003105,13.414340000017546,14.111734999984037]",space,0.41184,0.0,11.0,11.0,12.0,1.0,,
,,,,,,,,,,,block_2/weak_n_72_4.wav,no,n,weak,72.0,1.671954957,17.64637673,,,,Yes,Sennheiser CX300,16,no,m,30,R,Yes,1,2020-09-16_13h54.10.653,kura-B2,2020.1.2,Win32,60,,,,,,,,,,,,,,"[""space"",""space"",""space"",""space"",""space"",""space"",""space"",""space"",""space"",""space"",""space"",""space"",""space"",""space"",""space"",""space"",""space"",""space""]","[1.5097400000086054,2.2606850000447594,3.0288200000068173,3.764145000022836,4.83861000003526,5.590120000008028,6.341185000026599,7.308680000016466,8.142075000039767,8.916685000003781,9.726470000052359,10.500500000023749,11.374085000017658,12.253160000022035,13.02043000003323,13.925435000041034,14.877315000048839,15.620230000000447]",space,0.93257,0.0,12.0,12.0,4.0,1.0,,
,,,,,,,,,,,block_2/none_n_105_4.wav,no,n,none,105.0,1.256367297,16.73296594,,,,Yes,Sennheiser CX300,16,no,m,30,R,Yes,1,2020-09-16_13h54.10.653,kura-B2,2020.1.2,Win32,60,,,,,,,,,,,,,,"[""space"",""space"",""space"",""space"",""space"",""space"",""space"",""space"",""space"",""space"",""space"",""space"",""space""]","[1.935300000011921,2.7770500000333413,3.7437250000075437,4.771600000036415,5.911910000024363,7.015509999997448,8.337250000040513,9.519570000004023,10.627320000028703,11.795730000012554,13.000625000044238,14.208570000017062,15.407435000000987]",space,0.876475,0.0,13.0,13.0,14.0,1.0,,
,,,,,,,,,,,block_2/none_n_81_3.wav,no,n,none,81.0,2.161532659,18.80565964,,,,Yes,Sennheiser CX300,16,no,m,30,R,Yes,1,2020-09-16_13h54.10.653,kura-B2,2020.1.2,Win32,60,,,,,,,,,,,,,,"[""space"",""space"",""space"",""space"",""space"",""space"",""space"",""space"",""space"",""space"",""space"",""space"",""space"",""space"",""space"",""space"",""space"",""space"",""space"",""space"",""space"",""space"",""space"",""space"",""space"",""space"",""space"",""space"",""space"",""space"",""space"",""space"",""space"",""space"",""space""]","[2.353965000016615,2.870630000019446,3.2637899999972433,3.654515000001993,4.122259999974631,4.505665000004228,4.9058550000190735,5.27357000001939,5.743375000020023,6.190520000003744,6.598579999990761,7.014979999978095,7.494699999981094,7.967000000004191,8.431114999984857,8.858535000006668,9.29545999999391,9.760675000026822,10.182879999978468,10.646784999989904,11.062824999971781,11.471375000022817,11.879360000020824,12.312069999985397,12.767059999983758,13.183004999998957,13.593355000019073,13.975044999970123,14.383459999982733,14.823280000011437,15.217814999981783,15.639124999986961,16.050199999997858,16.486894999979995,16.895725000009406]",space,0.52541,0.0,14.0,14.0,29.0,1.0,,
,,,,,,,,,,,block_2/weak_n_92_4.wav,no,n,weak,92.0,2.26710089,14.35326869,,,,Yes,Sennheiser CX300,16,no,m,30,R,Yes,1,2020-09-16_13h54.10.653,kura-B2,2020.1.2,Win32,60,,,,,,,,,,,,,,"[""space"",""space"",""space"",""space"",""space"",""space"",""space"",""space"",""space"",""space"",""space"",""space"",""space"",""space"",""space"",""space"",""space"",""space"",""space""]","[1.5533350000041537,2.1192700000246987,2.6823500000173226,3.235434999980498,3.857220000005327,4.441850000002887,5.08181499998318,5.697640000027604,6.313030000019353,6.913560000015423,7.525030000018887,8.140164999989793,8.738215000019409,9.313009999983478,9.961450000002515,10.553584999986924,11.12176000000909,11.801670000015292,12.498320000013337]",space,1.958,0.0,15.0,15.0,15.0,1.0,,
,,,,,,,,,,,block_2/weak_n_105_4.wav,no,n,weak,105.0,1.277365727,12.0504723,,,,Yes,Sennheiser CX300,16,no,m,30,R,Yes,1,2020-09-16_13h54.10.653,kura-B2,2020.1.2,Win32,60,,,,,,,,,,,,,,"[""space"",""space"",""space"",""space"",""space"",""space"",""space"",""space"",""space"",""space"",""space"",""space"",""space"",""space"",""space"",""space"",""space"",""space"",""space"",""space"",""space""]","[0.8183250000001863,1.2351550000021234,1.5693500000052154,2.052429999981541,2.672969999955967,3.1932449999731034,3.6807999999728054,4.240894999995362,4.8341899999650195,5.330229999963194,5.8037899999762885,6.281164999993052,6.84916499996325,7.34499999997206,7.8584350000019185,8.392735000001267,8.905834999983199,9.425959999964107,9.993964999972377,10.489925000001676,10.979189999983646]",space,0.66905,0.0,16.0,16.0,28.0,1.0,,
,,,,,,,,,,,block_2/medium_n_81_3.wav,no,n,medium,81.0,2.235189468,17.75582439,,,,Yes,Sennheiser CX300,16,no,m,30,R,Yes,1,2020-09-16_13h54.10.653,kura-B2,2020.1.2,Win32,60,,,,,,,,,,,,,,"[""space"",""space"",""space"",""space"",""space"",""space"",""space"",""space"",""space"",""space"",""space"",""space"",""space"",""space"",""space"",""space"",""space"",""space"",""space""]","[0.6145649999962188,1.3078850000165403,2.1721050000051036,3.004720000026282,3.8601050000288524,4.579980000038631,5.476150000002235,6.243940000014845,7.044400000013411,7.8282900000340305,8.59621500002686,9.500345000007655,10.31202499999199,11.126794999989215,11.931790000002366,12.697350000031292,13.532535000005737,14.299860000028275,15.083815000019968]",space,0.502945,0.0,17.0,17.0,33.0,1.0,,
,,,,,,,,,,,block_2/medium_n_92_3.wav,no,n,medium,92.0,2.163023573,13.84869251,,,,Yes,Sennheiser CX300,16,no,m,30,R,Yes,1,2020-09-16_13h54.10.653,kura-B2,2020.1.2,Win32,60,,,,,,,,,,,,,,"[""space"",""space"",""space"",""space"",""space"",""space"",""space"",""space"",""space"",""space"",""space"",""space"",""space"",""space"",""space"",""space"",""space"",""space""]","[1.7777950000017881,2.296540000010282,2.8803199999965727,3.521520000009332,4.106770000013057,4.739620000007562,5.38412000000244,5.943955000024289,6.576605000009295,7.194245000020601,7.784099999989849,8.368215000024065,8.920210000011139,9.552365000010468,10.15215999999782,10.767785000032745,11.368134999996983,11.929839999997057]",space,1.970795,0.0,18.0,18.0,2.0,1.0,,
,,,,,,,,,,,block_2/strong_n_119_4.wav,no,n,strong,119.0,2.003027148,12.07137182,,,,Yes,Sennheiser CX300,16,no,m,30,R,Yes,1,2020-09-16_13h54.10.653,kura-B2,2020.1.2,Win32,60,,,,,,,,,,,,,,"[""space"",""space"",""space"",""space"",""space"",""space"",""space"",""space"",""space"",""space"",""space"",""space"",""space"",""space"",""space"",""space"",""space"",""space"",""space"",""space""]","[0.8900600000051782,1.2338549999985844,1.716599999985192,2.2684550000121817,2.753804999985732,3.242419999965932,3.7150350000010803,4.2543299999670126,4.770184999972116,5.253874999994878,5.773125000006985,6.269350000016857,6.78855499997735,7.282394999987446,7.809964999963995,8.314550000010058,8.803444999968633,9.31429000000935,9.818310000002384,10.35573499999009]",space,0.60323,0.0,19.0,19.0,23.0,1.0,,
,,,,,,,,,,,block_2/medium_n_105_3.wav,no,n,medium,105.0,2.480661226,14.16274739,,,,Yes,Sennheiser CX300,16,no,m,30,R,Yes,1,2020-09-16_13h54.10.653,kura-B2,2020.1.2,Win32,60,,,,,,,,,,,,,,"[""space"",""space"",""space"",""space"",""space"",""space"",""space"",""space"",""space"",""space"",""space"",""space"",""space"",""space"",""space"",""space"",""space"",""space"",""space""]","[1.5365849999943748,2.104479999979958,2.6881799999973737,3.2713949999888428,3.8400350000010803,4.391219999990426,4.956439999979921,5.543500000028871,6.183774999983143,6.751760000013746,7.288355000026058,7.911770000006072,8.488599999982398,9.079729999997653,9.66375499998685,10.215514999988955,10.810969999991357,11.383990000002086,11.977285000029951]",space,0.731085,0.0,20.0,20.0,0.0,1.0,,
,,,,,,,,,,,block_2/strong_n_119_3.wav,no,n,strong,119.0,2.299979207,12.06555744,,,,Yes,Sennheiser CX300,16,no,m,30,R,Yes,1,2020-09-16_13h54.10.653,kura-B2,2020.1.2,Win32,60,,,,,,,,,,,,,,"[""space"",""space"",""space"",""space"",""space"",""space"",""space"",""space"",""space"",""space"",""space"",""space"",""space"",""space"",""space"",""space"",""space"",""space""]","[1.2160999999614432,1.7096749999909662,2.217244999948889,2.6938249999657273,3.199414999980945,3.6935349999694154,4.173349999997299,4.645829999994021,5.126159999985248,5.613844999985304,6.125294999976177,6.624959999986459,7.0907099999603815,7.597864999959711,8.133769999956712,8.58192499994766,9.118214999965858,9.577544999949168]",space,0.71303,0.0,21.0,21.0,16.0,1.0,,
,,,,,,,,,,,block_2/strong_n_92_4.wav,no,n,strong,92.0,1.480736093,15.18463632,,,,Yes,Sennheiser CX300,16,no,m,30,R,Yes,1,2020-09-16_13h54.10.653,kura-B2,2020.1.2,Win32,60,,,,,,,,,,,,,,"[""space"",""space"",""space"",""space"",""space"",""space"",""space"",""space"",""space"",""space"",""space"",""space"",""space"",""space"",""space"",""space"",""space"",""space""]","[1.2654700000421144,2.038795000000391,2.756634999997914,3.4880100000300445,4.185215000004973,4.9261050000204705,5.640575000026729,6.3351499999989755,7.007925000041723,7.766500000027008,8.4626200000057,9.166520000027958,9.870570000028238,10.578945000015665,11.31989500002237,12.006685000029393,12.714250000019092,13.422454999992624]",space,0.44102,0.0,22.0,22.0,34.0,1.0,,
,,,,,,,,,,,block_2/weak_n_92_3.wav,no,n,weak,92.0,2.16711471,14.91038002,,,,Yes,Sennheiser CX300,16,no,m,30,R,Yes,1,2020-09-16_13h54.10.653,kura-B2,2020.1.2,Win32,60,,,,,,,,,,,,,,"[""space"",""space"",""space"",""space"",""space"",""space"",""space"",""space"",""space"",""space"",""space"",""space"",""space"",""space"",""space"",""space"",""space"",""space""]","[1.4289700000081211,2.044515000015963,2.708199999993667,3.348984999989625,3.997444999986328,4.58831999998074,5.238610000000335,5.916870000015479,6.557845000002999,7.24250499997288,7.892814999970142,8.558320000011008,9.244479999993928,9.932289999967907,10.558329999970738,11.246440000017174,11.884520000021439,12.468430000008084]",space,0.365025,0.0,23.0,23.0,5.0,1.0,,
,,,,,,,,,,,block_2/medium_n_72_3.wav,no,n,medium,72.0,1.994146771,18.06802432,,,,Yes,Sennheiser CX300,16,no,m,30,R,Yes,1,2020-09-16_13h54.10.653,kura-B2,2020.1.2,Win32,60,,,,,,,,,,,,,,"[""space"",""space"",""space"",""space"",""space"",""space"",""space"",""space"",""space"",""space"",""space"",""space"",""space"",""space"",""space"",""space"",""space"",""space""]","[1.8256299999775365,2.5704299999633804,3.329619999974966,4.16113999998197,5.0209000000031665,5.8179699999745935,6.555935000011232,7.4422149999882095,8.322854999976698,9.169664999993984,9.889979999978095,10.697379999968689,11.579060000018217,12.369659999967553,13.147094999963883,14.065170000016224,14.85740999999689,15.74601000000257]",space,0.590855,0.0,24.0,24.0,13.0,1.0,,
,,,,,,,,,,,block_2/medium_n_119_3.wav,no,n,medium,119.0,2.317779723,12.17918562,,,,Yes,Sennheiser CX300,16,no,m,30,R,Yes,1,2020-09-16_13h54.10.653,kura-B2,2020.1.2,Win32,60,,,,,,,,,,,,,,"[""space"",""space"",""space"",""space"",""space"",""space"",""space"",""space"",""space"",""space"",""space"",""space"",""space"",""space"",""space"",""space"",""space"",""space"",""space""]","[1.8936000000103377,2.3031600000103936,2.6708199999993667,2.989739999989979,3.366760000004433,3.7342550000175834,4.157520000007935,4.670199999993201,5.181685000017751,5.741325000009965,6.254450000007637,6.686710000038147,7.208615000010468,7.638955000031274,8.127184999990277,8.645460000028834,9.127005000016652,9.621054999995977,10.087230000004638]",space,0.610885,0.0,25.0,25.0,22.0,1.0,,
,,,,,,,,,,,block_2/none_n_92_4.wav,no,n,none,92.0,2.009431863,15.90199422,,,,Yes,Sennheiser CX300,16,no,m,30,R,Yes,1,2020-09-16_13h54.10.653,kura-B2,2020.1.2,Win32,60,,,,,,,,,,,,,,"[""space"",""space"",""space"",""space"",""space"",""space"",""space"",""space"",""space"",""space"",""space"",""space"",""space"",""space"",""space"",""space"",""space"",""space"",""space"",""space"",""space"",""space"",""space"",""space"",""space"",""space"",""space"",""space"",""space"",""space"",""space"",""space"",""space"",""space""]","[2.038135000038892,2.6466549999895506,3.1906399999861605,3.5846899999887682,3.9425300000002608,4.398350000032224,4.877395000017714,5.4561650000396185,6.0900150000234134,6.462675000017043,6.798675000027288,7.107465000008233,7.446890000021085,7.8076749999891035,8.142694999987725,8.446740000043064,8.750660000019707,9.062480000022333,9.377284999995027,9.678275000012945,10.010149999987334,10.32770000002347,10.607185000029858,10.91305500001181,11.238234999997076,11.528790000011213,11.830360000021756,12.150605000031646,12.454655000008643,12.7755350000225,13.096885000006296,13.406935000035446,13.704160000022966,14.006960000027902]",space,0.588945,0.0,26.0,26.0,19.0,1.0,,
,,,,,,,,,,,block_2/medium_n_119_4.wav,no,n,medium,119.0,1.918272059,10.22534689,,,,Yes,Sennheiser CX300,16,no,m,30,R,Yes,1,2020-09-16_13h54.10.653,kura-B2,2020.1.2,Win32,60,,,,,,,,,,,,,,"[""space"",""space"",""space"",""space"",""space"",""space"",""space"",""space"",""space"",""space"",""space"",""space"",""space"",""space"",""space"",""space"",""space""]","[1.5668799999984913,1.9660550000262447,2.3724500000244007,2.740445000003092,3.1407149999868125,3.5564350000349805,3.9809150000219233,4.472669999988284,4.940650000004098,5.373595000011846,5.860655000025872,6.316885000036564,6.764774999988731,7.221335000009276,7.661164999997709,8.117060000018682,8.5647900000331]",space,0.486905,0.0,27.0,27.0,17.0,1.0,,
,,,,,,,,,,,block_2/none_n_72_3.wav,no,n,none,72.0,2.393872505,24.12062987,,,,Yes,Sennheiser CX300,16,no,m,30,R,Yes,1,2020-09-16_13h54.10.653,kura-B2,2020.1.2,Win32,60,,,,,,,,,,,,,,"[""space"",""space"",""space"",""space"",""space"",""space"",""space"",""space"",""space"",""space"",""space"",""space"",""space"",""space"",""space"",""space"",""space"",""space"",""space"",""space"",""space"",""space"",""space"",""space"",""space"",""space"",""space"",""space"",""space""]","[1.3953399999882095,2.075825000007171,2.8287400000263005,3.519369999994524,4.239010000019334,4.871329999994487,5.627555000013672,6.395680000016,7.158095000020694,7.875925000000279,8.604530000011437,9.363219999999274,10.07742500002496,10.835889999987558,11.53151500003878,12.296484999998938,13.047955000016373,13.787765000015497,14.6357699999935,15.371795000042766,16.116559999994934,16.91738500003703,17.64390500000445,18.371214999991935,19.16369499999564,19.939470000041183,20.611610000021756,21.286110000044573,21.851725000014994]",space,0.746535,0.0,28.0,28.0,18.0,1.0,,
,,,,,,,,,,,block_2/strong_n_105_4.wav,no,n,strong,105.0,1.723608797,13.55862014,,,,Yes,Sennheiser CX300,16,no,m,30,R,Yes,1,2020-09-16_13h54.10.653,kura-B2,2020.1.2,Win32,60,,,,,,,,,,,,,,"[""space"",""space"",""space"",""space"",""space"",""space"",""space"",""space"",""space"",""space"",""space"",""space"",""space"",""space"",""space"",""space"",""space"",""space""]","[1.4355050000012852,1.9942499999888241,2.586639999994077,3.2201500000082888,3.7879749999847263,4.394035000004806,4.962404999998398,5.562320000026375,6.204644999990705,6.786584999994375,7.377915000019129,8.02577000000747,8.546915000013541,9.218114999996033,9.785704999987502,10.459060000022873,11.027799999981653,11.595855000021402]",space,0.83928,0.0,29.0,29.0,3.0,1.0,,
,,,,,,,,,,,block_2/strong_n_72_3.wav,no,n,strong,72.0,2.337906276,17.4032124,,,,Yes,Sennheiser CX300,16,no,m,30,R,Yes,1,2020-09-16_13h54.10.653,kura-B2,2020.1.2,Win32,60,,,,,,,,,,,,,,"[""space"",""space"",""space"",""space"",""space"",""space"",""space"",""space"",""space"",""space"",""space"",""space"",""space"",""space"",""space"",""space"",""space"",""space"",""space""]","[1.4858149999636225,2.389394999947399,3.055774999957066,3.8768099999870174,4.6692699999548495,5.373704999976326,6.207499999960419,6.932734999980312,7.705029999953695,8.476934999984223,9.284400000004098,10.036169999977574,10.78852999996161,11.60466999997152,12.414965000003576,13.164484999957494,13.911089999950491,14.68434499995783,15.436149999964982]",space,0.356035,0.0,30.0,30.0,32.0,1.0,,
,,,,,,,,,,,block_2/medium_n_72_4.wav,no,n,medium,72.0,1.35197092,15.86054235,,,,Yes,Sennheiser CX300,16,no,m,30,R,Yes,1,2020-09-16_13h54.10.653,kura-B2,2020.1.2,Win32,60,,,,,,,,,,,,,,"[""space"",""space"",""space"",""space"",""space"",""space"",""space"",""space"",""space"",""space"",""space"",""space"",""space"",""space"",""space"",""space"",""space"",""space""]","[1.6461750000016764,2.351540000003297,3.088705000001937,3.759805000037886,4.574699999997392,5.278615000017453,6.008435000025202,6.792119999998249,7.5260850000195205,8.302175000018906,9.007169999997132,9.762740000034682,10.446140000014566,11.247265000012703,11.990894999995362,12.718075000040699,13.5821050000377,14.21695999999065]",space,0.50888,0.0,31.0,31.0,7.0,1.0,,
,,,,,,,,,,,block_2/weak_n_119_3.wav,no,n,weak,119.0,1.689359171,10.04573105,,,,Yes,Sennheiser CX300,16,no,m,30,R,Yes,1,2020-09-16_13h54.10.653,kura-B2,2020.1.2,Win32,60,,,,,,,,,,,,,,"[""space"",""space"",""space"",""space"",""space"",""space"",""space"",""space"",""space"",""space"",""space"",""space"",""space"",""space"",""space"",""space"",""space""]","[1.7000250000273809,2.1373449999955483,2.5533850000356324,2.9709850000217557,3.4256049999967217,3.857460000028368,4.273385000007693,4.706570000038482,5.156470000045374,5.577770000032615,5.9773150000255555,6.4045550000155345,6.803115000016987,7.291690000041854,7.698900000017602,8.129635000019334,8.60199500003364]",space,0.59173,0.0,32.0,32.0,37.0,1.0,,
,,,,,,,,,,,block_2/none_n_81_4.wav,no,n,none,81.0,1.032736778,20.98466422,,,,Yes,Sennheiser CX300,16,no,m,30,R,Yes,1,2020-09-16_13h54.10.653,kura-B2,2020.1.2,Win32,60,,,,,,,,,,,,,,"[""space"",""space"",""space"",""space"",""space"",""space"",""space"",""space"",""space"",""space"",""space"",""space"",""space"",""space"",""space"",""space"",""space"",""space"",""space"",""space"",""space"",""space"",""space"",""space"",""space""]","[1.5729849999770522,2.0518499999889173,2.703385000000708,3.283880000002682,3.9145999999600463,4.67476500000339,5.374934999970719,6.222924999950919,7.019734999979846,7.787844999984372,8.492180000001099,9.282795000006445,10.346964999975171,11.154824999975972,11.893029999977443,12.698654999956489,13.548364999995101,14.322515000007115,15.034869999974035,15.81955499999458,16.53886499995133,17.42708999995375,18.258990000002086,19.162934999971185,19.964029999973718]",space,0.688735,0.0,33.0,33.0,26.0,1.0,,
,,,,,,,,,,,block_2/weak_n_119_4.wav,no,n,weak,119.0,1.653391966,12.42708811,,,,Yes,Sennheiser CX300,16,no,m,30,R,Yes,1,2020-09-16_13h54.10.653,kura-B2,2020.1.2,Win32,60,,,,,,,,,,,,,,"[""space"",""space"",""space"",""space"",""space"",""space"",""space"",""space"",""space"",""space"",""space"",""space"",""space"",""space"",""space"",""space"",""space"",""space"",""space"",""space"",""space"",""space"",""space"",""space"",""space"",""space"",""space""]","[1.3526749999728054,1.6071099999826401,1.9109799999860115,2.186264999967534,2.5126000000163913,2.8012950000120327,3.095480000018142,3.391494999988936,3.6793549999711104,4.00261500000488,4.304680000001099,4.615364999976009,4.8886899999924935,5.207285000011325,5.551615000003949,5.911439999996219,6.183520000020508,6.463249999971595,6.743009999976493,7.057934999989811,7.455584999988787,7.775584999995772,8.415429999993648,8.951635000004899,9.415314999991097,9.935185000009369,10.519354999996722]",space,0.469815,0.0,34.0,34.0,31.0,1.0,,
,,,,,,,,,,,block_2/strong_n_72_4.wav,no,n,strong,72.0,1.689031128,17.05764791,,,,Yes,Sennheiser CX300,16,no,m,30,R,Yes,1,2020-09-16_13h54.10.653,kura-B2,2020.1.2,Win32,60,,,,,,,,,,,,,,"[""space"",""space"",""space"",""space"",""space"",""space"",""space"",""space"",""space"",""space"",""space"",""space"",""space"",""space"",""space"",""space"",""space"",""space"",""space""]","[1.370070000004489,2.2677649999968708,3.083199999993667,3.8816550000337884,4.657739999995101,5.441410000028554,6.241589999990538,7.092930000042543,7.8500200000125915,8.651345000020228,9.450440000044182,10.23381500004325,11.012465000036173,11.842635000008158,12.64974500000244,13.401929999992717,14.201564999995753,14.994315000018105,15.83415499998955]",space,0.47948,0.0,35.0,35.0,35.0,1.0,,
,,,,,,,,,,,block_2/strong_n_92_3.wav,no,n,strong,92.0,1.019287146,13.50967263,,,,Yes,Sennheiser CX300,16,no,m,30,R,Yes,1,2020-09-16_13h54.10.653,kura-B2,2020.1.2,Win32,60,,,,,,,,,,,,,,"[""space"",""space"",""space"",""space"",""space"",""space"",""space"",""space"",""space"",""space"",""space"",""space"",""space"",""space"",""space"",""space"",""space"",""space"",""space"",""space""]","[0.9177599999820814,1.4647850000183098,2.1441500000073574,2.7527550000231713,3.41609499999322,4.037345000018831,4.655795000027865,5.322005000023637,5.905650000029709,6.5440899999812245,7.160429999988992,7.8324049999937415,8.44824499997776,9.088604999997187,9.695874999975786,10.295645000005607,10.977789999975357,11.600365000020247,12.265454999986105,12.871864999993704]",space,0.576625,0.0,36.0,36.0,39.0,1.0,,
,,,,,,,,,,,block_2/weak_n_81_3.wav,no,n,weak,81.0,2.376095497,17.43405468,,,,Yes,Sennheiser CX300,16,no,m,30,R,Yes,1,2020-09-16_13h54.10.653,kura-B2,2020.1.2,Win32,60,,,,,,,,,,,,,,"[""space"",""space"",""space"",""space"",""space"",""space"",""space"",""space"",""space"",""space"",""space"",""space"",""space"",""space"",""space"",""space"",""space""]","[2.6635949999908917,3.4154749999870546,4.183824999956414,4.89097499998752,5.690494999988005,6.416044999961741,7.167489999963436,7.918904999969527,8.67232499999227,9.394395000010263,10.161924999963958,10.912064999982249,11.64705500000855,12.423089999996591,13.199239999987185,13.967420000000857,14.759135000000242]",space,0.35623,0.0,37.0,37.0,30.0,1.0,,
,,,,,,,,,,,block_2/weak_n_81_4.wav,no,n,weak,81.0,1.139338257,16.19847658,,,,Yes,Sennheiser CX300,16,no,m,30,R,Yes,1,2020-09-16_13h54.10.653,kura-B2,2020.1.2,Win32,60,,,,,,,,,,,,,,"[""space"",""space"",""space"",""space"",""space"",""space"",""space"",""space"",""space"",""space"",""space"",""space"",""space"",""space"",""space"",""space"",""space"",""space""]","[1.9373100000084378,2.736735000042245,3.567510000022594,4.359045000048354,5.1270900000236,5.935355000023264,6.920270000002347,7.719875000009779,8.486605000041891,9.210844999994151,9.966625000000931,10.729645000013988,11.463165000022855,12.319385000038892,13.031850000028498,13.870950000011362,14.650400000042282,15.439360000018496]",space,1.959555,0.0,38.0,38.0,36.0,1.0,,
,,,,,,,,,,,block_2/strong_n_81_4.wav,no,n,strong,81.0,1.736263272,17.70810001,,,,Yes,Sennheiser CX300,16,no,m,30,R,Yes,1,2020-09-16_13h54.10.653,kura-B2,2020.1.2,Win32,60,,,,,,,,,,,,,,"[""space"",""space"",""space"",""space"",""space"",""space"",""space"",""space"",""space"",""space"",""space"",""space"",""space"",""space"",""space"",""space"",""space"",""space""]","[1.7046349999727681,2.5518149999552406,3.4012349999975413,4.186079999955837,4.983379999990575,5.862685000000056,6.710994999972172,7.495100000000093,8.240974999964237,9.095035000005737,9.87891500000842,10.718654999975115,11.566609999979846,12.29649999999674,13.146550000004936,13.982689999975264,14.778004999971017,15.622949999989942]",space,0.723285,0.0,39.0,39.0,1.0,1.0,,
,,,,,,,,,,,,,,,,,,,,,Yes,Sennheiser CX300,16,no,m,30,R,Yes,1,2020-09-16_13h54.10.653,kura-B2,2020.1.2,Win32,60,,,,,,,,,,,,,,,,,,,,,,,space,24.888905
