key_resp.keys,key_resp.rt,practice_taps.keys,practice_taps.rt,keyresp.keys,keyresp.rt,practice_stims_loop.thisRepN,practice_stims_loop.thisTrialN,practice_stims_loop.thisN,practice_stims_loop.thisIndex,practice_stims_loop.ran,sndfile,type,tempo,cond,version,delay,dur,Participant Initials,"If you are a MTurk worker, what is your MTurk worker ID?'",Are you wearing headphones?,What are the headphone make and model?,"How many years of musical training, if any, do you have?",Do you have any hearing problems? Please describe,What is your sex (f/m/decline)?,What is your age?,What is your handedness (R/L/ambi)?,Are you currently in a secure and quiet room without a possible interruption?,session,date,expName,psychopyVersion,OS,frameRate,instructions_prompt.keys,instructions_prompt.rt,block1_taps.keys,block1_taps.rt,key_resp_2.keys,key_resp_2.rt,trials.thisRepN,trials.thisTrialN,trials.thisN,trials.thisIndex,trials.ran,key_resp2.keys,key_resp2.rt,block2_taps.keys,block2_taps.rt,key_resp_3.keys,key_resp_3.rt,trials_2.thisRepN,trials_2.thisTrialN,trials_2.thisN,trials_2.thisIndex,trials_2.ran,key_resp_4.keys,key_resp_4.rt,"If you are not an MTurk worker, please provide your email address"
space,19.81577,"[""space"",""space"",""space"",""space"",""space"",""space"",""space"",""space"",""space"",""space"",""space"",""space"",""space"",""space"",""space""]","[1.3953049999981886,2.2330149999979767,3.0205449999994016,3.677674999998999,4.2085450000013225,6.269110000001092,7.122065000003204,7.323924999996962,7.9527799999996205,8.645635000000766,9.098039999997127,9.415439999997034,10.905885000000126,11.208924999998999,11.830974999997125]",space,3.953355,0.0,0.0,0.0,1.0,1.0,block_2/medium_t_119_4.wav,timbre,t,medium,119.0,2.073396767,11.89421309,,,Yes,Ear Phone,1,No,M,28,R,Yes,1,2020-09-16_15h15.27.472,kura-A2,2020.1.2,Win32,60,,,,,,,,,,,,,,,,,,,,,,,,,
,,"[""space"",""space"",""space"",""space"",""space"",""space"",""space"",""space"",""space"",""space"",""space"",""space"",""space"",""space"",""space"",""space"",""space"",""space"",""space"",""space"",""space"",""space"",""space"",""space""]","[0.559930000003078,1.0124649999997928,1.4977450000005774,2.11730499999976,2.6401800000021467,3.1892300000035902,3.7441450000042096,4.344810000002326,4.913540000001376,5.466050000002724,6.154634999998962,6.675524999998743,7.257754999998724,7.5596650000006775,7.860680000005232,8.38868999999977,8.999465000000782,9.468065000000934,9.659930000001623,10.056240000005346,10.388725000004342,10.740380000002915,11.209460000005492,11.963300000003073]",space,4.46357,0.0,1.0,1.0,0.0,1.0,block_1/medium_n_105_3.wav,no,n,medium,105.0,1.683245346,13.36533151,,,Yes,Ear Phone,1,No,M,28,R,Yes,1,2020-09-16_15h15.27.472,kura-A2,2020.1.2,Win32,60,,,,,,,,,,,,,,,,,,,,,,,,,
,,"[""space"",""space"",""space"",""space"",""space"",""space"",""space"",""space"",""space"",""space"",""space"",""space"",""space"",""space"",""space"",""space"",""space"",""space"",""space"",""space"",""space"",""space"",""space"",""space"",""space"",""space"",""space"",""space"",""space"",""space""]","[0.39231000000290805,0.9278300000005402,1.4641200000041863,2.4515549999996438,2.8376550000029965,3.255555000003369,3.841614999997546,4.042835000000196,4.632125000003725,4.830789999999979,5.2038549999997485,5.9730449999988195,6.3872449999980745,6.671504999998433,6.94352500000241,7.21313000000373,7.5769599999985076,8.127845000002708,8.983925000000454,9.57312500000262,10.291545000000042,10.589480000002368,10.924940000004426,11.260009999998147,11.61335500000132,11.967575000002398,12.290124999999534,12.63126000000193,13.288744999998016,14.206389999999374]",space,2.35198,0.0,2.0,2.0,2.0,1.0,block_1/weak_n_72_4.wav,no,n,weak,72.0,1.922330121,17.89675189,,,Yes,Ear Phone,1,No,M,28,R,Yes,1,2020-09-16_15h15.27.472,kura-A2,2020.1.2,Win32,60,,,,,,,,,,,,,,,,,,,,,,,,,
,,"[""space"",""space"",""space"",""space"",""space"",""space"",""space"",""space"",""space"",""space"",""space"",""space"",""space"",""space"",""space"",""space"",""space"",""space"",""space"",""space""]","[0.44319499999983236,0.9811049999989336,1.5145350000020699,2.0711500000033993,2.587630000001809,3.080034999999043,3.6083100000032573,4.092655000000377,4.563685000000987,5.081304999999702,5.583620000004885,6.136565000000701,6.6245100000014645,7.091215000000375,7.577020000004268,8.079250000002503,8.597890000004554,9.10005000000092,9.620415000004868,10.138525000002119]",space,1.56607,0.0,3.0,3.0,3.0,1.0,block_2/strong_t_119_4.wav,timbre,t,strong,119.0,2.380207574,12.24809873,,,Yes,Ear Phone,1,No,M,28,R,Yes,1,2020-09-16_15h15.27.472,kura-A2,2020.1.2,Win32,60,,,,,,,,,,,,,,,,,,,,,,,,,
,,,,,,,,,,,block_1/none_n_119_3.wav,no,n,none,119.0,1.932281918,14.89500301,,,Yes,Ear Phone,1,No,M,28,R,Yes,1,2020-09-16_15h15.27.472,kura-A2,2020.1.2,Win32,60,space,11.796165,"[""space"",""space"",""space"",""space"",""space"",""space"",""space"",""space"",""space"",""space"",""space"",""space"",""space"",""space"",""space"",""space""]","[0.4259250000031898,0.8783800000019255,1.246145000004617,4.131240000002435,4.4109300000054645,5.284135000001697,7.861045000005106,8.447580000000016,10.373655000003055,10.689480000000913,11.343975000003411,11.646730000000389,11.970575000006647,12.298610000005283,12.618295000000217,12.792290000004868]",space,1.795385,0.0,0.0,0.0,24.0,1.0,,,,,,,,,,,,,,
,,,,,,,,,,,block_1/strong_n_72_4.wav,no,n,strong,72.0,1.599228342,16.96784512,,,Yes,Ear Phone,1,No,M,28,R,Yes,1,2020-09-16_15h15.27.472,kura-A2,2020.1.2,Win32,60,,,"[""space"",""space"",""space"",""space"",""space"",""space"",""space"",""space"",""space"",""space"",""space"",""space"",""space"",""space"",""space"",""space"",""space"",""space"",""space"",""space""]","[0.5321200000034878,1.2521150000029593,2.1182499999995343,2.975800000000163,3.792204999997921,4.617395000001125,5.4363349999985076,6.2039199999999255,7.077835000003688,7.8302200000034645,8.586600000002363,9.402419999998529,10.141929999997956,10.963625000003958,11.779629999997269,12.56975500000408,13.406329999997979,14.208299999998417,14.97787000000244,15.764804999998887]",space,1.71671,0.0,1.0,1.0,35.0,1.0,,,,,,,,,,,,,,
,,,,,,,,,,,block_1/weak_n_72_3.wav,no,n,weak,72.0,1.008682366,16.87657352,,,Yes,Ear Phone,1,No,M,28,R,Yes,1,2020-09-16_15h15.27.472,kura-A2,2020.1.2,Win32,60,,,"[""space"",""space"",""space"",""space"",""space"",""space"",""space"",""space"",""space"",""space"",""space"",""space"",""space"",""space"",""space"",""space"",""space"",""space"",""space"",""space"",""space"",""space"",""space"",""space"",""space"",""space"",""space"",""space"",""space"",""space"",""space"",""space"",""space""]","[0.5610750000050757,0.7871400000003632,1.214190000006056,2.0873950000022887,2.3545500000036554,2.654390000003332,3.154710000002524,3.5790950000009616,3.8803400000033434,4.110210000006191,6.052610000006098,6.775025000002643,7.811265000003914,8.397105000003648,8.917020000000775,9.672425000004296,10.33933000000252,10.87534500000038,11.09346500000538,11.528715000000375,11.913575000005949,12.151235000004817,12.437625000005937,12.684315000005881,12.935440000001108,13.186565000003611,13.457455000003392,13.740485000002082,14.123970000000554,14.710070000000997,15.614645000001474,15.849800000003597,16.036384999999427]",space,1.008965,0.0,2.0,2.0,8.0,1.0,,,,,,,,,,,,,,
,,,,,,,,,,,block_1/none_n_119_4.wav,no,n,none,119.0,2.009432028,15.37111003,,,Yes,Ear Phone,1,No,M,28,R,Yes,1,2020-09-16_15h15.27.472,kura-A2,2020.1.2,Win32,60,,,"[""space"",""space"",""space"",""space"",""space"",""space"",""space"",""space"",""space"",""space"",""space"",""space"",""space"",""space"",""space"",""space"",""space"",""space"",""space"",""space"",""space"",""space"",""space"",""space"",""space"",""space"",""space"",""space"",""space"",""space"",""space"",""space""]","[0.44972499999857973,0.6442499999975553,1.1185649999970337,1.433805000000575,1.735950000002049,1.887300000002142,2.0750200000038603,2.404020000001765,2.7719250000009197,3.1079699999972945,3.462005000001227,3.72875500000373,4.128194999997504,4.311900000000605,4.651774999998452,4.831465000002936,5.199204999997164,5.702180000000226,5.889680000000226,6.427244999998948,6.775730000001204,8.682424999999057,8.983670000001439,9.620240000003832,9.929290000000037,10.828569999997853,11.144234999999753,11.444775000003574,11.789080000002286,12.385999999998603,12.835904999999912,13.270904999997583]",space,0.89615,0.0,3.0,3.0,20.0,1.0,,,,,,,,,,,,,,
,,,,,,,,,,,block_1/medium_n_72_3.wav,no,n,medium,72.0,2.102023577,18.17590113,,,Yes,Ear Phone,1,No,M,28,R,Yes,1,2020-09-16_15h15.27.472,kura-A2,2020.1.2,Win32,60,,,"[""space"",""space"",""space"",""space"",""space"",""space"",""space"",""space"",""space"",""space"",""space"",""space"",""space"",""space"",""space"",""space"",""space"",""space"",""space"",""space"",""space"",""space"",""space"",""space"",""space"",""space"",""space"",""space"",""space"",""space"",""space"",""space"",""space"",""space"",""space"",""space"",""space"",""space""]","[0.4189600000026985,0.6785799999997835,1.0387550000014016,1.3314099999988684,1.7668249999987893,2.0195349999994505,2.4696899999980815,2.7768450000003213,3.2082050000026356,3.6135750000030384,4.044540000002598,4.445594999997411,4.797160000001895,5.316180000001623,5.688970000002882,6.136700000002747,6.54200999999739,6.958295000004,7.191915000003064,7.646675000003597,8.103009999998903,8.314299999998184,8.870184999999765,9.318440000002738,9.772355000000971,10.478634999999485,10.809574999999313,11.31090000000404,11.528664999998,11.745750000001863,12.266055000000051,13.071694999998726,13.454375000001164,13.872765000000072,14.659919999998237,15.496915000003355,15.86849500000244,16.37027500000113]",space,0.71421,0.0,4.0,4.0,13.0,1.0,,,,,,,,,,,,,,
,,,,,,,,,,,block_1/medium_n_119_4.wav,no,n,medium,119.0,1.261396351,9.568471181,,,Yes,Ear Phone,1,No,M,28,R,Yes,1,2020-09-16_15h15.27.472,kura-A2,2020.1.2,Win32,60,,,"[""space"",""space"",""space"",""space"",""space"",""space"",""space"",""space"",""space"",""space"",""space"",""space"",""space"",""space"",""space"",""space"",""space"",""space"",""space""]","[0.4318649999986519,0.8630799999955343,1.2817999999970198,1.5865699999994831,1.917539999994915,2.1186199999938253,2.469954999993206,2.838514999995823,4.077769999996235,4.430099999997765,4.881324999994831,5.333419999995385,5.835369999993418,6.304369999998016,6.739739999997255,7.208189999997558,7.6607549999971525,8.146450000000186,8.565409999995609]",space,1.05117,0.0,5.0,5.0,17.0,1.0,,,,,,,,,,,,,,
,,,,,,,,,,,block_1/strong_n_72_3.wav,no,n,strong,72.0,2.03136762,17.09667374,,,Yes,Ear Phone,1,No,M,28,R,Yes,1,2020-09-16_15h15.27.472,kura-A2,2020.1.2,Win32,60,,,"[""space"",""space"",""space"",""space"",""space"",""space"",""space"",""space"",""space"",""space"",""space"",""space"",""space"",""space"",""space"",""space"",""space"",""space"",""space"",""space""]","[0.6667299999971874,1.4663599999985308,2.369220000000496,3.122145000001183,3.875805000003311,4.698185000001104,5.419705000000249,6.185610000000452,6.9337549999982,7.726909999997588,8.480380000000878,9.283484999999928,10.188190000000759,10.841585000001942,11.649584999999206,12.399610000000393,13.142890000002808,13.927600000002712,14.71446499999729,15.496229999997013]",space,0.86118,0.0,6.0,6.0,32.0,1.0,,,,,,,,,,,,,,
,,,,,,,,,,,block_1/strong_n_119_4.wav,no,n,strong,119.0,1.980480326,12.048825,,,Yes,Ear Phone,1,No,M,28,R,Yes,1,2020-09-16_15h15.27.472,kura-A2,2020.1.2,Win32,60,,,"[""space"",""space"",""space"",""space"",""space"",""space"",""space"",""space"",""space"",""space"",""space"",""space"",""space"",""space"",""space"",""space"",""space"",""space"",""space"",""space""]","[0.7590100000015809,1.1614750000007916,1.6798699999999371,2.202675000000454,2.734279999996943,3.2623850000018138,3.7728300000017043,4.275065000001632,4.777224999997998,5.2463300000017625,5.798965000001772,6.3188300000038,6.819745000000694,7.322054999996908,7.809979999998177,8.276120000002265,8.779325000003155,9.3153999999995,9.822755000001052,10.336754999996629]",space,0.661985,0.0,7.0,7.0,23.0,1.0,,,,,,,,,,,,,,
,,,,,,,,,,,block_1/none_n_72_3.wav,no,n,none,72.0,1.892162994,23.61892036,,,Yes,Ear Phone,1,No,M,28,R,Yes,1,2020-09-16_15h15.27.472,kura-A2,2020.1.2,Win32,60,,,"[""space"",""space"",""space"",""space"",""space"",""space"",""space"",""space"",""space"",""space"",""space"",""space"",""space"",""space"",""space"",""space"",""space"",""space"",""space"",""space"",""space"",""space"",""space"",""space"",""space"",""space"",""space"",""space"",""space"",""space"",""space"",""space"",""space"",""space"",""space"",""space"",""space"",""space""]","[0.44369000000006054,0.6952749999982188,0.913139999996929,1.1295350000000326,1.3685849999965285,2.65458000000217,2.945625000000291,3.2564799999963725,3.5800400000007357,3.9126499999983935,4.14627499999915,4.3283250000022235,4.6647050000028685,4.998874999997497,5.16642999999749,5.516544999998587,6.035904999997001,7.844964999996591,8.481469999998808,8.803769999998622,9.099820000003092,10.473715000000084,10.777874999999767,11.247989999996207,12.048024999996414,12.566610000001674,12.918675000000803,13.436629999996512,13.709484999999404,14.677739999999176,15.446875000001455,16.940244999997958,18.24308000000019,18.745405000001483,19.08006000000023,20.604064999999537,20.939290000002075,21.307679999998072]",space,0.729975,0.0,8.0,8.0,18.0,1.0,,,,,,,,,,,,,,
,,,,,,,,,,,block_1/medium_n_92_4.wav,no,n,medium,92.0,1.438882438,14.02917722,,,Yes,Ear Phone,1,No,M,28,R,Yes,1,2020-09-16_15h15.27.472,kura-A2,2020.1.2,Win32,60,,,"[""space"",""space"",""space"",""space"",""space"",""space"",""space"",""space"",""space"",""space"",""space"",""space"",""space"",""space"",""space"",""space"",""space"",""space"",""space"",""space"",""space"",""space"",""space""]","[0.6308949999947799,0.8499749999973574,1.215009999999893,1.7003100000001723,2.3062749999953667,2.772689999997965,3.02788000000146,3.343945000000531,3.9931649999998626,4.61278499999753,5.151259999998729,5.7219699999986915,6.393270000000484,7.024599999997008,7.711784999999509,8.346939999995811,8.952774999997928,9.539639999995416,10.15601500000048,10.761819999999716,11.329359999996086,12.01440499999444,12.634519999999611]",space,0.61676,0.0,9.0,9.0,11.0,1.0,,,,,,,,,,,,,,
,,,,,,,,,,,block_1/strong_n_105_3.wav,no,n,strong,105.0,1.156897655,12.38746455,,,Yes,Ear Phone,1,No,M,28,R,Yes,1,2020-09-16_15h15.27.472,kura-A2,2020.1.2,Win32,60,,,"[""space"",""space"",""space"",""space"",""space"",""space"",""space"",""space"",""space"",""space"",""space"",""space"",""space"",""space"",""space"",""space"",""space"",""space"",""space"",""space""]","[0.46336000000155764,1.065744999999879,1.6986699999979464,2.318749999998545,2.9746799999993527,3.492245000001276,4.113055000001623,4.653369999999995,5.232405000002473,5.818514999999024,6.388149999998859,6.961235000002489,7.548000000002503,8.112394999996468,8.66487000000052,9.234299999996438,9.819765000000189,10.389334999999846,10.943865000001097,11.5376449999967]",space,1.129725,0.0,10.0,10.0,9.0,1.0,,,,,,,,,,,,,,
,,,,,,,,,,,block_1/weak_n_105_3.wav,no,n,weak,105.0,1.738990723,13.41450093,,,Yes,Ear Phone,1,No,M,28,R,Yes,1,2020-09-16_15h15.27.472,kura-A2,2020.1.2,Win32,60,,,"[""space"",""space"",""space"",""space"",""space"",""space"",""space"",""space"",""space"",""space"",""space"",""space"",""space"",""space"",""space"",""space"",""space"",""space"",""space"",""space"",""space"",""space"",""space"",""space"",""space"",""space"",""space"",""space"",""space"",""space"",""space"",""space"",""space"",""space"",""space"",""space"",""space"",""space"",""space"",""space""]","[0.4099449999994249,0.7446149999959744,1.1465649999954621,1.381970000002184,1.5500400000019,1.8834449999994831,2.2684099999969476,2.4862500000017462,2.7071149999974295,2.9381300000022748,3.1565950000003795,3.374055000000226,3.574464999997872,3.808454999998503,4.045809999995981,4.295120000002498,4.530164999996487,4.763764999996056,5.022675000000163,5.2698249999957625,5.533660000000964,5.755185000001802,6.022250000001804,6.286309999995865,6.521500000002561,6.755615000001853,7.041779999999562,7.263350000001083,7.635470000001078,7.880315000002156,8.196149999996123,8.446434999998019,8.715169999995851,9.016049999998359,9.370739999998477,9.608220000001893,9.944559999996272,10.80789999999979,11.381289999997534,11.998664999999164]",space,0.72826,0.0,11.0,11.0,27.0,1.0,,,,,,,,,,,,,,
,,,,,,,,,,,block_1/strong_n_81_3.wav,no,n,strong,81.0,1.6043637,15.60930701,,,Yes,Ear Phone,1,No,M,28,R,Yes,1,2020-09-16_15h15.27.472,kura-A2,2020.1.2,Win32,60,,,"[""space"",""space"",""space"",""space"",""space"",""space"",""space"",""space"",""space"",""space"",""space"",""space"",""space"",""space"",""space"",""space"",""space"",""space"",""space"",""space""]","[0.4983799999972689,1.1643949999997858,1.8836449999944307,2.6540249999961816,3.3242150000005495,4.060059999996156,4.829599999997299,5.550954999998794,6.22490999999718,6.98240000000078,7.682039999999688,8.347484999998414,9.05051999999705,9.70870499999728,10.447840000000724,11.197795000000042,12.09793499999796,12.834549999999581,13.571289999999863,14.307414999995672]",space,1.016155,0.0,12.0,12.0,10.0,1.0,,,,,,,,,,,,,,
,,,,,,,,,,,block_1/weak_n_105_4.wav,no,n,weak,105.0,1.436012468,12.20911904,,,Yes,Ear Phone,1,No,M,28,R,Yes,1,2020-09-16_15h15.27.472,kura-A2,2020.1.2,Win32,60,,,"[""space"",""space"",""space"",""space"",""space"",""space"",""space"",""space"",""space"",""space"",""space"",""space"",""space"",""space"",""space"",""space"",""space"",""space"",""space"",""space"",""space"",""space"",""space"",""space"",""space"",""space"",""space"",""space"",""space"",""space"",""space"",""space""]","[0.5107500000012806,0.7113499999977648,1.0337949999957345,1.2308649999977206,1.5841250000012224,2.0028850000016973,2.3357099999993807,2.6030600000012782,3.0250299999970593,3.4586550000021816,3.9947849999953178,4.572919999998817,4.9659049999971785,5.165404999999851,5.483674999995856,5.956644999998389,6.4429999999993015,6.695119999996564,6.9236699999963776,7.107479999998873,7.343665000000215,7.778814999997849,8.044625000002384,8.56497500000114,8.782474999999977,9.001875000001746,9.251094999999623,9.494254999997793,9.990964999997345,10.222809999999413,10.507449999997448,10.99581500000204]",space,0.91502,0.0,13.0,13.0,28.0,1.0,,,,,,,,,,,,,,
,,,,,,,,,,,block_1/medium_n_81_4.wav,no,n,medium,81.0,1.742854158,16.25138024,,,Yes,Ear Phone,1,No,M,28,R,Yes,1,2020-09-16_15h15.27.472,kura-A2,2020.1.2,Win32,60,,,"[""space"",""space"",""space"",""space"",""space"",""space"",""space"",""space"",""space"",""space"",""space"",""space"",""space"",""space"",""space"",""space"",""space"",""space"",""space"",""space"",""space"",""space"",""space"",""space"",""space"",""space"",""space"",""space"",""space"",""space"",""space"",""space"",""space"",""space"",""space"",""space"",""space"",""space""]","[0.46028500000090844,0.6631500000002006,0.9821349999983795,1.1803549999966663,1.573734999997896,1.7526799999976674,2.2349949999987757,2.887999999998897,3.6598449999945615,4.311504999997737,4.5650400000010904,5.070455000000834,5.302339999994729,5.734980000000974,5.955089999995721,6.371704999997746,6.722904999994967,7.228224999998929,7.526744999995344,7.978649999997174,8.281954999998334,8.78207499999553,9.01627500000177,9.468659999998408,9.720269999997868,10.188644999994608,10.448454999997807,10.912254999995525,11.209954999998445,11.614345000001663,11.879949999994892,12.320350000001667,12.615995000000112,13.055694999995353,13.307049999995684,13.788589999996248,14.039959999994608,14.442104999994626]",space,0.496055,0.0,14.0,14.0,38.0,1.0,,,,,,,,,,,,,,
,,,,,,,,,,,block_1/weak_n_119_3.wav,no,n,weak,119.0,2.459758036,10.81612992,,,Yes,Ear Phone,1,No,M,28,R,Yes,1,2020-09-16_15h15.27.472,kura-A2,2020.1.2,Win32,60,,,"[""space"",""space"",""space"",""space"",""space"",""space"",""space"",""space"",""space"",""space"",""space"",""space"",""space"",""space"",""space"",""space"",""space"",""space"",""space"",""space"",""space"",""space"",""space"",""space"",""space"",""space"",""space"",""space"",""space"",""space"",""space""]","[0.5441399999981513,0.7989549999985002,0.9814249999982394,1.2818599999953904,1.5349949999945238,1.8508449999935692,2.073149999996531,2.2349999999931924,2.4444449999938342,2.6219700000002604,2.823099999994156,3.261409999999273,3.675934999999413,3.880329999999958,4.077684999996563,4.512539999996079,4.883834999993155,5.099084999994375,5.487454999994952,5.718574999999078,5.9354849999945145,6.153959999996005,6.35610999999335,6.858219999994617,7.213299999995911,7.395339999995372,7.660884999997393,7.8621299999940675,8.080299999994281,8.333594999996535,8.534219999994207]",space,0.577275,0.0,15.0,15.0,37.0,1.0,,,,,,,,,,,,,,
,,,,,,,,,,,block_1/medium_n_105_4.wav,no,n,medium,105.0,1.402482856,15.80924023,,,Yes,Ear Phone,1,No,M,28,R,Yes,1,2020-09-16_15h15.27.472,kura-A2,2020.1.2,Win32,60,,,"[""space"",""space"",""space"",""space"",""space"",""space"",""space"",""space"",""space"",""space"",""space"",""space"",""space"",""space"",""space"",""space"",""space"",""space"",""space"",""space"",""space"",""space"",""space"",""space"",""space"",""space"",""space"",""space"",""space"",""space"",""space"",""space"",""space"",""space"",""space"",""space"",""space"",""space"",""space"",""space""]","[0.42992499999661504,0.5941699999966659,0.9036500000003116,1.3478749999993624,1.582620000001043,1.833679999996093,2.0382749999989755,2.2722399999985328,2.5232099999993807,2.83911500000238,3.278279999998631,3.7590300000010757,3.9602999999987105,4.194999999999595,4.378725000002305,4.596940000003087,4.781024999996475,5.393644999996354,5.923260000003097,6.673894999999902,7.275459999996997,7.881345000001602,8.247049999998012,8.614829999998506,9.169110000002547,9.452210000003106,9.691404999997872,10.074704999998971,10.308395000000019,10.724855000000275,11.427875000001336,11.833689999999478,12.316400000003227,12.672669999999925,12.97157999999763,13.321700000000419,13.587525000002529,13.926010000002975,14.241569999998319,14.528474999999162]",space,1.080085,0.0,16.0,16.0,12.0,1.0,,,,,,,,,,,,,,
,,,,,,,,,,,block_1/weak_n_81_4.wav,no,n,weak,81.0,2.484743178,17.5438815,,,Yes,Ear Phone,1,No,M,28,R,Yes,1,2020-09-16_15h15.27.472,kura-A2,2020.1.2,Win32,60,,,"[""space"",""space"",""space"",""space"",""space"",""space"",""space"",""space"",""space"",""space"",""space"",""space"",""space"",""space"",""space"",""space"",""space"",""space"",""space"",""space"",""space"",""space"",""space"",""space"",""space"",""space"",""space"",""space"",""space"",""space"",""space"",""space"",""space"",""space"",""space"",""space"",""space"",""space"",""space"",""space"",""space"",""space"",""space"",""space""]","[0.4603199999980916,0.7617200000021285,1.3220550000040703,1.7494000000006054,2.2175599999972064,2.4403099999980213,2.8885799999989104,3.4237199999987524,3.6301650000021937,4.0850800000041545,4.604910000001723,4.880539999998064,5.250905000000671,5.520219999998403,5.7912950000027195,6.2787900000038235,6.454980000002138,6.823044999997364,7.1242700000002515,7.308895000001826,7.712615000003893,7.965889999999376,8.216695000002687,8.513789999997243,8.765110000000163,9.050210000001016,9.317589999998631,10.340505000000121,10.978954999998678,11.227575000004322,11.4964450000042,11.863610000000335,12.16479999999865,12.500270000003866,12.767505000003325,13.105394999998566,13.389360000001034,13.676050000001737,13.939084999998045,14.224014999999554,14.49155500000029,14.82669500000327,15.07809000000259,15.33675500000379]",space,0.727795,0.0,17.0,17.0,36.0,1.0,,,,,,,,,,,,,,
,,,,,,,,,,,block_1/weak_n_72_4.wav,no,n,weak,72.0,1.441009476,17.41543124,,,Yes,Ear Phone,1,No,M,28,R,Yes,1,2020-09-16_15h15.27.472,kura-A2,2020.1.2,Win32,60,,,"[""space"",""space"",""space"",""space"",""space"",""space"",""space"",""space"",""space"",""space"",""space"",""space"",""space"",""space"",""space"",""space"",""space"",""space"",""space"",""space"",""space"",""space"",""space"",""space"",""space"",""space"",""space"",""space"",""space"",""space"",""space"",""space"",""space"",""space"",""space"",""space"",""space"",""space"",""space"",""space"",""space"",""space"",""space"",""space"",""space"",""space"",""space""]","[0.530940000004307,0.9475250000033384,1.3190700000051265,1.5016600000018343,1.7727700000033337,1.9519550000042045,2.20434500000556,2.4253450000034036,2.7771600000052103,2.9907350000067936,3.2911500000045635,3.4919600000067703,3.7778650000037715,4.061580000001527,4.3627650000054246,4.5975000000034925,4.916315000002328,5.199090000002002,5.468305000002374,5.770130000004656,6.086380000000759,6.304790000002072,6.57271500000229,6.7595200000071145,7.009860000005801,7.23028500000521,7.882235000004698,8.634235000004992,9.172515000005774,9.637630000004833,10.03887000000418,10.399105000004283,10.77580500000488,11.160565000005704,11.730515000002924,12.36987000000238,12.584800000004293,13.119505000002505,13.419885000003092,13.64005000000202,14.010385000001406,14.20785500000079,14.492970000006835,15.179110000004698,15.531130000003259,15.856335000004265,16.133975000004284]",space,1.080185,0.0,18.0,18.0,4.0,1.0,,,,,,,,,,,,,,
,,,,,,,,,,,block_1/medium_n_72_4.wav,no,n,medium,72.0,1.204769933,15.71334136,,,Yes,Ear Phone,1,No,M,28,R,Yes,1,2020-09-16_15h15.27.472,kura-A2,2020.1.2,Win32,60,,,"[""space"",""space"",""space"",""space"",""space"",""space"",""space"",""space"",""space"",""space"",""space"",""space"",""space"",""space"",""space"",""space"",""space"",""space"",""space"",""space"",""space"",""space"",""space"",""space"",""space"",""space"",""space"",""space"",""space"",""space"",""space"",""space"",""space"",""space"",""space"",""space"",""space"",""space"",""space"",""space"",""space"",""space"",""space"",""space"",""space"",""space"",""space""]","[0.6277350000018487,1.0850900000003776,1.498534999998924,1.7353900000016438,1.9669199999988223,2.2037199999978156,2.490270000001942,2.754265000003329,3.007575000003385,3.2567350000026636,3.5244200000015553,3.792509999999311,4.042475000002128,4.311490000000163,4.562640000003739,4.781680000000051,5.048054999999408,5.285515000003329,5.4835749999984955,5.685245000000577,5.958875000003786,6.189384999997742,6.455800000003478,6.69651999999769,6.975579999998445,7.224739999997723,7.576480000003357,7.797769999997286,8.028814999997849,8.28012499999761,8.513904999999795,9.050779999997872,9.471355000001495,9.971584999999436,10.155915000002892,10.673985000001267,10.895470000003115,11.344450000004144,11.57816499999899,12.131455000002575,12.535055000000284,12.708420000002548,12.956814999997732,13.403650000000312,13.856755000000703,14.276474999998868,14.692495000003078]",space,2.98852,0.0,19.0,19.0,7.0,1.0,,,,,,,,,,,,,,
,,,,,,,,,,,block_1/strong_n_81_4.wav,no,n,strong,81.0,1.727706814,17.69954355,,,Yes,Ear Phone,1,No,M,28,R,Yes,1,2020-09-16_15h15.27.472,kura-A2,2020.1.2,Win32,60,,,"[""space"",""space"",""space"",""space"",""space"",""space"",""space"",""space"",""space"",""space"",""space"",""space"",""space"",""space"",""space"",""space"",""space"",""space"",""space"",""space""]","[0.664140000000657,1.3471950000019888,2.0342699999963543,2.720605000002138,3.477740000002086,4.1991350000025705,5.0485049999988405,5.818624999999884,6.750865000001681,7.610265000003096,8.416579999997452,9.267849999996429,10.088114999998766,10.875169999999343,11.601394999997751,12.40200499999628,13.105954999998971,13.942940000000704,14.877565000002505,15.738584999999148]",space,0.91292,0.0,20.0,20.0,1.0,1.0,,,,,,,,,,,,,,
,,,,,,,,,,,block_1/none_n_105_3.wav,no,n,none,105.0,2.216733946,14.87818519,,,Yes,Ear Phone,1,No,M,28,R,Yes,1,2020-09-16_15h15.27.472,kura-A2,2020.1.2,Win32,60,,,"[""space"",""space"",""space"",""space"",""space"",""space"",""space"",""space"",""space"",""space"",""space"",""space"",""space"",""space"",""space"",""space"",""space"",""space"",""space"",""space"",""space"",""space"",""space"",""space"",""space"",""space"",""space"",""space"",""space"",""space"",""space"",""space"",""space"",""space"",""space"",""space"",""space"",""space"",""space"",""space"",""space"",""space""]","[0.4939200000009123,0.828264999996577,1.1036099999984117,1.3349849999940488,1.6668599999975413,2.186999999998193,2.3875349999945,2.992254999997499,3.1210849999989705,3.3067999999985886,3.945314999997322,4.0977249999996275,4.2946899999953985,4.562265000000707,5.114569999998025,5.317864999997369,5.583364999998594,5.8522749999976895,6.136919999997303,6.454330000000596,6.70591499999864,7.007259999998723,7.474875000000111,7.6773649999961435,8.145949999998379,8.531145000001061,8.9494649999981,9.133509999999887,9.317830000000185,9.503824999999892,9.97078999999951,10.271904999994263,10.406269999999608,10.77676499999518,11.076224999997066,11.212889999995241,11.51106499999878,11.71471499999484,11.846649999999613,12.198389999997858,12.382709999998156,12.756279999994263]",space,0.81219,0.0,21.0,21.0,6.0,1.0,,,,,,,,,,,,,,
,,,,,,,,,,,block_1/strong_n_92_4.wav,no,n,strong,92.0,2.276261723,15.98016195,,,Yes,Ear Phone,1,No,M,28,R,Yes,1,2020-09-16_15h15.27.472,kura-A2,2020.1.2,Win32,60,,,"[""space"",""space"",""space"",""space"",""space"",""space"",""space"",""space"",""space"",""space"",""space"",""space"",""space"",""space"",""space"",""space"",""space"",""space"",""space"",""space""]","[0.6605049999999437,1.4156149999981835,2.150654999997755,2.8706200000015087,3.524959999995417,4.210224999995376,4.849340000000893,5.569819999997094,6.258049999996842,7.194919999994681,7.730189999994877,8.396239999994691,9.11904499999946,9.824329999995939,10.544414999996889,11.293395000000828,11.950874999995222,12.654764999999543,13.402949999996167,14.17474499999662]",space,1.2316,0.0,22.0,22.0,34.0,1.0,,,,,,,,,,,,,,
,,,,,,,,,,,block_1/strong_n_105_4.wav,no,n,strong,105.0,1.30585928,13.14087062,,,Yes,Ear Phone,1,No,M,28,R,Yes,1,2020-09-16_15h15.27.472,kura-A2,2020.1.2,Win32,60,,,"[""space"",""space"",""space"",""space"",""space"",""space"",""space"",""space"",""space"",""space"",""space"",""space"",""space"",""space"",""space"",""space"",""space"",""space"",""space""]","[0.64845000000048,1.2222499999987804,1.855380000000764,2.4246199999978444,2.939850000002366,3.545770000004154,4.144205000003922,4.830750000000876,5.501235000003362,6.102930000000811,6.707295000000158,7.366950000003158,7.913034999997649,8.552804999999125,9.133880000001113,9.722305000002962,10.307614999997895,10.958790000004228,11.561910000003763]",space,0.87939,0.0,23.0,23.0,3.0,1.0,,,,,,,,,,,,,,
,,,,,,,,,,,block_1/weak_n_81_3.wav,no,n,weak,81.0,1.412334255,16.47029344,,,Yes,Ear Phone,1,No,M,28,R,Yes,1,2020-09-16_15h15.27.472,kura-A2,2020.1.2,Win32,60,,,"[""space"",""space"",""space"",""space"",""space"",""space"",""space"",""space"",""space"",""space"",""space"",""space"",""space"",""space"",""space"",""space"",""space"",""space"",""space"",""space"",""space"",""space"",""space"",""space"",""space"",""space"",""space"",""space"",""space"",""space"",""space"",""space"",""space"",""space"",""space"",""space"",""space"",""space"",""space"",""space"",""space"",""space"",""space"",""space"",""space"",""space"",""space"",""space"",""space"",""space"",""space"",""space"",""space""]","[0.6774649999935036,0.9288349999987986,1.179959999994253,1.398504999997499,1.6794699999956038,1.8657699999968145,2.1886349999986123,2.5885149999960504,2.7408199999991893,3.0135899999951334,3.19220999999402,3.4080049999976154,3.7586849999936476,3.9764049999939743,4.598144999996293,5.198789999994915,5.617729999998119,5.7899849999960225,5.969344999997816,6.189644999998677,6.373374999995576,6.75592999999958,6.960874999997145,7.10869999999727,7.476459999998156,7.843894999998156,8.045854999996777,8.178919999998584,8.547194999999306,9.31796000000054,9.703244999997196,9.903144999996698,10.122959999993554,10.346229999995558,10.5414649999949,10.740669999999227,10.959149999995361,11.159195000000409,11.358874999998193,11.544210000000135,12.131559999994579,12.465539999997532,12.98533499999769,13.13883499999804,13.358204999996815,13.536345000000438,13.737894999998389,14.209534999994617,14.35695499999565,14.56491499999538,14.94928499999537,15.182134999995696,15.381004999995753]",space,0.82901,0.0,24.0,24.0,30.0,1.0,,,,,,,,,,,,,,
,,,,,,,,,,,block_1/strong_n_119_3.wav,no,n,strong,119.0,1.213627968,10.9792062,,,Yes,Ear Phone,1,No,M,28,R,Yes,1,2020-09-16_15h15.27.472,kura-A2,2020.1.2,Win32,60,,,"[""space"",""space"",""space"",""space"",""space"",""space"",""space"",""space"",""space"",""space"",""space"",""space"",""space"",""space"",""space"",""space"",""space"",""space"",""space"",""space""]","[0.5806300000039073,1.0967950000049314,1.616740000005052,2.151969999998869,2.6531450000038603,3.1237750000000233,3.6419800000003306,4.143114999998943,4.603374999998664,5.115140000001588,5.687304999999469,6.152580000001876,6.622060000001625,7.1239200000053415,7.593294999998761,8.066474999999627,8.585070000000997,9.071435000005295,9.573895000001244,10.053265000002398]",space,1.08193,0.0,25.0,25.0,16.0,1.0,,,,,,,,,,,,,,
,,,,,,,,,,,block_1/medium_n_81_3.wav,no,n,medium,81.0,1.199970007,16.72060493,,,Yes,Ear Phone,1,No,M,28,R,Yes,1,2020-09-16_15h15.27.472,kura-A2,2020.1.2,Win32,60,,,"[""space"",""space"",""space"",""space"",""space"",""space"",""space"",""space"",""space"",""space"",""space"",""space"",""space"",""space"",""space"",""space"",""space"",""space"",""space"",""space"",""space"",""space"",""space"",""space"",""space"",""space"",""space"",""space"",""space"",""space"",""space"",""space"",""space"",""space"",""space"",""space"",""space"",""space"",""space"",""space"",""space""]","[0.5230749999972204,0.8763099999995347,1.281419999999116,1.6157299999975976,1.9634799999984125,2.3016100000021424,2.6682599999984404,3.025744999998892,3.3795349999998052,3.7896049999981187,4.174745000003782,4.559585000002585,4.9779699999998,5.4650749999998425,5.7486649999990505,6.0881900000021005,6.434784999997532,6.93667999999866,7.355710000003455,7.7072649999971645,8.080690000002505,8.44509000000096,8.848734999999465,9.21478500000353,9.616764999998622,9.971864999999525,10.357690000004368,10.788740000003372,11.274660000002655,11.652314999999135,12.063555000000633,12.432455000001937,12.835565000000997,13.2586500000034,13.56780499999877,13.903299999998012,14.207080000000019,14.581285000000094,14.911375000003204,15.347255000000587,15.710834999997928]",space,0.62773,0.0,26.0,26.0,33.0,1.0,,,,,,,,,,,,,,
,,,,,,,,,,,block_1/none_n_81_3.wav,no,n,none,81.0,1.098648096,17.74277508,,,Yes,Ear Phone,1,No,M,28,R,Yes,1,2020-09-16_15h15.27.472,kura-A2,2020.1.2,Win32,60,,,"[""space"",""space"",""space"",""space"",""space"",""space"",""space"",""space"",""space"",""space"",""space"",""space"",""space"",""space"",""space"",""space"",""space"",""space"",""space"",""space"",""space"",""space"",""space"",""space"",""space"",""space"",""space"",""space"",""space"",""space"",""space"",""space"",""space"",""space"",""space"",""space"",""space"",""space"",""space"",""space"",""space"",""space"",""space"",""space"",""space"",""space"",""space"",""space"",""space"",""space"",""space"",""space"",""space"",""space"",""space""]","[0.5440300000045681,0.8467950000049314,1.1467200000042794,1.4051850000031436,1.649580000004903,1.9534650000060765,2.201684999999884,2.5238800000007586,2.8369349999993574,3.1583549999996876,3.5072900000012623,3.679185000000871,3.8439150000049267,4.076469999999972,4.196784999999977,4.532415000001606,4.883805000004941,5.200815000003786,5.350030000001425,5.65063000000373,5.852075000002515,6.156530000000089,6.659460000002696,6.789940000002389,7.158445000000825,7.476715000004447,7.626840000004336,7.996310000002268,8.14565500000026,8.480170000002659,8.789965000003576,9.120130000003087,9.45185000000481,9.619680000003427,9.803660000005038,10.104745000004186,10.264365000002613,10.573965000003227,10.757445000003031,11.042700000005425,11.345209999999497,11.797865000000456,12.097905000002356,12.552210000001764,12.721085000004791,12.867604999999344,13.186045000002082,13.486940000002505,13.972780000003581,14.764585000004558,15.064835000004791,15.412674999999581,15.668145000003278,16.487950000002343,16.802920000001905]",space,0.731995,0.0,27.0,27.0,29.0,1.0,,,,,,,,,,,,,,
,,,,,,,,,,,block_1/none_n_92_3.wav,no,n,none,92.0,2.336707073,18.23675242,,,Yes,Ear Phone,1,No,M,28,R,Yes,1,2020-09-16_15h15.27.472,kura-A2,2020.1.2,Win32,60,,,"[""space"",""space"",""space"",""space"",""space"",""space"",""space"",""space"",""space"",""space"",""space"",""space"",""space"",""space"",""space"",""space"",""space"",""space"",""space"",""space"",""space"",""space"",""space"",""space"",""space"",""space"",""space"",""space"",""space"",""space"",""space"",""space"",""space"",""space"",""space"",""space"",""space"",""space"",""space"",""space"",""space"",""space"",""space"",""space"",""space"",""space"",""space"",""space"",""space"",""space"",""space"",""space"",""space"",""space""]","[0.5273300000045538,0.8302249999981086,1.0954750000020113,1.3654650000027004,1.535035000000903,1.718684999999823,2.253194999997504,2.6212349999987055,2.9547200000016574,3.1254350000018576,3.2899550000004183,3.6086250000008704,4.115510000003269,4.298094999998398,4.663155000002234,4.7834799999984625,4.999360000001843,5.33258500000386,5.666689999998425,5.843334999997978,6.0191600000035805,6.171110000003068,6.372320000002333,6.775489999999991,6.907709999999497,7.107730000003585,7.629670000002193,7.846895000002519,8.366790000000037,8.564865000000395,8.736519999998677,9.342810000001919,9.535450000003152,9.837250000004246,10.005344999997988,10.412459999999669,10.742234999998118,11.099930000004065,11.478110000003767,11.650679999998943,11.85035000000073,12.287055000000805,12.638510000004544,12.991715000003865,13.152654999998276,13.320560000000228,13.522185000001741,13.688094999997816,14.006865000003017,14.378179999999702,14.743479999997476,15.37936500000069,15.563735000003362,15.948434999998426]",space,0.4984,0.0,28.0,28.0,25.0,1.0,,,,,,,,,,,,,,
,,,,,,,,,,,block_1/weak_n_92_3.wav,no,n,weak,92.0,1.887522896,14.6307882,,,Yes,Ear Phone,1,No,M,28,R,Yes,1,2020-09-16_15h15.27.472,kura-A2,2020.1.2,Win32,60,,,"[""space"",""space"",""space"",""space"",""space"",""space"",""space"",""space"",""space"",""space"",""space"",""space"",""space"",""space"",""space"",""space"",""space"",""space"",""space"",""space"",""space"",""space"",""space"",""space"",""space"",""space"",""space"",""space"",""space"",""space"",""space"",""space"",""space"",""space"",""space"",""space"",""space"",""space"",""space"",""space""]","[0.4486849999959759,0.6700300000012476,0.8456949999963399,1.2657299999993938,1.6992449999961536,1.8350499999942258,2.0862549999948214,2.4193549999982906,2.931004999998663,3.144909999995548,3.4257949999956736,3.9001900000005207,4.114644999994198,4.345244999996908,4.597289999997997,4.882160000001136,5.070039999998812,5.332924999995157,5.588009999999599,5.83517999999458,6.054134999998723,6.2709749999995665,6.5061849999984815,6.756685000000289,7.3426649999966,7.561999999998193,7.812899999997285,8.063174999995795,8.317445000000703,8.569459999998799,8.932489999999348,9.463644999996404,9.719529999994961,10.009330000000773,10.239504999997848,10.62738999999442,11.009350000000381,11.779660000000149,12.300779999997872,12.960704999997802]",space,0.646705,0.0,29.0,29.0,5.0,1.0,,,,,,,,,,,,,,
,,,,,,,,,,,block_1/weak_n_92_4.wav,no,n,weak,92.0,2.208253857,14.29442166,,,Yes,Ear Phone,1,No,M,28,R,Yes,1,2020-09-16_15h15.27.472,kura-A2,2020.1.2,Win32,60,,,"[""space"",""space"",""space"",""space"",""space"",""space"",""space"",""space"",""space"",""space"",""space"",""space"",""space"",""space"",""space"",""space"",""space"",""space"",""space"",""space"",""space"",""space"",""space"",""space""]","[0.5971949999948265,1.013129999999478,1.4982049999962328,1.8504849999955013,2.127699999997276,2.3846899999990683,2.675694999998086,2.938064999994822,3.3234249999950407,3.8828900000008844,4.41204499999742,4.915734999994925,5.4678899999998976,6.022834999996121,6.597555000000284,7.144684999999413,7.727664999998524,8.312939999996274,8.551429999999414,9.67089000000135,10.289104999996312,10.941794999998706,11.56239999999525,12.064174999999636]",space,0.59436,0.0,30.0,30.0,15.0,1.0,,,,,,,,,,,,,,
,,,,,,,,,,,block_1/medium_n_119_3.wav,no,n,medium,119.0,1.238363393,11.09976929,,,Yes,Ear Phone,1,No,M,28,R,Yes,1,2020-09-16_15h15.27.472,kura-A2,2020.1.2,Win32,60,,,"[""space"",""space"",""space"",""space"",""space"",""space"",""space"",""space"",""space"",""space"",""space"",""space"",""space"",""space"",""space"",""space"",""space"",""space"",""space"",""space"",""space"",""space"",""space"",""space"",""space""]","[0.577600000004395,0.8790500000034172,1.1303800000025603,1.3983900000023368,1.8836099999972475,2.2034449999993058,2.7036250000020345,3.224959999999669,3.625590000003399,4.026855000003707,4.411690000000931,4.77975500000332,5.738069999999539,6.057404999999562,6.773784999997588,7.007310000001098,7.141765000000419,7.510025000003338,7.8801050000040505,8.263664999998696,8.614670000002775,9.019319999999539,9.588925000003883,9.754030000003809,10.109490000002552]",space,1.06326,0.0,31.0,31.0,22.0,1.0,,,,,,,,,,,,,,
,,,,,,,,,,,block_1/none_n_72_4.wav,no,n,none,72.0,1.118979514,23.86124709,,,Yes,Ear Phone,1,No,M,28,R,Yes,1,2020-09-16_15h15.27.472,kura-A2,2020.1.2,Win32,60,,,"[""space"",""space"",""space"",""space"",""space"",""space"",""space"",""space"",""space"",""space"",""space"",""space"",""space"",""space"",""space"",""space"",""space"",""space"",""space"",""space"",""space"",""space"",""space"",""space"",""space"",""space"",""space"",""space"",""space"",""space"",""space"",""space"",""space"",""space"",""space"",""space"",""space"",""space"",""space"",""space"",""space"",""space"",""space"",""space"",""space"",""space"",""space"",""space"",""space"",""space"",""space"",""space"",""space"",""space"",""space"",""space"",""space"",""space"",""space"",""space"",""space"",""space"",""space"",""space"",""space"",""space"",""space"",""space"",""space""]","[0.5271900000008145,0.7959350000019185,1.0823799999999437,1.2308750000012196,1.5321000000041067,1.7844650000042748,2.051385000006235,2.3350850000061882,2.6202400000040598,2.7386000000043396,3.0547550000048886,3.3585450000028914,3.576515000000768,3.8425950000020066,3.976310000005583,4.280420000002891,4.451940000006402,4.868585000004032,5.118314999999711,5.433105000003707,5.834475000003408,6.103625000003603,6.610785000004512,6.942184999999995,7.425905000003809,7.596695000000409,8.078865000003361,8.27965500000596,9.082950000003734,9.351255000001629,9.471860000005336,9.836845000005383,10.087640000005308,10.82728000000509,10.992095000001541,11.411545000002775,11.847490000000334,12.465575000002104,12.65680000000441,12.90625,13.070805000003134,13.487345000001369,14.374815000003082,14.626140000000419,15.513320000005592,15.934660000006375,16.165925000001266,16.518255000002682,16.85575500000425,17.17091000000096,17.43152500000008,17.693344999999795,17.993325000003324,18.41053000000113,18.781235000002198,19.167900000000373,19.49868500000605,19.76635499999975,20.067920000001322,20.369425000004526,20.637335000006715,20.972020000001294,21.357540000004633,21.59282499999972,21.859435000005988,22.111460000000307,22.382610000000568,22.679295000001844,22.965735000005225]",space,1.13033,0.0,32.0,32.0,21.0,1.0,,,,,,,,,,,,,,
,,,,,,,,,,,block_1/weak_n_119_4.wav,no,n,weak,119.0,2.305568033,13.07926418,,,Yes,Ear Phone,1,No,M,28,R,Yes,1,2020-09-16_15h15.27.472,kura-A2,2020.1.2,Win32,60,,,"[""space"",""space"",""space"",""space"",""space"",""space"",""space"",""space"",""space"",""space"",""space"",""space"",""space"",""space"",""space"",""space"",""space"",""space"",""space"",""space"",""space"",""space"",""space"",""space"",""space"",""space"",""space"",""space"",""space"",""space"",""space"",""space"",""space"",""space"",""space"",""space"",""space"",""space"",""space""]","[0.5112149999985149,0.7287750000033384,1.4152350000005072,1.8211500000033993,2.1196350000026314,2.386124999997378,2.637345000002938,2.8883799999968005,3.173414999997476,3.391199999998207,3.6266299999988405,3.8614250000026686,4.081655000001774,4.345744999998715,4.579624999998487,4.821044999997071,5.051979999996661,5.318975000001956,5.5837749999990365,5.853130000003148,6.143654999999967,6.438710000002175,6.742769999997108,6.976340000001187,7.210944999998901,7.483905000000959,7.778220000000033,8.046629999997094,8.296990000002552,8.518159999999511,8.765500000001225,9.009850000002189,9.267829999997048,9.519249999997555,9.757700000001932,10.004549999997835,10.29017000000033,10.544074999997974,10.82584499999939]",space,0.630365,0.0,33.0,33.0,31.0,1.0,,,,,,,,,,,,,,
,,,,,,,,,,,block_1/none_n_81_4.wav,no,n,none,81.0,2.242955119,22.19488256,,,Yes,Ear Phone,1,No,M,28,R,Yes,1,2020-09-16_15h15.27.472,kura-A2,2020.1.2,Win32,60,,,"[""space"",""space"",""space"",""space"",""space"",""space"",""space"",""space"",""space"",""space"",""space"",""space"",""space"",""space"",""space"",""space"",""space"",""space"",""space"",""space"",""space"",""space"",""space"",""space"",""space"",""space"",""space"",""space"",""space"",""space"",""space"",""space"",""space"",""space"",""space"",""space"",""space"",""space"",""space"",""space"",""space"",""space"",""space"",""space"",""space"",""space"",""space"",""space"",""space"",""space"",""space"",""space"",""space"",""space"",""space"",""space"",""space"",""space"",""space"",""space"",""space"",""space"",""space"",""space""]","[0.6477149999991525,0.9171350000032135,1.1793949999989763,1.4475850000014816,1.6991100000011556,1.9738100000030272,2.240300000004936,2.5026599999982864,2.8053950000030454,3.072870000003604,3.341055000004303,3.6413949999985107,3.926245000002268,4.210899999998105,4.481975000002421,4.796555000000694,5.067325000003507,5.349760000004494,5.634409999998752,5.9023650000015095,6.1932999999987715,6.4883850000042,6.742194999998901,6.973259999998845,7.246709999999325,7.543485000001965,7.8443450000047505,8.146325000001411,8.430460000003222,8.716095000003293,8.98307999999804,9.235415000002831,9.51950000000204,9.789485000000923,10.473315000002799,11.251470000002655,11.511449999998035,11.763019999998278,12.03302000000258,12.314975000000913,12.66709999999864,12.951955000003977,13.235455000001593,13.495549999999525,13.772645000004331,14.024479999999926,14.308295000002431,14.676325000000247,14.96680500000366,15.232450000003041,15.483590000003232,15.749795000003246,16.233560000000466,16.585140000002752,16.869579999998678,17.22468500000093,17.526640000003567,17.842584999998394,18.146155000002068,18.982394999999087,19.28126999999938,19.565605000003302,19.8714450000042,20.15346000000136]",space,0.71551,0.0,34.0,34.0,26.0,1.0,,,,,,,,,,,,,,
,,,,,,,,,,,block_1/none_n_92_4.wav,no,n,none,92.0,1.296817987,15.18938035,,,Yes,Ear Phone,1,No,M,28,R,Yes,1,2020-09-16_15h15.27.472,kura-A2,2020.1.2,Win32,60,,,"[""space"",""space"",""space"",""space"",""space"",""space"",""space"",""space"",""space"",""space"",""space"",""space"",""space"",""space"",""space"",""space"",""space"",""space"",""space"",""space"",""space"",""space"",""space"",""space"",""space"",""space"",""space"",""space"",""space"",""space"",""space"",""space"",""space"",""space"",""space"",""space"",""space"",""space"",""space"",""space"",""space"",""space"",""space"",""space"",""space"",""space"",""space"",""space"",""space"",""space"",""space"",""space"",""space"",""space"",""space"",""space""]","[0.5824199999989332,0.8600500000031843,1.096910000000321,1.3292250000014292,1.5656700000037063,1.8314350000000559,2.069580000003157,2.3010450000001583,2.5421250000000555,2.785875000001397,3.0200899999982767,3.2728300000017043,3.527020000001471,3.7603000000018483,4.025255000000698,4.264185000000111,4.510535000001369,4.761924999998882,5.012824999998202,5.280610000001843,5.516400000000544,5.749654999999734,5.98594500000047,6.2350999999981696,6.4719150000019,6.72116500000277,6.956005000000232,7.2069449999983135,7.440295000000447,7.695175000000745,7.947124999998891,8.212905000000433,8.461419999999748,8.69758000000013,8.947480000002543,9.207119999999236,9.467120000001387,9.717795000004116,9.970164999998929,10.206500000000233,10.456165000003352,10.688874999999939,10.940735000003883,11.17523500000243,11.409469999998919,11.663525000003688,11.898825000003967,12.134089999999674,12.380730000004405,12.606164999997532,12.872990000003483,13.117125000004535,13.351705000001061,13.602440000002616,13.823259999997504,14.08843999999965]",space,0.72872,0.0,35.0,35.0,19.0,1.0,,,,,,,,,,,,,,
,,,,,,,,,,,block_1/strong_n_92_3.wav,no,n,strong,92.0,1.754608557,14.24499404,,,Yes,Ear Phone,1,No,M,28,R,Yes,1,2020-09-16_15h15.27.472,kura-A2,2020.1.2,Win32,60,,,"[""space"",""space"",""space"",""space"",""space"",""space"",""space"",""space"",""space"",""space"",""space"",""space"",""space"",""space"",""space"",""space"",""space"",""space"",""space"",""space""]","[0.6146399999995538,1.264399999999796,1.9843199999958188,2.637314999999944,3.31031999999675,3.9434099999997443,4.613214999997467,5.285804999999414,5.918559999998138,6.57181999999716,7.157729999998878,7.761904999999274,8.43028999999649,9.043955000001006,9.668189999996684,10.311159999997244,10.89226000000042,11.595979999998008,12.349344999995083,12.9012450000007]",space,0.813605,0.0,36.0,36.0,39.0,1.0,,,,,,,,,,,,,,
,,,,,,,,,,,block_1/none_n_105_4.wav,no,n,none,105.0,1.493653366,16.97025201,,,Yes,Ear Phone,1,No,M,28,R,Yes,1,2020-09-16_15h15.27.472,kura-A2,2020.1.2,Win32,60,,,"[""space"",""space"",""space"",""space"",""space"",""space"",""space"",""space"",""space"",""space"",""space"",""space"",""space"",""space"",""space"",""space"",""space"",""space"",""space"",""space"",""space"",""space"",""space"",""space"",""space"",""space"",""space"",""space"",""space"",""space"",""space"",""space"",""space"",""space"",""space"",""space"",""space"",""space"",""space"",""space"",""space"",""space"",""space"",""space"",""space"",""space"",""space"",""space"",""space"",""space"",""space"",""space"",""space"",""space"",""space"",""space"",""space""]","[0.5464600000051405,0.8319800000028863,1.0644549999999526,1.3644800000040505,1.635065000002328,1.9165150000046651,2.1513400000040974,2.385420000005979,2.637055000006626,2.8709100000052103,3.109094999999911,3.327600000004395,3.590739999999869,3.845155000002933,4.114800000003129,4.3692050000028075,4.6295800000008285,4.87922500000434,5.150595000006547,5.419315000006463,5.672460000001593,5.935270000001992,6.204375000001164,6.487730000000852,6.755510000002914,7.013165000004051,7.24622500000271,7.480815000002849,7.6973150000050055,7.928200000002221,8.162320000003092,8.379690000001574,8.597800000003417,8.835330000001704,9.037295000002132,9.305765000004726,9.601775000003045,9.904515000001993,10.188630000004423,10.491600000001313,10.791035000002012,11.047870000002263,11.363145000003101,11.661135000002105,11.946330000006128,12.264930000004824,12.492415000000847,12.784830000004376,13.340710000004265,13.63922500000649,13.95623000000353,14.257445000003031,14.52938500000164,14.826755000002095,15.114875000006691,15.395405000003166,15.751425000002314]",space,1.816745,0.0,37.0,37.0,14.0,1.0,,,,,,,,,,,,,,
,,,,,,,,,,,block_1/medium_n_92_3.wav,no,n,medium,92.0,1.602440637,13.28810957,,,Yes,Ear Phone,1,No,M,28,R,Yes,1,2020-09-16_15h15.27.472,kura-A2,2020.1.2,Win32,60,,,"[""space"",""space"",""space"",""space"",""space"",""space"",""space"",""space"",""space"",""space"",""space"",""space"",""space"",""space"",""space"",""space"",""space"",""space"",""space"",""space"",""space"",""space"",""space"",""space"",""space"",""space"",""space"",""space"",""space"",""space"",""space"",""space"",""space"",""space"",""space"",""space"",""space"",""space"",""space"",""space"",""space"",""space"",""space"",""space"",""space"",""space"",""space""]","[0.3942949999981238,0.6112900000007357,0.8464499999972759,1.098604999999111,1.3334949999989476,1.5367199999963077,1.7903200000000652,2.0012249999999767,2.2022099999959437,2.4033849999977974,2.789394999999786,3.026050000000396,3.223744999995688,3.428424999998356,3.659084999999436,3.793639999996344,4.016039999995087,4.3164749999996275,4.578884999995353,4.804594999994151,5.036154999994324,5.317189999994184,5.534739999995395,5.75667999999871,6.020944999996573,6.3400649999966845,6.656454999996754,6.911114999995334,7.144634999996811,7.377260000001002,7.594554999996149,7.798244999998133,8.084109999996144,8.318735000000629,8.753014999994775,9.00547999999992,9.254254999999716,9.48958000000141,9.794174999995562,10.056489999995506,10.377195000000825,10.665105000000153,10.911814999999478,11.211510000001113,11.495159999998691,11.696629999998663,11.869435000000522]",space,0.632205,0.0,38.0,38.0,2.0,1.0,,,,,,,,,,,,,,
,,,,,,,,,,,block_1/medium_n_105_3.wav,no,n,medium,105.0,2.417465983,14.09955215,,,Yes,Ear Phone,1,No,M,28,R,Yes,1,2020-09-16_15h15.27.472,kura-A2,2020.1.2,Win32,60,,,"[""space"",""space"",""space"",""space"",""space"",""space"",""space"",""space"",""space"",""space"",""space"",""space"",""space"",""space"",""space"",""space"",""space"",""space"",""space"",""space"",""space"",""space"",""space"",""space"",""space"",""space"",""space"",""space"",""space"",""space"",""space"",""space"",""space"",""space"",""space"",""space"",""space"",""space"",""space"",""space"",""space"",""space""]","[0.514730000002487,0.8110999999988735,1.1294899999992367,1.3981899999999996,1.6643049999984214,1.920535000004861,2.205375000005006,2.4856700000017327,2.7449600000037435,3.0383900000015274,3.28993500000081,3.5785150000010617,3.8587800000024117,4.147349999999278,4.4453399999985095,4.729050000001621,5.018715000005727,5.301964999998631,5.59279000000231,5.873715000001425,6.153490000004126,6.440040000001318,6.72858000000258,7.00693999999919,7.309030000003986,7.584435000004191,7.862860000000978,8.112090000002468,8.3824900000036,8.634969999999157,8.89797499999986,9.172590000001946,9.456815000005122,9.719270000001416,9.971080000002985,10.243030000005206,10.523935000004712,10.791360000002896,11.059565000003204,11.311785000005216,11.565594999999917,11.828945000001113]",space,0.82878,0.0,39.0,39.0,0.0,1.0,,,,,,,,,,,,,,
,,,,,,,,,,,block_2/weak_t_119_3.wav,timbre,t,weak,119.0,2.134308914,11.54587354,,,Yes,Ear Phone,1,No,M,28,R,Yes,1,2020-09-16_15h15.27.472,kura-A2,2020.1.2,Win32,60,,,,,,,,,,,,space,112.24083,"[""space"",""space"",""space"",""space"",""space"",""space"",""space"",""space"",""space"",""space"",""space"",""space"",""space"",""space"",""space"",""space"",""space"",""space"",""space"",""space"",""space"",""space"",""space"",""space"",""space"",""space"",""space"",""space""]","[1.2638399999996182,1.5152749999981552,1.720354999997653,1.9504899999956251,2.100719999994908,2.435989999998128,2.7372600000016973,3.156634999999369,3.423664999995026,3.6929099999977097,3.9124899999951595,4.445130000000063,4.748039999998582,5.098579999998037,5.818654999995715,6.002509999998438,6.170030000001134,6.478324999996403,6.7915199999988545,7.146049999995512,7.479954999995243,7.796099999999569,8.233054999996966,8.485929999995278,8.614945000001171,8.983155000001716,9.150669999995444,9.485674999996263]",space,0.52526,0.0,0.0,0.0,13.0,1.0,,,
,,,,,,,,,,,block_2/medium_t_72_3.wav,timbre,t,medium,72.0,1.064285065,17.84451182,,,Yes,Ear Phone,1,No,M,28,R,Yes,1,2020-09-16_15h15.27.472,kura-A2,2020.1.2,Win32,60,,,,,,,,,,,,,,"[""space"",""space"",""space"",""space"",""space"",""space"",""space"",""space"",""space"",""space"",""space"",""space"",""space"",""space"",""space"",""space"",""space"",""space"",""space"",""space"",""space"",""space"",""space"",""space"",""space"",""space"",""space"",""space"",""space"",""space"",""space"",""space"",""space"",""space"",""space"",""space"",""space"",""space"",""space"",""space"",""space"",""space"",""space"",""space"",""space"",""space"",""space"",""space"",""space"",""space""]","[0.4267600000021048,0.678305000001501,0.9813649999996414,1.2168650000021444,1.6325199999992037,1.9836399999985588,2.1526949999970384,2.520745000001625,2.9239850000012666,3.33353999999963,3.725614999995969,4.094199999999546,4.480360000001383,4.814144999996643,5.153375000001688,5.535134999998263,5.919674999997369,6.291270000001532,6.675790000001371,6.814519999999902,7.241235000001325,7.393015000001242,7.761220000000321,8.064554999997199,8.364029999997001,8.751774999996996,9.08606499999587,9.469509999995353,9.821575000001985,10.206095000001369,10.544945000001462,11.042625000001863,11.377684999999474,11.751514999996289,11.947155000001658,12.348649999999907,12.633705000000191,12.986904999997932,13.177785000000085,13.789974999999686,14.007649999999558,14.442575000000943,14.910785000000033,15.34853999999882,15.563914999999042,15.852395000001707,15.99948500000005,16.422209999996994,16.670399999995652,16.82828000000154]",space,0.76142,0.0,1.0,1.0,31.0,1.0,,,
,,,,,,,,,,,block_2/medium_t_92_3.wav,timbre,t,medium,92.0,1.388240232,13.37372776,,,Yes,Ear Phone,1,No,M,28,R,Yes,1,2020-09-16_15h15.27.472,kura-A2,2020.1.2,Win32,60,,,,,,,,,,,,,,"[""space"",""space"",""space"",""space"",""space"",""space"",""space"",""space"",""space"",""space"",""space"",""space"",""space"",""space"",""space"",""space"",""space"",""space"",""space"",""space"",""space"",""space"",""space"",""space"",""space"",""space"",""space"",""space"",""space"",""space"",""space"",""space"",""space"",""space"",""space""]","[0.7452049999990322,0.9302900000036516,1.2304399999991347,1.7165999999995165,2.1193000000055235,2.57083000000398,3.0431349999996655,3.4812900000031277,3.9263600000047063,4.383410000001959,4.532970000000205,4.796939999999722,4.999885000004497,5.282750000005535,5.754885000002105,5.918714999999565,6.154125000000931,6.339915000003884,6.522390000005316,7.061190000000124,7.526499999999714,7.844575000002578,8.035880000002862,8.450645000003988,8.866690000002336,9.25315999999998,9.422774999998865,9.654000000002043,9.870580000002292,10.072275000005675,10.5571449999984,10.762620000001107,11.067455000003747,11.514135000004899,12.080950000002758]",space,0.49295,0.0,2.0,2.0,35.0,1.0,,,
,,,,,,,,,,,block_2/strong_t_92_4.wav,timbre,t,strong,92.0,1.817525361,14.05856845,,,Yes,Ear Phone,1,No,M,28,R,Yes,1,2020-09-16_15h15.27.472,kura-A2,2020.1.2,Win32,60,,,,,,,,,,,,,,"[""space"",""space"",""space"",""space"",""space"",""space"",""space"",""space"",""space"",""space"",""space"",""space"",""space"",""space"",""space"",""space"",""space"",""space"",""space""]","[0.9321799999963787,1.5671650000003865,2.2397950000013225,2.971575000003213,3.6752350000024308,4.311650000003283,4.980515000002924,5.600639999996929,6.219884999998612,6.855895000000601,7.494409999999334,8.11196999999811,8.71693499999651,9.452315000002272,10.072430000000168,10.71228500000143,11.39639000000193,12.01395500000217,12.616269999998622]",space,0.78431,0.0,3.0,3.0,9.0,1.0,,,
,,,,,,,,,,,block_2/weak_t_72_3.wav,timbre,t,weak,72.0,1.543417886,17.01208002,,,Yes,Ear Phone,1,No,M,28,R,Yes,1,2020-09-16_15h15.27.472,kura-A2,2020.1.2,Win32,60,,,,,,,,,,,,,,"[""space"",""space"",""space"",""space"",""space"",""space"",""space"",""space"",""space"",""space"",""space"",""space"",""space"",""space"",""space"",""space"",""space"",""space"",""space"",""space"",""space"",""space"",""space"",""space"",""space"",""space"",""space"",""space"",""space"",""space"",""space"",""space"",""space"",""space"",""space"",""space"",""space"",""space"",""space"",""space"",""space"",""space"",""space"",""space"",""space"",""space"",""space"",""space"",""space"",""space"",""space"",""space"",""space""]","[0.627810000005411,0.9967350000006263,1.2668250000060652,1.7828100000042468,2.1039850000015576,2.4528900000002523,2.8410350000051494,3.1758800000025076,3.5245400000058,3.8929150000039954,4.270200000006298,4.462135000001581,4.96795000000543,5.181440000000066,5.709710000002815,5.901920000003884,6.070105000006379,6.472200000003568,6.642570000003616,6.849240000003192,7.011835000004794,7.39344500000152,7.6599100000023554,8.079295000003185,8.263535000005504,8.49813500000164,8.684310000004189,8.901330000000598,9.105090000004566,9.31099499999982,9.503310000000056,9.724930000003951,9.907620000005409,10.126450000003388,10.34154000000126,10.576410000001488,11.228050000005169,11.46162500000355,11.66227500000241,11.863565000006929,12.068405000005441,12.583370000000286,13.08699500000489,13.497295000001031,13.891295000001264,14.040780000002997,14.249640000001818,14.44577500000014,14.843800000002375,15.01597000000038,15.40036500000133,15.542615000005753,15.814915000002657]",space,0.628435,0.0,4.0,4.0,26.0,1.0,,,
,,,,,,,,,,,block_2/none_t_119_4.wav,timbre,t,none,119.0,2.16972576,11.23222009,,,Yes,Ear Phone,1,No,M,28,R,Yes,1,2020-09-16_15h15.27.472,kura-A2,2020.1.2,Win32,60,,,,,,,,,,,,,,"[""space"",""space"",""space"",""space"",""space"",""space"",""space"",""space"",""space"",""space"",""space"",""space"",""space"",""space"",""space"",""space"",""space"",""space"",""space"",""space"",""space"",""space"",""space"",""space"",""space"",""space"",""space"",""space"",""space""]","[0.3480300000007901,0.6484500000005937,0.9136750000034226,1.1971950000006473,1.5148449999978766,1.9338250000000698,2.2531549999985145,2.352619999998069,2.5412399999984245,2.8377550000004703,3.0063149999987218,3.312050000000454,3.460624999999709,3.6426050000009127,4.067260000003444,4.277354999998352,4.714650000001711,4.913955000003398,5.204349999999977,5.534144999997807,6.005470000003697,6.321365000003425,6.839905000000726,7.341894999997976,7.676384999998845,7.9954849999996895,8.18205499999749,8.918035000002419,9.072310000003199]",space,1.431905,0.0,5.0,5.0,27.0,1.0,,,
,,,,,,,,,,,block_2/medium_t_81_4.wav,timbre,t,medium,81.0,2.313262111,15.10881767,,,Yes,Ear Phone,1,No,M,28,R,Yes,1,2020-09-16_15h15.27.472,kura-A2,2020.1.2,Win32,60,,,,,,,,,,,,,,"[""space"",""space"",""space"",""space"",""space"",""space"",""space"",""space"",""space"",""space"",""space"",""space"",""space"",""space"",""space"",""space"",""space"",""space"",""space"",""space"",""space"",""space"",""space"",""space"",""space"",""space"",""space"",""space"",""space"",""space"",""space"",""space"",""space"",""space"",""space"",""space"",""space"",""space"",""space"",""space""]","[0.4472699999969336,0.7112899999992806,0.8952549999955863,1.1824699999997392,1.549989999999525,1.9505849999984548,2.1851499999975204,2.4054800000014893,2.6701649999959045,2.9229399999967427,3.2425700000021607,3.7592749999967054,4.02706500000204,4.328629999996338,4.599920000000566,4.887750000001688,5.166104999996833,5.450259999998025,5.802709999996296,6.119845000001078,6.404660000000149,6.756690000001981,7.091769999999087,7.476454999996349,7.764615000000049,8.131289999997534,8.531405000001769,8.819770000001881,9.184999999997672,9.521759999995993,9.83771500000148,10.189249999995809,10.458375000001752,10.842160000000149,11.112495000001218,11.41105499999685,11.695614999996906,12.033980000000156,12.369469999997818,12.700584999998455]",space,0.39312,0.0,6.0,6.0,2.0,1.0,,,
,,,,,,,,,,,block_2/weak_t_72_4.wav,timbre,t,weak,72.0,1.41938316,17.89516547,,,Yes,Ear Phone,1,No,M,28,R,Yes,1,2020-09-16_15h15.27.472,kura-A2,2020.1.2,Win32,60,,,,,,,,,,,,,,"[""space"",""space"",""space"",""space"",""space"",""space"",""space"",""space"",""space"",""space"",""space"",""space"",""space"",""space"",""space"",""space"",""space"",""space"",""space"",""space"",""space"",""space"",""space"",""space"",""space"",""space"",""space"",""space"",""space"",""space"",""space"",""space"",""space"",""space"",""space"",""space"",""space"",""space"",""space"",""space"",""space"",""space"",""space"",""space"",""space"",""space"",""space"",""space"",""space"",""space"",""space"",""space"",""space"",""space""]","[0.46295999999711057,0.877574999998842,1.2660649999961606,1.4794150000016089,1.8981599999970058,2.2825549999979557,2.6368300000031013,3.0531600000031176,3.2422349999978906,3.823060000002215,4.0460149999998976,4.224809999999707,4.459560000002966,4.693894999996701,4.9281350000021575,5.1459800000011455,5.397069999999076,5.690320000001748,6.4116050000011455,6.63837500000227,7.054170000003069,7.305950000001758,7.5906099999992875,7.775345000001835,8.060004999999364,8.29566999999929,8.54551999999967,8.749629999998433,9.21824000000197,9.449359999998705,9.701795000000857,9.970674999997073,10.220314999998664,10.654809999999998,10.941554999997607,11.227854999997362,11.592210000002524,11.843175000001793,12.144860000000335,12.37329000000318,12.664095000000088,13.104169999998703,13.518284999998286,13.735489999999345,13.937395000000834,14.28779499999655,14.522870000000694,14.757955000000948,15.427315000000817,15.627580000000307,15.868734999996377,16.100854999996955,16.419950000003155,16.66700000000128]",space,0.76142,0.0,7.0,7.0,33.0,1.0,,,
,,,,,,,,,,,block_2/medium_t_105_4.wav,timbre,t,medium,105.0,1.80685877,13.54300389,,,Yes,Ear Phone,1,No,M,28,R,Yes,1,2020-09-16_15h15.27.472,kura-A2,2020.1.2,Win32,60,,,,,,,,,,,,,,"[""space"",""space"",""space"",""space"",""space"",""space"",""space"",""space"",""space"",""space"",""space"",""space"",""space"",""space"",""space"",""space"",""space"",""space"",""space"",""space"",""space"",""space"",""space"",""space"",""space"",""space"",""space"",""space"",""space"",""space"",""space"",""space"",""space"",""space"",""space"",""space"",""space"",""space"",""space"",""space"",""space"",""space"",""space""]","[0.597074999997858,1.0305950000038138,1.3646650000009686,1.6862750000000233,1.8686349999989034,2.3402599999972153,2.524154999999155,2.8790999999982887,3.2236100000009174,3.575205000001006,3.76017999999749,3.977520000000368,4.165450000000419,4.430095000003348,4.6134450000026845,4.848245000001043,5.018210000002227,5.216209999998682,5.4341199999980745,5.6351250000006985,6.087169999998878,6.242715000000317,6.655865000000404,6.858554999998887,7.060004999999137,7.477944999998726,7.981664999999339,8.314084999998158,8.648000000001048,8.968930000002729,9.21813000000111,9.576379999998608,9.755049999999528,9.990785000001779,10.171950000003562,10.423365000002377,10.594170000003942,10.858735000001616,11.060275000003458,11.262360000000626,11.495139999999083,11.68304999999964,11.900005000003148]",space,0.443025,0.0,8.0,8.0,23.0,1.0,,,
,,,,,,,,,,,block_2/none_t_119_3.wav,timbre,t,none,119.0,1.207484261,12.32644118,,,Yes,Ear Phone,1,No,M,28,R,Yes,1,2020-09-16_15h15.27.472,kura-A2,2020.1.2,Win32,60,,,,,,,,,,,,,,"[""space"",""space"",""space"",""space"",""space"",""space"",""space"",""space"",""space"",""space"",""space"",""space"",""space"",""space"",""space"",""space"",""space"",""space"",""space"",""space"",""space"",""space"",""space"",""space"",""space"",""space"",""space"",""space"",""space"",""space"",""space"",""space"",""space"",""space"",""space"",""space""]","[0.5113899999996647,0.8151950000028592,1.3214900000020862,1.484230000001844,1.655285000000731,1.8336849999977858,2.2699300000019775,2.453325000001996,2.654114999997546,2.8385449999984758,3.0558600000003935,3.242510000003449,3.4910450000024866,3.9940700000006473,4.295035000002827,4.4794699999984005,4.685010000001057,4.91932000000088,5.303019999999378,5.5007150000019465,6.0540449999971315,6.4557500000009895,6.688630000004196,7.091144999998505,7.47671000000264,7.629495000001043,7.895244999999704,8.097029999996948,8.296699999998737,8.485365000000456,8.690034999999853,9.134315000002971,9.511230000003707,10.105779999998049,10.322919999998476,11.127355000004172]",space,0.64763,0.0,9.0,9.0,32.0,1.0,,,
,,,,,,,,,,,block_2/strong_t_72_3.wav,timbre,t,strong,72.0,1.757165856,18.23458082,,,Yes,Ear Phone,1,No,M,28,R,Yes,1,2020-09-16_15h15.27.472,kura-A2,2020.1.2,Win32,60,,,,,,,,,,,,,,"[""space"",""space"",""space"",""space"",""space"",""space"",""space"",""space"",""space"",""space"",""space"",""space"",""space"",""space"",""space"",""space"",""space"",""space"",""space"",""space""]","[0.4615200000041568,1.198620000003075,2.0097250000033,2.8571300000039628,3.6461850000050617,4.478860000002896,5.26590500000043,6.104995000001509,6.974110000002611,7.8123100000009345,8.635610000004817,9.43536000000313,10.256090000002814,11.062680000002729,11.813160000005155,12.667770000000019,13.537690000004659,14.409155000001192,15.24809000000073,16.167035000005853]",space,0.81118,0.0,10.0,10.0,5.0,1.0,,,
,,,,,,,,,,,block_2/none_t_72_4.wav,timbre,t,none,72.0,1.053800106,24.75334659,,,Yes,Ear Phone,1,No,M,28,R,Yes,1,2020-09-16_15h15.27.472,kura-A2,2020.1.2,Win32,60,,,,,,,,,,,,,,"[""space"",""space"",""space"",""space"",""space"",""space"",""space"",""space"",""space"",""space"",""space"",""space"",""space"",""space"",""space"",""space"",""space"",""space"",""space"",""space"",""space"",""space"",""space"",""space"",""space"",""space"",""space"",""space"",""space"",""space"",""space"",""space"",""space"",""space"",""space"",""space"",""space"",""space"",""space"",""space"",""space"",""space"",""space"",""space"",""space"",""space"",""space"",""space"",""space"",""space"",""space"",""space"",""space"",""space"",""space"",""space"",""space"",""space"",""space"",""space"",""space"",""space"",""space"",""space"",""space"",""space"",""space"",""space"",""space"",""space"",""space"",""space"",""space"",""space"",""space"",""space"",""space"",""space"",""space"",""space"",""space"",""space"",""space"",""space"",""space"",""space"",""space"",""space"",""space"",""space""]","[0.36329499999533255,0.628799999998364,0.9291299999965759,1.3478599999941707,1.6374599999981,1.953714999995782,2.285465000000613,2.6103449999936856,2.955349999996315,3.293719999993982,3.608119999996916,3.9119999999963966,4.180280000000039,4.433164999994915,4.7133399999945595,5.014389999996183,5.317449999994778,5.618054999998549,5.919209999999794,6.220419999997375,6.556304999998019,6.924299999998539,7.20791499999882,7.50999499999989,7.79393499999378,8.097624999994878,8.39740499999607,8.664729999996553,8.888169999998127,9.126749999995809,9.364444999999023,9.536269999996648,9.757789999995794,10.041514999996934,10.29230999999686,10.540385000000242,10.791864999999007,11.03097999999568,11.294714999995904,11.54578499999434,11.814930000000231,12.11601499999938,12.399054999994178,12.65060499999504,12.869449999998324,13.089244999995344,13.325964999995904,13.537249999993946,13.838654999999108,14.07332499999734,14.28998999999726,14.524849999994103,14.778879999998026,14.976994999997032,15.213304999997263,15.447049999994988,15.688894999998865,15.93528499999934,16.16769499999623,16.434189999999944,16.685474999998178,16.93700999999419,17.18809999999894,17.44355999999948,17.723644999997987,17.926419999995915,18.175479999997833,18.427199999998038,18.664140000000543,18.916944999996986,19.148320000000012,19.381594999998697,19.632415000000037,19.87095999999974,20.11791999999673,20.336999999999534,20.556514999996352,20.789505000000418,20.97766999999999,21.22324499999354,21.495100000000093,21.758979999998473,22.015379999997094,22.2638499999955,22.533899999994674,22.76312499999767,23.01460999999813,23.24974499999348,23.516909999998234,23.768234999995457]",space,4.3277,0.0,11.0,11.0,15.0,1.0,,,
,,,,,,,,,,,block_2/medium_t_105_3.wav,timbre,t,medium,105.0,1.319167427,12.09599282,,,Yes,Ear Phone,1,No,M,28,R,Yes,1,2020-09-16_15h15.27.472,kura-A2,2020.1.2,Win32,60,,,,,,,,,,,,,,"[""space"",""space"",""space"",""space"",""space"",""space"",""space"",""space"",""space"",""space"",""space"",""space"",""space"",""space"",""space"",""space"",""space"",""space"",""space"",""space"",""space"",""space"",""space"",""space"",""space"",""space"",""space"",""space"",""space""]","[0.6272150000004331,0.9963149999966845,1.3173849999948288,1.6486650000006193,1.9165799999971114,2.033269999999902,2.2694649999973535,2.83748999999807,3.2394599999970524,3.60787999999593,3.8282449999969685,4.23090499999671,4.5785350000005565,4.850859999998647,5.282224999995378,5.458139999995183,6.006914999998116,6.404024999996182,6.590104999995674,6.782004999993887,7.107734999997774,7.609114999999292,8.296744999999646,8.836499999997613,9.284399999996822,9.719979999994393,9.98724499999662,10.556604999998171,11.026094999993802]",space,1.448385,0.0,12.0,12.0,16.0,1.0,,,
,,,,,,,,,,,block_2/weak_t_92_4.wav,timbre,t,weak,92.0,2.338363624,13.8208126,,,Yes,Ear Phone,1,No,M,28,R,Yes,1,2020-09-16_15h15.27.472,kura-A2,2020.1.2,Win32,60,,,,,,,,,,,,,,"[""space"",""space"",""space"",""space"",""space"",""space"",""space"",""space"",""space"",""space"",""space"",""space"",""space"",""space"",""space"",""space"",""space"",""space"",""space"",""space"",""space"",""space"",""space"",""space"",""space"",""space"",""space"",""space"",""space"",""space"",""space"",""space"",""space"",""space""]","[0.631905000002007,1.11333000000036,1.4169000000038068,1.6996100000033039,1.9389050000027055,2.3223350000043865,2.888200000001234,3.041875000002392,3.473855000003823,3.86056500000268,4.043465000002243,4.244785000002594,4.479084999999031,5.219885000006116,5.4168400000053225,5.60436000000459,5.8374949999997625,6.07227000000421,6.322165000005043,6.510464999999385,6.79459499999939,7.047120000002906,7.308920000003127,8.164455000005546,8.715405000002875,8.950420000001031,9.150600000000622,9.436035000006086,10.244604999999865,10.673655000005965,10.887610000005225,11.095600000000559,11.344495000005054,11.57854000000225]",space,0.46007,0.0,13.0,13.0,29.0,1.0,,,
,,,,,,,,,,,block_2/medium_t_81_3.wav,timbre,t,medium,81.0,1.280563259,13.87394194,,,Yes,Ear Phone,1,No,M,28,R,Yes,1,2020-09-16_15h15.27.472,kura-A2,2020.1.2,Win32,60,,,,,,,,,,,,,,"[""space"",""space"",""space"",""space"",""space"",""space"",""space"",""space"",""space"",""space"",""space"",""space"",""space"",""space"",""space"",""space"",""space"",""space"",""space"",""space"",""space"",""space"",""space"",""space"",""space"",""space"",""space"",""space"",""space"",""space"",""space"",""space"",""space"",""space"",""space"",""space"",""space"",""space"",""space"",""space"",""space"",""space""]","[0.5776449999978013,0.8491950000027373,1.265169999999216,1.5139500000007047,1.687279999998509,1.9384300000021994,2.2050699999967946,2.4176200000003973,2.707979999999452,2.9426749999984168,3.228295000001026,3.4912600000027396,3.6990349999978207,4.028375000001915,4.345020000000886,4.600720000002411,4.971449999997503,5.2990250000004835,5.603244999998651,5.869765000003326,6.354885000000877,6.643199999998842,6.991945000001806,7.191395000002103,7.515554999998358,7.727005000000872,8.129139999997506,8.300694999998314,8.514895000000706,8.706415000000788,9.11680499999784,9.385255000001507,9.587034999997059,9.870895000000019,10.071835000002693,10.372669999997242,10.76649999999836,11.108925000000681,11.395620000003191,11.696185000000924,12.288469999999961,12.668839999998454]",space,0.56042,0.0,14.0,14.0,8.0,1.0,,,
,,,,,,,,,,,block_2/none_t_81_3.wav,timbre,t,none,81.0,2.3234515,21.58667145,,,Yes,Ear Phone,1,No,M,28,R,Yes,1,2020-09-16_15h15.27.472,kura-A2,2020.1.2,Win32,60,,,,,,,,,,,,,,"[""space"",""space"",""space"",""space"",""space"",""space"",""space"",""space"",""space"",""space"",""space"",""space"",""space"",""space"",""space"",""space"",""space"",""space"",""space"",""space"",""space"",""space"",""space"",""space"",""space"",""space"",""space"",""space"",""space"",""space"",""space"",""space"",""space"",""space"",""space"",""space"",""space"",""space"",""space"",""space"",""space"",""space"",""space"",""space"",""space"",""space"",""space"",""space"",""space"",""space"",""space"",""space"",""space"",""space"",""space"",""space"",""space"",""space"",""space"",""space"",""space"",""space""]","[0.5778900000002523,0.8292499999949996,1.2309749999983524,1.5325000000011642,2.2021699999968405,2.3700949999984005,2.5535999999995056,3.225314999996044,3.592174999997951,3.9273150000008172,4.297610000001441,4.6185849999965285,5.166529999994964,5.355109999996785,5.701535000000149,6.07121999999822,6.256079999999201,6.8443199999965145,7.208675000001676,7.412884999997914,7.610815000000002,8.014510000000882,8.249749999995402,8.648209999999153,9.452229999995325,9.786424999998417,10.156514999995352,10.330509999999776,10.559239999995043,10.761044999999285,10.977044999999634,11.211185000000114,11.444940000000997,11.679319999995641,11.930475000001024,12.20085999999742,12.39957499999582,12.653884999999718,12.918870000001334,13.157914999996137,13.391680000000633,13.588049999998475,13.805779999995138,14.006405000000086,14.207454999996116,14.377314999997907,14.560579999997572,14.777009999997972,14.963174999997364,15.179599999995844,15.54749499999889,15.78652499999589,16.25085499999841,16.635730000001786,16.853279999995948,17.288684999999532,17.526184999995166,17.74647499999992,18.362150000000838,18.9641599999959,19.13278999999602,19.36877999999706]",space,0.47738,0.0,15.0,15.0,10.0,1.0,,,
,,,,,,,,,,,block_2/medium_t_119_3.wav,timbre,t,medium,119.0,1.894752713,10.65330147,,,Yes,Ear Phone,1,No,M,28,R,Yes,1,2020-09-16_15h15.27.472,kura-A2,2020.1.2,Win32,60,,,,,,,,,,,,,,"[""space"",""space"",""space"",""space"",""space"",""space"",""space"",""space"",""space"",""space"",""space"",""space"",""space"",""space"",""space"",""space"",""space"",""space"",""space"",""space"",""space"",""space"",""space"",""space"",""space"",""space"",""space""]","[0.4471049999992829,0.6637950000003912,1.079845000000205,1.3984899999993559,1.7913400000031743,2.151610000000801,2.6703399999969406,2.8574050000024727,3.240704999996524,3.759219999999914,3.9633800000010524,4.361620000003313,4.729675000002317,4.930135000002338,5.135305000003427,5.851300000002084,6.236980000001495,6.69349499999953,7.029600000001665,7.4424700000017765,7.643819999997504,7.843744999998535,8.045350000000326,8.279694999997446,8.464289999996254,8.681525000000192,8.91820000000007]",space,1.169045,0.0,16.0,16.0,37.0,1.0,,,
,,,,,,,,,,,block_2/strong_t_105_4.wav,timbre,t,strong,105.0,1.910106179,12.02788396,,,Yes,Ear Phone,1,No,M,28,R,Yes,1,2020-09-16_15h15.27.472,kura-A2,2020.1.2,Win32,60,,,,,,,,,,,,,,"[""space"",""space"",""space"",""space"",""space"",""space"",""space"",""space"",""space"",""space"",""space"",""space"",""space"",""space"",""space"",""space"",""space"",""space"",""space"",""space""]","[0.8005699999994249,1.330950000003213,1.817380000000412,2.3069350000005215,2.8221950000006473,3.341730000000098,3.8603599999987637,4.378160000000207,4.867429999998421,5.383464999998978,5.835409999999683,6.389170000002423,6.875430000000051,7.359779999998864,7.881300000000692,8.372784999999567,8.885450000001583,9.435915000002069,9.907469999998511,10.423705000001064]",space,0.98405,0.0,17.0,17.0,18.0,1.0,,,
,,,,,,,,,,,block_2/weak_t_81_3.wav,timbre,t,weak,81.0,1.745235196,18.01484971,,,Yes,Ear Phone,1,No,M,28,R,Yes,1,2020-09-16_15h15.27.472,kura-A2,2020.1.2,Win32,60,,,,,,,,,,,,,,"[""space"",""space"",""space"",""space"",""space"",""space"",""space"",""space"",""space"",""space"",""space"",""space"",""space"",""space"",""space"",""space"",""space"",""space"",""space"",""space"",""space"",""space"",""space"",""space"",""space"",""space"",""space"",""space"",""space"",""space"",""space"",""space"",""space"",""space"",""space"",""space"",""space"",""space"",""space"",""space"",""space"",""space"",""space""]","[0.4094800000025316,0.5937050000065938,1.011815000005754,1.3330500000013217,2.1347750000061296,2.3191850000007435,2.706030000001192,3.088695000006055,3.42477000000531,3.607840000004444,4.213905000004388,4.704170000004751,5.968965000000253,6.339825000003202,6.52452000000676,6.722500000003947,7.295665000005329,7.445705000005773,7.6470300000003135,7.850205000002688,8.279070000004367,8.647665000004281,8.821005000005698,9.870980000006966,10.053220000001602,10.27182000000198,10.908415000005562,11.327225000001135,11.78272000000311,11.996500000001333,12.38532000000123,12.598905000006425,12.787335000000894,13.201760000003787,13.742540000006557,13.942430000003014,14.425450000002684,14.624980000000733,15.042865000003303,15.481900000006362,16.00046500000485,16.142310000003135,16.383635000006052]",space,0.829355,0.0,18.0,18.0,6.0,1.0,,,
,,,,,,,,,,,block_2/medium_t_119_4.wav,timbre,t,medium,119.0,2.1713947,11.99221103,,,Yes,Ear Phone,1,No,M,28,R,Yes,1,2020-09-16_15h15.27.472,kura-A2,2020.1.2,Win32,60,,,,,,,,,,,,,,"[""space"",""space"",""space"",""space"",""space"",""space"",""space"",""space"",""space"",""space"",""space"",""space"",""space"",""space"",""space"",""space"",""space"",""space"",""space"",""space"",""space"",""space"",""space"",""space"",""space"",""space"",""space"",""space"",""space"",""space"",""space"",""space"",""space"",""space"",""space"",""space"",""space"",""space"",""space"",""space""]","[0.7949650000011843,1.0498200000001816,1.2971549999999752,1.532079999996995,1.8683749999981956,2.0036899999977322,2.469389999998384,2.814569999995001,2.972504999997909,3.1410550000000512,3.648645000001352,3.7964199999987613,3.9931999999971595,4.193970000000263,4.529054999999062,4.713189999994938,5.048969999996416,5.399274999995896,5.550414999998111,5.694465000000719,5.868934999998373,6.220710000001418,6.5247549999985495,6.67177499999525,6.857389999997395,7.1782749999983935,7.3585299999977,7.514149999995652,7.71698499999934,7.878209999995306,8.028704999997217,8.379209999999148,8.56725500000175,8.682309999996733,8.88667500000156,9.00306499999715,9.402044999995269,9.757194999998319,9.907415000001492,10.110734999994747]",space,0.40965,0.0,19.0,19.0,30.0,1.0,,,
,,,,,,,,,,,block_2/medium_t_92_4.wav,timbre,t,medium,92.0,1.599417172,14.59601581,,,Yes,Ear Phone,1,No,M,28,R,Yes,1,2020-09-16_15h15.27.472,kura-A2,2020.1.2,Win32,60,,,,,,,,,,,,,,"[""space"",""space"",""space"",""space"",""space"",""space"",""space"",""space"",""space"",""space"",""space"",""space"",""space"",""space"",""space"",""space"",""space"",""space"",""space"",""space"",""space"",""space"",""space"",""space"",""space"",""space"",""space"",""space"",""space"",""space"",""space"",""space"",""space"",""space"",""space"",""space"",""space"",""space"",""space"",""space"",""space"",""space""]","[0.39398500000243075,0.6780549999966752,0.8957599999994272,1.08357000000251,1.4510799999989104,1.634330000000773,1.8248600000008537,2.176390000000538,2.343489999999292,2.7041000000026543,3.0502199999973527,3.5735300000017105,3.7760249999992084,3.9431750000001102,4.345119999998133,4.546954999997979,4.747134999997797,4.948745000001509,5.316539999999804,5.500240000000986,5.700369999998657,6.236974999999802,6.429750000002969,6.975879999998142,7.17558000000281,7.5943949999998495,7.79462500000227,8.296649999996589,8.505705000003218,8.73213499999838,9.152219999996532,9.393445000001748,9.586114999998244,9.827429999997548,10.071819999997388,10.289375000000518,10.545035000002827,10.774494999997614,11.026395000001003,11.816599999998061,12.482765000000427,12.683015000002342]",space,0.47908,0.0,20.0,20.0,25.0,1.0,,,
,,,,,,,,,,,block_2/weak_t_119_4.wav,timbre,t,weak,119.0,2.497661912,13.1066415,,,Yes,Ear Phone,1,No,M,28,R,Yes,1,2020-09-16_15h15.27.472,kura-A2,2020.1.2,Win32,60,,,,,,,,,,,,,,"[""space"",""space"",""space"",""space"",""space"",""space"",""space"",""space"",""space"",""space"",""space"",""space"",""space"",""space"",""space"",""space"",""space"",""space"",""space"",""space"",""space"",""space"",""space"",""space"",""space"",""space"",""space"",""space"",""space"",""space"",""space"",""space"",""space"",""space"",""space""]","[0.41021500000351807,0.6273149999976795,0.8116149999987101,1.6315749999994296,1.8172600000034436,2.251315000001341,2.7707850000006147,3.348044999998592,3.574525000003632,3.8941800000029616,4.210364999999001,4.478750000002037,4.779414999997243,5.0475900000019465,5.299090000000433,5.583904999999504,5.854780000001256,6.157030000002123,6.423784999998816,6.690974999997707,6.9641649999975925,7.227675000001909,7.512360000000399,7.810545000000275,8.096044999998412,8.346620000004123,8.597764999998617,8.848855000003823,9.103280000002997,9.367799999999988,9.61836000000062,9.886960000003455,10.162385000003269,10.444455000004382,10.695825000002515]",space,0.44401,0.0,21.0,21.0,11.0,1.0,,,
,,,,,,,,,,,block_2/weak_t_81_4.wav,timbre,t,weak,81.0,1.138387897,14.33417021,,,Yes,Ear Phone,1,No,M,28,R,Yes,1,2020-09-16_15h15.27.472,kura-A2,2020.1.2,Win32,60,,,,,,,,,,,,,,"[""space"",""space"",""space"",""space"",""space"",""space"",""space"",""space"",""space"",""space"",""space"",""space"",""space"",""space"",""space"",""space"",""space"",""space"",""space"",""space"",""space"",""space"",""space"",""space"",""space"",""space"",""space"",""space""]","[0.5476899999994203,0.8999100000000908,1.3313349999953061,1.917154999995546,2.502970000001369,3.0720349999976406,3.659029999995255,4.1999849999992875,4.747884999997268,5.432389999994484,6.019869999996672,6.6587949999957345,7.308384999996633,7.978614999999991,8.682189999999764,9.234389999997802,9.771769999999151,10.122080000001006,10.42276000000129,10.657509999997046,10.90928499999427,11.143644999996468,11.378049999999348,11.628844999999274,11.880734999998822,12.16848499999469,13.085914999996021,13.519645000000082]",space,0.89474,0.0,22.0,22.0,0.0,1.0,,,
,,,,,,,,,,,block_2/weak_t_105_4.wav,timbre,t,weak,105.0,1.205192231,12.73516956,,,Yes,Ear Phone,1,No,M,28,R,Yes,1,2020-09-16_15h15.27.472,kura-A2,2020.1.2,Win32,60,,,,,,,,,,,,,,"[""space"",""space"",""space"",""space"",""space"",""space"",""space"",""space"",""space"",""space"",""space"",""space"",""space"",""space"",""space"",""space"",""space"",""space"",""space"",""space"",""space"",""space"",""space"",""space"",""space"",""space"",""space"",""space"",""space"",""space"",""space"",""space"",""space"",""space"",""space"",""space"",""space""]","[0.46060500000066895,0.7452800000032767,1.030815000005532,1.318534999998974,1.616580000002159,1.9211050000014893,2.2045350000046255,2.472950000003266,2.757505000001629,3.0472250000022996,3.324100000005501,3.5923400000033325,3.860345000001189,4.127350000002707,4.413375000003725,4.696195000004309,4.980965000002698,5.29009500000393,5.60036000000423,5.936150000001589,6.269489999998996,6.588700000000472,6.922865000000911,7.241784999998572,7.548310000005813,7.8656350000021575,8.1658450000034,8.480450000003202,8.78237500000273,9.066955000002281,9.384685000004765,9.702915000002122,10.024629999999888,10.3059399999986,10.941449999998667,11.243350000004284,11.595010000004777]",space,0.763265,0.0,23.0,23.0,7.0,1.0,,,
,,,,,,,,,,,block_2/none_t_105_4.wav,timbre,t,none,105.0,1.723889958,15.53967227,,,Yes,Ear Phone,1,No,M,28,R,Yes,1,2020-09-16_15h15.27.472,kura-A2,2020.1.2,Win32,60,,,,,,,,,,,,,,"[""space"",""space"",""space"",""space"",""space"",""space"",""space"",""space"",""space"",""space"",""space"",""space"",""space"",""space"",""space"",""space"",""space"",""space"",""space"",""space"",""space"",""space"",""space"",""space"",""space"",""space"",""space"",""space"",""space"",""space"",""space"",""space"",""space"",""space"",""space"",""space"",""space"",""space"",""space"",""space"",""space"",""space"",""space"",""space"",""space"",""space"",""space"",""space"",""space"",""space"",""space"",""space""]","[0.44853999999736516,0.7291299999997136,0.9806899999966845,1.230049999998073,1.5148499999995693,1.765674999995099,2.0173049999939394,2.2854850000003353,2.521134999995411,2.7884399999966263,3.0553949999957695,3.340544999999338,3.5933249999943655,3.8585949999978766,4.1276749999960884,4.400394999996934,4.665344999993977,4.947430000000168,5.214929999994638,5.501009999999951,5.726759999997739,6.036354999996547,6.306099999994331,6.587374999995518,6.827124999995931,7.111464999994496,7.375739999995858,7.677179999998771,7.911464999997179,8.151480000000447,8.413714999995136,8.664479999999458,8.899399999994785,9.133154999995895,9.370810000000347,9.618629999997438,9.907479999994393,10.373349999994161,10.625694999995176,10.908179999998538,11.143049999998539,11.399219999999332,11.661304999994172,11.91309999999794,12.184974999996712,12.482429999996384,12.725394999994023,12.986794999997073,13.236174999998184,13.504189999999653,13.77212999999756,14.090604999997595]",space,0.735295,0.0,24.0,24.0,20.0,1.0,,,
,,,,,,,,,,,block_2/none_t_105_3.wav,timbre,t,none,105.0,1.906849656,15.72757528,,,Yes,Ear Phone,1,No,M,28,R,Yes,1,2020-09-16_15h15.27.472,kura-A2,2020.1.2,Win32,60,,,,,,,,,,,,,,"[""space"",""space"",""space"",""space"",""space"",""space"",""space"",""space"",""space"",""space"",""space"",""space"",""space"",""space"",""space"",""space"",""space"",""space"",""space"",""space"",""space"",""space"",""space"",""space"",""space"",""space"",""space"",""space"",""space"",""space"",""space"",""space"",""space"",""space"",""space"",""space"",""space"",""space"",""space"",""space"",""space"",""space"",""space"",""space"",""space"",""space"",""space"",""space"",""space"",""space"",""space"",""space"",""space"",""space"",""space"",""space"",""space"",""space""]","[0.5273650000019643,0.795115000001033,1.0141000000007807,1.26757499999826,1.5168599999963135,1.7555649999994785,2.0008799999998246,2.2193499999998494,2.4566699999998036,2.707275000000891,2.938419999998814,3.189234999998007,3.432130000001507,3.679844999998977,3.926119999996672,4.162375000000111,4.394959999998036,4.629399999998213,4.850149999998621,5.081764999995585,5.316144999997277,5.554214999996702,5.7844750000006115,6.004759999996395,6.238870000001043,6.465124999995396,6.689870000001974,6.913670000001957,7.140964999999142,7.360365000000911,7.594169999996666,7.8287500000008095,8.048199999997678,8.296365000002197,8.530869999995275,8.782034999996768,8.991880000001629,9.233524999996234,9.46902499999851,9.694374999999354,9.921360000000504,10.156015000000707,10.390594999997347,10.609414999999217,10.841650000002346,11.093240000002197,11.314070000000584,11.511440000002494,11.762454999996635,11.997080000001006,12.231074999996281,12.452924999998004,12.685794999997597,12.935109999998758,13.154230000000325,13.394569999996975,13.640755000000354,13.874060000001919]",space,0.71239,0.0,25.0,25.0,14.0,1.0,,,
,,,,,,,,,,,block_2/none_t_81_4.wav,timbre,t,none,81.0,1.883383873,17.9242909,,,Yes,Ear Phone,1,No,M,28,R,Yes,1,2020-09-16_15h15.27.472,kura-A2,2020.1.2,Win32,60,,,,,,,,,,,,,,"[""space"",""space"",""space"",""space"",""space"",""space"",""space"",""space"",""space"",""space"",""space"",""space"",""space"",""space"",""space"",""space"",""space"",""space"",""space"",""space"",""space"",""space"",""space"",""space"",""space"",""space"",""space"",""space"",""space"",""space"",""space"",""space"",""space"",""space"",""space"",""space"",""space"",""space"",""space"",""space"",""space"",""space"",""space"",""space"",""space"",""space"",""space"",""space"",""space"",""space"",""space"",""space"",""space"",""space"",""space"",""space"",""space"",""space"",""space"",""space"",""space"",""space"",""space"",""space"",""space""]","[0.3268099999986589,0.5637600000045495,0.7985300000000279,1.0324000000036904,1.264500000004773,1.50194999999826,1.7494250000017928,1.9847950000039418,2.203959999998915,2.4544050000040443,2.675465000000031,2.9087199999996756,3.15655500000139,3.3746549999996205,3.6085800000000745,3.859730000003765,4.098369999999704,4.362079999998969,4.620739999998477,4.880935000001045,5.151855000003707,5.417074999997794,5.694015000000945,5.944045000004053,6.205195000002277,6.472025000002759,6.739560000001802,6.991340000000719,7.242194999998901,7.50997500000085,7.714755000000878,7.945229999997537,8.280194999999367,8.63520000000426,8.949840000001132,9.17075499999919,9.420279999998456,9.685754999998608,9.921889999997802,10.159550000003719,10.423150000002352,10.67496000000392,10.910909999998466,11.1443700000018,11.412075000000186,11.695100000004686,11.938585000003513,12.187855000003765,12.466225000003533,12.7184350000025,12.939015000003792,13.170095000001538,13.386415000000852,13.605329999998503,13.825754999998026,14.057415000002948,14.25855500000057,14.475174999999581,14.692455000004202,14.946454999997513,15.145219999998744,15.345840000001772,15.5838399999991,15.799400000003516,16.049220000000787]",space,0.530315,0.0,26.0,26.0,12.0,1.0,,,
,,,,,,,,,,,block_2/strong_t_119_3.wav,timbre,t,strong,119.0,2.177542179,13.00520658,,,Yes,Ear Phone,1,No,M,28,R,Yes,1,2020-09-16_15h15.27.472,kura-A2,2020.1.2,Win32,60,,,,,,,,,,,,,,"[""space"",""space"",""space"",""space"",""space"",""space"",""space"",""space"",""space"",""space"",""space"",""space"",""space"",""space"",""space"",""space"",""space"",""space"",""space""]","[0.945930000001681,1.514445000000478,2.100995000000694,2.706644999998389,3.242209999996703,3.811325000002398,4.395875000001979,4.9137899999986985,5.5173199999990175,6.118844999997236,6.673194999995758,7.276034999995318,7.861095000000205,8.383739999997488,8.949155000001838,9.518754999997327,10.090589999999565,10.62519500000053,11.17562999999791]",space,0.577385,0.0,27.0,27.0,28.0,1.0,,,
,,,,,,,,,,,block_2/weak_t_105_3.wav,timbre,t,weak,105.0,1.911505731,13.14248079,,,Yes,Ear Phone,1,No,M,28,R,Yes,1,2020-09-16_15h15.27.472,kura-A2,2020.1.2,Win32,60,,,,,,,,,,,,,,"[""space"",""space"",""space"",""space"",""space"",""space"",""space"",""space"",""space"",""space"",""space"",""space"",""space"",""space"",""space"",""space"",""space"",""space"",""space"",""space"",""space"",""space"",""space"",""space"",""space"",""space"",""space"",""space"",""space"",""space"",""space"",""space""]","[0.39356499999826156,0.6618850000015755,1.1157749999983935,1.364289999997709,1.631929999995691,1.9001749999952153,2.1672849999956725,2.438674999997602,2.7235299999956624,2.988344999997935,3.26109500000166,3.694599999995262,3.9933850000013535,4.32785000000149,4.6463399999991,4.947759999995469,5.256345000001602,5.571980000000849,5.891719999999623,6.186294999999518,6.505274999996118,6.822554999998829,7.191259999999602,7.810349999999744,8.114159999997355,8.464809999997442,10.004024999994499,10.305444999998372,10.556759999999713,10.794519999995828,11.05898999999772,11.292985000000272]",space,0.648385,0.0,28.0,28.0,4.0,1.0,,,
,,,,,,,,,,,block_2/none_t_72_3.wav,timbre,t,none,72.0,1.763210745,21.95785927,,,Yes,Ear Phone,1,No,M,28,R,Yes,1,2020-09-16_15h15.27.472,kura-A2,2020.1.2,Win32,60,,,,,,,,,,,,,,"[""space"",""space"",""space"",""space"",""space"",""space"",""space"",""space"",""space"",""space"",""space"",""space"",""space"",""space"",""space"",""space"",""space"",""space"",""space"",""space"",""space"",""space"",""space"",""space"",""space"",""space"",""space"",""space"",""space"",""space"",""space"",""space"",""space"",""space"",""space"",""space"",""space"",""space"",""space"",""space"",""space"",""space"",""space"",""space"",""space"",""space"",""space"",""space"",""space"",""space"",""space"",""space"",""space"",""space"",""space"",""space"",""space"",""space"",""space"",""space"",""space"",""space"",""space"",""space"",""space"",""space"",""space"",""space"",""space""]","[0.3766899999970974,0.6459350000006907,0.862704999999778,1.1295099999988452,1.3663349999987986,1.6173099999939495,1.8747000000003027,2.1685099999958766,2.456500000000233,2.7716099999961443,3.072184999997262,3.339399999997113,3.590744999994058,3.879079999998794,4.164684999996098,4.4618049999990035,4.763659999996889,5.048904999996239,5.349145000000135,5.651259999998729,5.9684300000005805,6.2555649999994785,6.537894999994023,6.844464999994898,7.510054999998829,7.780909999994265,8.048530000000028,8.348285000000033,8.647489999995514,8.936009999997395,9.225539999999455,9.501724999994622,9.78639499999531,10.008719999997993,10.307854999999108,10.595659999999043,10.975389999999834,11.258920000000217,11.565319999994244,12.138759999994136,12.417770000000019,12.699259999993956,12.953764999998384,13.219334999994544,13.457749999993894,13.7549699999945,14.022789999995439,14.392629999994824,14.675574999993614,15.195039999998698,15.434679999998252,15.68401499999868,15.953314999998838,16.216444999998203,16.468049999995856,16.721599999997125,17.05546499999764,17.321814999995922,17.56540499999369,17.807474999994156,18.041919999996026,18.427834999994957,18.677799999997433,18.9123299999992,19.18028499999491,19.43073499999423,19.716229999998177,19.95099499999924,20.251624999997375]",space,5.289985,0.0,29.0,29.0,19.0,1.0,,,
,,,,,,,,,,,block_2/weak_t_92_3.wav,timbre,t,weak,92.0,1.995389518,17.35720358,,,Yes,Ear Phone,1,No,M,28,R,Yes,1,2020-09-16_15h15.27.472,kura-A2,2020.1.2,Win32,60,,,,,,,,,,,,,,"[""space"",""space"",""space"",""space"",""space"",""space"",""space"",""space"",""space"",""space"",""space"",""space"",""space"",""space"",""space"",""space"",""space"",""space"",""space"",""space"",""space"",""space"",""space"",""space"",""space"",""space"",""space"",""space"",""space"",""space"",""space"",""space"",""space"",""space"",""space"",""space"",""space"",""space"",""space"",""space"",""space"",""space"",""space"",""space"",""space"",""space"",""space"",""space"",""space"",""space"",""space"",""space"",""space"",""space"",""space"",""space"",""space"",""space"",""space"",""space"",""space""]","[0.4615550000019084,0.7114399999993566,0.9325099999985014,1.1632600000011735,1.3842599999989034,1.615434999999934,1.8496050000030664,2.0679650000020047,2.2890600000027916,2.5362349999995786,2.7870849999962957,3.0399699999982204,3.2899099999995087,3.541304999998829,3.792685000000347,4.028044999999338,4.281024999996589,4.5146699999968405,4.749089999997523,4.96882000000187,5.199504999996861,5.437064999998256,5.670330000000831,5.89348500000051,6.119930000000977,6.353864999997086,6.590714999998454,6.823524999999563,7.057419999997364,7.276234999997541,7.510855000000447,7.749264999998559,7.981419999996433,8.199305000001686,8.449164999998175,8.715369999998074,8.933114999999816,9.172635000002629,9.457320000001573,9.721335000002,9.996245000002318,10.30847999999969,10.544750000000931,10.824789999998984,11.109414999998762,11.380769999996119,11.712805000002618,12.014680000000226,12.303789999998116,12.56652000000031,12.81760999999824,13.085500000001275,13.307330000003276,13.592544999999518,13.877699999997049,14.190190000001166,14.458245000001853,14.67566500000271,14.948965000003454,15.198084999996581,15.448114999999234]",space,0.476285,0.0,30.0,30.0,38.0,1.0,,,
,,,,,,,,,,,block_2/strong_t_81_3.wav,timbre,t,strong,81.0,1.276002308,16.49137646,,,Yes,Ear Phone,1,No,M,28,R,Yes,1,2020-09-16_15h15.27.472,kura-A2,2020.1.2,Win32,60,,,,,,,,,,,,,,"[""space"",""space"",""space"",""space"",""space"",""space"",""space"",""space"",""space"",""space"",""space"",""space"",""space"",""space"",""space"",""space"",""space"",""space"",""space"",""space"",""space""]","[0.6947399999990012,1.3804999999993015,2.1013099999981932,2.8228949999975157,3.4742899999980636,4.279434999996738,5.069239999996853,5.836159999998927,6.593414999995957,7.34177500000078,8.079760000000533,8.848194999998668,9.636825000001409,10.39117499999702,11.146189999999478,11.845914999998286,12.582445000000007,13.370354999999108,14.130420000001322,14.746350000001257,15.514364999995678]",space,0.57821,0.0,31.0,31.0,24.0,1.0,,,
,,,,,,,,,,,block_2/strong_t_72_4.wav,timbre,t,strong,72.0,1.957123463,17.07435702,,,Yes,Ear Phone,1,No,M,28,R,Yes,1,2020-09-16_15h15.27.472,kura-A2,2020.1.2,Win32,60,,,,,,,,,,,,,,"[""space"",""space"",""space"",""space"",""space"",""space"",""space"",""space"",""space"",""space"",""space"",""space"",""space"",""space"",""space"",""space"",""space"",""space"",""space"",""space""]","[0.9800150000007761,1.675580000002583,2.4500850000040373,3.132870000001276,3.818989999999758,4.590230000001611,5.37615000000369,6.196800000005169,7.019315000004781,7.8042050000003655,8.607325000004494,9.332270000006474,10.0979900000018,10.87115000000631,11.646880000000237,12.610030000003235,13.303859999999986,14.003230000002077,14.955515000001242,15.640650000001187]",space,0.96583,0.0,32.0,32.0,1.0,1.0,,,
