key_resp.keys,key_resp.rt,practice_taps.keys,practice_taps.rt,keyresp.keys,keyresp.rt,practice_stims_loop.thisRepN,practice_stims_loop.thisTrialN,practice_stims_loop.thisN,practice_stims_loop.thisIndex,practice_stims_loop.ran,sndfile,type,tempo,cond,version,delay,dur,Participant Initials,"If you are a MTurk worker, what is your MTurk worker ID?","If you are not an MTurk worker, please provide your email address",Are you wearing headphones?,What are the headphone make and model?,"How many years of musical training, if any, do you have?",Do you have any hearing problems? Please describe,What is your sex (f/m/decline)?,What is your age?,What is your handedness (R/L/ambi)?,Are you currently in a secure and quiet room without a possible interruption?,session,date,expName,psychopyVersion,OS,frameRate,instructions_prompt.keys,instructions_prompt.rt,block1_taps.keys,block1_taps.rt,key_resp_2.keys,key_resp_2.rt,trials.thisRepN,trials.thisTrialN,trials.thisN,trials.thisIndex,trials.ran,key_resp2.keys,key_resp2.rt,block2_taps.keys,block2_taps.rt,key_resp_3.keys,key_resp_3.rt,trials_2.thisRepN,trials_2.thisTrialN,trials_2.thisN,trials_2.thisIndex,trials_2.ran,key_resp_4.keys,key_resp_4.rt
space,35.781,"[""space"",""space"",""space"",""space"",""space"",""space"",""space"",""space"",""space""]","[6.575999999999993,6.917999999999992,7.286999999999992,7.763999999999996,8.325999999999993,8.843999999999994,9.373999999999995,9.920000000000002,10.423000000000002]",space,2.554,0.0,0.0,0.0,3.0,1.0,block_2/weak_t_119_2.wav,timbre,t,weak,119.0,2.180699762,12.4495433,,,,No,,0,No,F,66,L,Yes,1,2020-10-04_12h32.21.589,kura-A1,2020.1.2,MacIntel,60,,,,,,,,,,,,,,,,,,,,,,,,
,,"[""space"",""space"",""space"",""space"",""space"",""space"",""space"",""space"",""space"",""space"",""space"",""space"",""space"",""space"",""space"",""space"",""space"",""space"",""space"",""space""]","[0.8840000000000146,1.7820000000000107,2.5690000000000026,3.355000000000004,4.101000000000013,4.905000000000015,5.6440000000000055,6.432000000000002,7.115000000000009,7.875,8.663000000000011,9.40100000000001,10.109000000000009,10.844000000000008,11.582000000000008,12.342000000000013,13.119000000000014,13.915000000000006,14.703000000000003,15.442000000000007]",space,1.335,0.0,1.0,1.0,0.0,1.0,block_1/strong_n_81_2.wav,no,n,strong,81.0,1.560205308,16.72288105,,,,No,,0,No,F,66,L,Yes,1,2020-10-04_12h32.21.589,kura-A1,2020.1.2,MacIntel,60,,,,,,,,,,,,,,,,,,,,,,,,
,,"[""space"",""space"",""space"",""space"",""space"",""space"",""space"",""space"",""space"",""space"",""space"",""space"",""space"",""space""]","[1.625,2.1839999999999975,2.7379999999999995,3.3289999999999935,4.088000000000022,4.734000000000009,5.333000000000027,6.201000000000022,6.708000000000027,7.26400000000001,7.796000000000021,8.198000000000008,8.617000000000019,9.007000000000005]",space,1.279,0.0,2.0,2.0,2.0,1.0,block_1/weak_n_119_1.wav,no,n,weak,119.0,1.75153664,11.06591306,,,,No,,0,No,F,66,L,Yes,1,2020-10-04_12h32.21.589,kura-A1,2020.1.2,MacIntel,60,,,,,,,,,,,,,,,,,,,,,,,,
,,"[""space"",""space"",""space"",""space"",""space"",""space"",""space"",""space"",""space"",""space"",""space""]","[3.5509999999999877,4.489999999999981,5.409999999999997,6.295999999999992,7.371999999999986,8.337999999999994,9.49199999999999,10.436999999999983,11.495000000000005,12.515999999999991,13.454999999999984]",space,1.298,0.0,3.0,3.0,1.0,1.0,block_2/none_t_119_1.wav,timbre,t,none,119.0,1.172164666,14.53370662,,,,No,,0,No,F,66,L,Yes,1,2020-10-04_12h32.21.589,kura-A1,2020.1.2,MacIntel,60,,,,,,,,,,,,,,,,,,,,,,,,
,,,,,,,,,,,block_1/strong_n_119_2.wav,no,n,strong,119.0,2.088876798,11.35100832,,,,No,,0,No,F,66,L,Yes,1,2020-10-04_12h32.21.589,kura-A1,2020.1.2,MacIntel,60,space,75.279,"[""space"",""space"",""space"",""space"",""space"",""space"",""space"",""space"",""space"",""space"",""space"",""space"",""space"",""space"",""space"",""space"",""space"",""space""]","[1.4000000000000057,1.945999999999998,2.397999999999996,2.8859999999999957,3.3499999999999943,3.836999999999989,4.307999999999993,4.768000000000001,5.251999999999981,5.716000000000008,6.198999999999984,6.658999999999992,7.055000000000007,7.579000000000008,8.091000000000008,8.538999999999987,9.031000000000006,9.462999999999994]",space,1.714,0.0,0.0,0.0,17.0,1.0,,,,,,,,,,,,,
,,,,,,,,,,,block_1/weak_n_119_2.wav,no,n,weak,119.0,2.480463378,12.4427763,,,,No,,0,No,F,66,L,Yes,1,2020-10-04_12h32.21.589,kura-A1,2020.1.2,MacIntel,60,,,"[""space"",""space"",""space"",""space"",""space"",""space"",""space"",""space"",""space"",""space"",""space"",""space"",""space"",""space"",""space"",""space"",""space""]","[1.9819999999999993,2.5360000000000014,3.1599999999999966,3.680999999999983,4.298000000000002,5.043000000000006,5.561999999999983,6.003999999999991,6.4480000000000075,6.957999999999998,7.405000000000001,7.798000000000002,8.280000000000001,8.649000000000001,9.201000000000022,9.655999999999977,10.094999999999942]",space,1.887,0.0,1.0,1.0,36.0,1.0,,,,,,,,,,,,,
,,,,,,,,,,,block_1/strong_n_92_1.wav,no,n,strong,92.0,1.355123487,13.84328675,,,,No,,0,No,F,66,L,Yes,1,2020-10-04_12h32.21.589,kura-A1,2020.1.2,MacIntel,60,,,"[""space"",""space"",""space"",""space"",""space"",""space"",""space"",""space"",""space"",""space"",""space"",""space"",""space"",""space"",""space"",""space"",""space"",""space""]","[2.2579999999999814,2.8239999999999554,3.453999999999951,4.067999999999984,4.663999999999987,5.3139999999999645,5.919999999999959,6.538999999999987,7.159999999999968,7.753999999999962,8.367999999999938,8.993999999999971,9.60899999999998,10.226999999999975,10.850999999999999,11.505999999999972,12.08099999999996,12.728999999999985]",space,5.921,0.0,2.0,2.0,37.0,1.0,,,,,,,,,,,,,
,,,,,,,,,,,block_1/weak_n_72_1.wav,no,n,weak,72.0,1.347131367,16.2574715,,,,No,,0,No,F,66,L,Yes,1,2020-10-04_12h32.21.589,kura-A1,2020.1.2,MacIntel,60,,,"[""space"",""space"",""space"",""space"",""space"",""space"",""space"",""space"",""space"",""space"",""space"",""space"",""space"",""space"",""space"",""space"",""space"",""space"",""space"",""space""]","[1.2570000000000618,1.8690000000000282,2.5370000000000346,3.361000000000047,4.122000000000014,4.79200000000003,5.532000000000039,6.270000000000039,6.9640000000000555,7.774000000000115,8.484000000000037,9.262,10.00200000000001,10.763000000000034,11.53000000000003,12.255000000000052,12.932000000000016,13.65500000000003,14.356000000000051,15.126000000000033]",space,1.458,0.0,3.0,3.0,15.0,1.0,,,,,,,,,,,,,
,,,,,,,,,,,block_1/none_n_105_2.wav,no,n,none,105.0,1.949697166,16.59064955,,,,No,,0,No,F,66,L,Yes,1,2020-10-04_12h32.21.589,kura-A1,2020.1.2,MacIntel,60,,,"[""space"",""space"",""space"",""space"",""space"",""space"",""space"",""space"",""space"",""space"",""space"",""space"",""space"",""space"",""space"",""space"",""space""]","[1.4460000000000264,2.007000000000005,2.4190000000000396,2.993000000000052,4.006000000000029,4.748000000000047,5.468999999999994,6.388000000000034,7.215000000000032,8.063000000000045,8.875,9.934000000000026,10.779000000000053,11.659000000000049,12.450000000000045,13.508000000000038,14.42100000000005]",space,1.118,0.0,4.0,4.0,4.0,1.0,,,,,,,,,,,,,
,,,,,,,,,,,block_1/none_n_72_2.wav,no,n,none,72.0,1.052198767,23.70630308,,,,No,,0,No,F,66,L,Yes,1,2020-10-04_12h32.21.589,kura-A1,2020.1.2,MacIntel,60,,,"[""space"",""space"",""space"",""space"",""space"",""space"",""space"",""space"",""space"",""space"",""space"",""space"",""space"",""space"",""space"",""space"",""space"",""space""]","[1.988999999999976,3.4009999999999536,4.565999999999974,5.647999999999968,6.757000000000005,7.8629999999999995,8.906999999999982,10.130999999999972,11.286999999999978,12.439999999999998,13.730999999999995,14.858000000000004,16.067999999999984,17.201999999999998,18.38499999999999,19.45999999999998,20.784999999999968,21.934999999999945]",space,1.53,0.0,5.0,5.0,16.0,1.0,,,,,,,,,,,,,
,,,,,,,,,,,block_1/weak_n_81_1.wav,no,n,weak,81.0,1.583230306,14.42368382,,,,No,,0,No,F,66,L,Yes,1,2020-10-04_12h32.21.589,kura-A1,2020.1.2,MacIntel,60,,,"[""space"",""space"",""space"",""space"",""space"",""space"",""space"",""space"",""space"",""space"",""space"",""space"",""space"",""space"",""space"",""space"",""space"",""space"",""space"",""space""]","[1.2060000000000173,1.7339999999999804,2.4139999999999873,3.0289999999999964,3.6689999999999827,4.351999999999975,5.067999999999984,5.632000000000005,6.189000000000021,6.785000000000025,7.418000000000006,8.062000000000012,8.723000000000013,9.322999999999979,9.949000000000012,10.601999999999975,11.201000000000022,11.863999999999976,12.478000000000009,13.045000000000016]",space,2.185,0.0,6.0,6.0,35.0,1.0,,,,,,,,,,,,,
,,,,,,,,,,,block_1/medium_n_92_1.wav,no,n,medium,92.0,2.383742627,17.50115759,,,,No,,0,No,F,66,L,Yes,1,2020-10-04_12h32.21.589,kura-A1,2020.1.2,MacIntel,60,,,"[""space"",""space"",""space"",""space"",""space"",""space"",""space"",""space"",""space"",""space"",""space"",""space"",""space"",""space"",""space"",""space"",""space"",""space"",""space"",""space"",""space""]","[0.23200000000002774,0.7340000000000373,1.2230000000000132,1.992999999999995,2.8010000000000446,3.643000000000029,4.388000000000034,5.164000000000044,5.951000000000022,6.663000000000011,7.40500000000003,8.256000000000029,8.978000000000009,9.834000000000003,10.619000000000028,11.40100000000001,12.245000000000005,13.035000000000025,13.816000000000031,14.629999999999995,15.456999999999994]",space,1.353,0.0,7.0,7.0,5.0,1.0,,,,,,,,,,,,,
,,,,,,,,,,,block_1/none_n_119_1.wav,no,n,none,119.0,2.383659144,14.54474758,,,,No,,0,No,F,66,L,Yes,1,2020-10-04_12h32.21.589,kura-A1,2020.1.2,MacIntel,60,,,"[""space"",""space"",""space"",""space"",""space"",""space"",""space"",""space"",""space"",""space"",""space"",""space"",""space"",""space"",""space"",""space"",""space"",""space"",""space"",""space"",""space"",""space"",""space"",""space"",""space"",""space"",""space"",""space"",""space"",""space"",""space"",""space"",""space"",""space"",""space"",""space"",""space""]","[4.8799999999999955,6.031000000000006,6.286999999999978,6.468999999999994,6.670999999999992,6.836000000000013,6.992999999999995,7.127999999999986,7.3139999999999645,7.486999999999966,7.661999999999978,7.829000000000008,7.997000000000014,8.159999999999968,8.312999999999988,8.492999999999995,8.644999999999982,8.819999999999993,8.998999999999967,9.190999999999974,9.360000000000014,9.560999999999979,9.72199999999998,9.894000000000005,10.069999999999993,10.253999999999962,10.430999999999983,10.625,10.791999999999973,10.956999999999994,11.137,11.33499999999998,11.504999999999995,11.699000000000012,11.863,12.034999999999968,12.300999999999988]",space,1.067,0.0,8.0,8.0,22.0,1.0,,,,,,,,,,,,,
,,,,,,,,,,,block_1/none_n_72_1.wav,no,n,none,72.0,1.339316998,21.90480453,,,,No,,0,No,F,66,L,Yes,1,2020-10-04_12h32.21.589,kura-A1,2020.1.2,MacIntel,60,,,"[""space"",""space"",""space"",""space"",""space"",""space"",""space"",""space"",""space"",""space"",""space"",""space"",""space"",""space"",""space"",""space"",""space"",""space""]","[1.7420000000000186,2.451999999999998,3.518000000000029,4.515000000000043,5.680000000000007,6.757000000000005,7.932000000000016,9.018000000000029,10.028999999999996,11.096000000000004,12.230000000000018,13.288000000000011,14.358000000000004,15.493000000000052,16.62900000000002,17.732000000000028,18.823000000000036,19.852000000000032]",space,0.809,0.0,9.0,9.0,18.0,1.0,,,,,,,,,,,,,
,,,,,,,,,,,block_1/strong_n_72_2.wav,no,n,strong,72.0,1.592838259,18.92930084,,,,No,,0,No,F,66,L,Yes,1,2020-10-04_12h32.21.589,kura-A1,2020.1.2,MacIntel,60,,,"[""space"",""space"",""space"",""space"",""space"",""space"",""space"",""space"",""space"",""space"",""space"",""space"",""space"",""space"",""space"",""space"",""space"",""space""]","[2.4839999999999804,3.3000000000000114,4.300999999999988,5.194000000000017,6.055999999999983,6.9220000000000255,7.829000000000008,8.709000000000003,9.601999999999975,10.543000000000006,11.427000000000021,12.213999999999999,13.117999999999995,14.091999999999985,14.935000000000002,15.83499999999998,16.724999999999966,17.58699999999999]",space,1.877,0.0,10.0,10.0,30.0,1.0,,,,,,,,,,,,,
,,,,,,,,,,,block_1/medium_n_81_2.wav,no,n,medium,81.0,2.424750646,16.12729033,,,,No,,0,No,F,66,L,Yes,1,2020-10-04_12h32.21.589,kura-A1,2020.1.2,MacIntel,60,,,"[""space"",""space"",""space"",""space"",""space"",""space"",""space"",""space"",""space"",""space"",""space"",""space"",""space"",""space"",""space"",""space"",""space"",""space"",""space""]","[1.521000000000015,2.105000000000018,2.8310000000000173,3.52800000000002,4.271000000000015,4.918000000000006,5.6510000000000105,6.359000000000037,7.063000000000045,7.782000000000039,8.469000000000051,9.177000000000021,9.834000000000003,10.531000000000006,11.289000000000044,11.985000000000014,12.676000000000045,13.312000000000012,13.955000000000041]",space,0.433,0.0,11.0,11.0,34.0,1.0,,,,,,,,,,,,,
,,,,,,,,,,,block_1/strong_n_81_1.wav,no,n,strong,81.0,1.003745174,15.96537783,,,,No,,0,No,F,66,L,Yes,1,2020-10-04_12h32.21.589,kura-A1,2020.1.2,MacIntel,60,,,"[""space"",""space"",""space"",""space"",""space"",""space"",""space"",""space"",""space"",""space"",""space"",""space"",""space"",""space"",""space"",""space"",""space"",""space"",""space"",""space""]","[0.9360000000000355,1.6680000000000064,2.4180000000000064,3.198000000000036,3.9039999999999964,4.676000000000045,5.441000000000031,6.208000000000027,6.970000000000027,7.691000000000031,8.462000000000046,9.244000000000028,9.983000000000004,10.703000000000031,11.437000000000012,12.197000000000003,12.927999999999997,13.672000000000025,14.422000000000025,15.194999999999993]",space,1.936,0.0,12.0,12.0,12.0,1.0,,,,,,,,,,,,,
,,,,,,,,,,,block_1/strong_n_81_2.wav,no,n,strong,81.0,1.452361164,16.6150369,,,,No,,0,No,F,66,L,Yes,1,2020-10-04_12h32.21.589,kura-A1,2020.1.2,MacIntel,60,,,"[""space"",""space"",""space"",""space"",""space"",""space"",""space"",""space"",""space"",""space"",""space"",""space"",""space"",""space"",""space"",""space"",""space"",""space"",""space"",""space""]","[1.0649999999999977,1.7410000000000423,2.5580000000000496,3.2670000000000528,4.198000000000036,4.841000000000008,5.5680000000000405,6.361000000000047,7.0610000000000355,7.736000000000047,8.55800000000005,9.363,10.069000000000017,10.850999999999999,11.712000000000046,12.410000000000025,13.175000000000011,13.938000000000102,14.650000000000034,15.39100000000002]",space,2.606,0.0,13.0,13.0,8.0,1.0,,,,,,,,,,,,,
,,,,,,,,,,,block_1/medium_n_105_1.wav,no,n,medium,105.0,2.470231961,15.66819115,,,,No,,0,No,F,66,L,Yes,1,2020-10-04_12h32.21.589,kura-A1,2020.1.2,MacIntel,60,,,"[""space"",""space"",""space"",""space"",""space"",""space"",""space"",""space"",""space"",""space"",""space"",""space"",""space"",""space"",""space"",""space"",""space"",""space"",""space"",""space""]","[0.2890000000000441,1.452000000000055,1.7840000000000487,2.5340000000000487,3.223000000000013,3.918000000000063,4.755000000000052,5.393000000000086,5.956000000000074,6.598000000000013,7.170000000000016,7.786000000000115,8.493000000000109,9.16900000000004,9.863000000000113,10.605000000000075,11.29400000000004,11.986000000000047,12.708000000000027,13.408000000000072]",space,1.185,0.0,14.0,14.0,7.0,1.0,,,,,,,,,,,,,
,,,,,,,,,,,block_1/strong_n_72_1.wav,no,n,strong,72.0,1.207870441,16.92877747,,,,No,,0,No,F,66,L,Yes,1,2020-10-04_12h32.21.589,kura-A1,2020.1.2,MacIntel,60,,,"[""space"",""space"",""space"",""space"",""space"",""space"",""space"",""space"",""space"",""space"",""space"",""space"",""space"",""space"",""space"",""space"",""space"",""space"",""space"",""space""]","[1.01400000000001,1.481999999999971,2.2340000000000373,2.994000000000028,3.7200000000000273,4.586999999999989,5.408999999999992,6.236999999999966,7.017000000000053,7.902000000000044,8.738000000000056,9.531000000000063,10.31000000000006,11.077999999999975,11.873000000000047,12.750999999999976,13.565000000000055,14.349000000000046,15.129000000000019,15.993000000000052]",space,2.214,0.0,15.0,15.0,33.0,1.0,,,,,,,,,,,,,
,,,,,,,,,,,block_1/medium_n_81_1.wav,no,n,medium,81.0,1.755173496,15.75716896,,,,No,,0,No,F,66,L,Yes,1,2020-10-04_12h32.21.589,kura-A1,2020.1.2,MacIntel,60,,,"[""space"",""space"",""space"",""space"",""space"",""space"",""space"",""space"",""space"",""space"",""space"",""space"",""space"",""space"",""space"",""space"",""space"",""space"",""space"",""space""]","[1.2530000000000427,1.7990000000000919,2.4340000000000828,3.07000000000005,3.7560000000000855,4.475000000000023,5.137000000000057,5.9080000000000155,6.508000000000038,7.210000000000036,7.926000000000045,8.67100000000005,9.384000000000015,10.076000000000022,10.721000000000117,11.38000000000011,12.07000000000005,12.773000000000025,13.407000000000039,14.09800000000007]",space,1.566,0.0,16.0,16.0,31.0,1.0,,,,,,,,,,,,,
,,,,,,,,,,,block_1/medium_n_72_2.wav,no,n,medium,72.0,1.502389402,18.53467965,,,,No,,0,No,F,66,L,Yes,1,2020-10-04_12h32.21.589,kura-A1,2020.1.2,MacIntel,60,,,"[""space"",""space"",""space"",""space"",""space"",""space"",""space"",""space"",""space"",""space"",""space"",""space"",""space"",""space"",""space"",""space"",""space"",""space"",""space"",""space"",""space""]","[0.9479999999999791,1.483000000000061,2.38900000000001,3.118000000000052,4.137000000000057,5.151000000000067,5.935000000000059,6.7409999999999854,7.596000000000004,8.368000000000052,9.096000000000004,9.788000000000011,10.315000000000055,11.067000000000007,11.913000000000011,12.706999999999994,13.537000000000035,14.384000000000015,15.256000000000085,16.117000000000075,16.92700000000002]",space,1.82,0.0,17.0,17.0,14.0,1.0,,,,,,,,,,,,,
,,,,,,,,,,,block_1/none_n_81_1.wav,no,n,none,81.0,1.16825706,17.43084209,,,,No,,0,No,F,66,L,Yes,1,2020-10-04_12h32.21.589,kura-A1,2020.1.2,MacIntel,60,,,"[""space"",""space"",""space"",""space"",""space"",""space"",""space"",""space"",""space"",""space"",""space"",""space"",""space"",""space"",""space"",""space"",""space"",""space"",""space"",""space""]","[1.1030000000000655,1.9540000000000646,2.7320000000000846,3.6270000000000664,4.508000000000038,5.326999999999998,6.062000000000012,6.791000000000054,7.657000000000039,8.461000000000013,9.321000000000026,10.096000000000004,10.926000000000045,11.651000000000067,12.480999999999995,13.266000000000076,14.089000000000055,14.82000000000005,15.508000000000038,16.288999999999987]",space,2.034,0.0,18.0,18.0,29.0,1.0,,,,,,,,,,,,,
,,,,,,,,,,,block_1/none_n_81_2.wav,no,n,none,81.0,1.043160571,20.19454379,,,,No,,0,No,F,66,L,Yes,1,2020-10-04_12h32.21.589,kura-A1,2020.1.2,MacIntel,60,,,"[""space"",""space"",""space"",""space"",""space"",""space"",""space"",""space"",""space"",""space"",""space"",""space"",""space"",""space"",""space"",""space"",""space"",""space"",""space"",""space"",""space"",""space"",""space"",""space"",""space""]","[1.038000000000011,1.5670000000000073,2.41700000000003,3.1580000000000155,3.7110000000000127,4.562999999999988,5.390999999999963,6.080000000000041,6.757000000000062,7.624000000000024,8.411000000000172,9.177999999999997,9.923000000000002,10.722999999999956,11.538999999999987,12.191000000000031,13.026000000000067,13.830000000000041,14.730000000000018,15.422000000000025,16.178999999999974,16.884000000000015,17.630999999999972,18.317999999999984,19.08000000000004]",space,1.192,0.0,19.0,19.0,28.0,1.0,,,,,,,,,,,,,
,,,,,,,,,,,block_1/strong_n_119_1.wav,no,n,strong,119.0,2.241065743,12.1104535,,,,No,,0,No,F,66,L,Yes,1,2020-10-04_12h32.21.589,kura-A1,2020.1.2,MacIntel,60,,,"[""space"",""space"",""space"",""space"",""space"",""space"",""space"",""space"",""space"",""space"",""space"",""space"",""space"",""space"",""space"",""space"",""space"",""space""]","[1.4039999999999964,1.884999999999991,2.365000000000009,2.8909999999999627,3.4180000000000064,3.951000000000022,4.44500000000005,4.987999999999943,5.461000000000013,5.981999999999971,6.500999999999976,6.993000000000052,7.482999999999947,7.9809999999999945,8.469000000000051,8.987999999999943,9.498000000000047,9.975999999999999]",space,3.857,0.0,20.0,20.0,19.0,1.0,,,,,,,,,,,,,
,,,,,,,,,,,block_1/weak_n_119_1.wav,no,n,weak,119.0,2.415285966,11.72966238,,,,No,,0,No,F,66,L,Yes,1,2020-10-04_12h32.21.589,kura-A1,2020.1.2,MacIntel,60,,,"[""space"",""space"",""space"",""space"",""space"",""space"",""space"",""space"",""space"",""space"",""space"",""space""]","[1.858000000000061,2.3360000000000127,3.1549999999999727,3.9809999999999945,4.7450000000000045,5.572999999999979,6.293000000000006,7.072000000000003,7.741999999999962,8.226999999999975,8.871999999999957,9.465000000000032]",space,1.098,0.0,21.0,21.0,38.0,1.0,,,,,,,,,,,,,
,,,,,,,,,,,block_1/none_n_105_1.wav,no,n,none,105.0,1.562974393,15.68542337,,,,No,,0,No,F,66,L,Yes,1,2020-10-04_12h32.21.589,kura-A1,2020.1.2,MacIntel,60,,,"[""space"",""space"",""space"",""space"",""space"",""space"",""space"",""space"",""space"",""space"",""space"",""space"",""space"",""space""]","[1.1899999999999409,2.038000000000011,2.8439999999999372,3.814999999999941,4.830000000000041,5.79200000000003,6.876999999999953,7.837999999999965,8.894999999999982,9.975000000000023,10.987999999999943,11.996999999999957,13.04600000000005,14.077999999999975]",space,0.796,0.0,22.0,22.0,0.0,1.0,,,,,,,,,,,,,
,,,,,,,,,,,block_1/weak_n_105_1.wav,no,n,weak,105.0,1.735757625,11.75240162,,,,No,,0,No,F,66,L,Yes,1,2020-10-04_12h32.21.589,kura-A1,2020.1.2,MacIntel,60,,,"[""space"",""space"",""space"",""space"",""space"",""space"",""space"",""space"",""space"",""space"",""space"",""space"",""space"",""space"",""space"",""space"",""space"",""space"",""space"",""space"",""space""]","[0.5910000000001219,1.0350000000000819,1.4430000000000973,1.8590000000000373,2.2770000000000437,2.8740000000000236,3.3220000000001164,3.8080000000001064,4.281000000000063,4.7280000000000655,5.287000000000035,5.79200000000003,6.27800000000002,6.745000000000118,7.238000000000056,7.6870000000001255,8.15400000000011,8.639000000000124,9.139000000000124,9.603000000000065,10.086000000000126]",space,2.048,0.0,23.0,23.0,27.0,1.0,,,,,,,,,,,,,
,,,,,,,,,,,block_1/none_n_119_2.wav,no,n,none,119.0,2.128313718,13.68559263,,,,No,,0,No,F,66,L,Yes,1,2020-10-04_12h32.21.589,kura-A1,2020.1.2,MacIntel,60,,,"[""space"",""space"",""space"",""space"",""space"",""space"",""space"",""space"",""space"",""space"",""space"",""space"",""space"",""space"",""space""]","[1.0199999999999818,1.8959999999999582,2.5289999999999964,3.1229999999999336,3.814999999999941,4.525999999999954,5.277999999999906,6.092999999999961,6.902999999999906,7.692999999999984,8.469999999999914,9.20699999999988,10.011999999999944,10.822999999999979,11.646999999999935]",space,0.868,0.0,24.0,24.0,25.0,1.0,,,,,,,,,,,,,
,,,,,,,,,,,block_1/none_n_92_2.wav,no,n,none,92.0,1.514588051,14.14982615,,,,No,,0,No,F,66,L,Yes,1,2020-10-04_12h32.21.589,kura-A1,2020.1.2,MacIntel,60,,,"[""space"",""space"",""space"",""space"",""space"",""space"",""space"",""space"",""space"",""space"",""space"",""space""]","[1.2100000000000364,2.004000000000019,3.034999999999968,4.094000000000051,5.140999999999963,6.072999999999979,7.062000000000012,8.089000000000055,9.094000000000051,10.134000000000015,11.278999999999996,12.379000000000019]",space,1.283,0.0,25.0,25.0,23.0,1.0,,,,,,,,,,,,,
,,,,,,,,,,,block_1/medium_n_119_1.wav,no,n,medium,119.0,1.649869951,11.21667267,,,,No,,0,No,F,66,L,Yes,1,2020-10-04_12h32.21.589,kura-A1,2020.1.2,MacIntel,60,,,"[""space"",""space"",""space"",""space"",""space"",""space"",""space"",""space"",""space"",""space"",""space"",""space"",""space"",""space"",""space"",""space"",""space"",""space""]","[1.4320000000000164,1.8630000000000564,2.2789999999999964,2.7409999999999854,3.2250000000000227,3.7609999999999673,4.227999999999952,4.697000000000003,5.220000000000027,5.6889999999999645,6.19399999999996,6.682000000000016,7.196000000000026,7.698999999999955,8.171000000000163,8.690000000000055,9.19500000000005,9.663000000000011]",space,1.887,0.0,26.0,26.0,24.0,1.0,,,,,,,,,,,,,
,,,,,,,,,,,block_1/strong_n_92_2.wav,no,n,strong,92.0,2.185421936,15.68737205,,,,No,,0,No,F,66,L,Yes,1,2020-10-04_12h32.21.589,kura-A1,2020.1.2,MacIntel,60,,,"[""space"",""space"",""space"",""space"",""space"",""space"",""space"",""space"",""space"",""space"",""space"",""space"",""space"",""space"",""space"",""space"",""space"",""space"",""space""]","[1.2290000000001555,1.8949999999999818,2.533999999999992,3.27800000000002,3.9569999999999936,4.634999999999991,5.301000000000045,5.991999999999962,6.684999999999945,7.373000000000047,8.066000000000031,8.745000000000005,9.436000000000035,10.058999999999969,10.741999999999962,11.54200000000003,12.270999999999958,12.937999999999988,13.612999999999943]",space,2.168,0.0,27.0,27.0,39.0,1.0,,,,,,,,,,,,,
,,,,,,,,,,,block_1/weak_n_81_2.wav,no,n,weak,81.0,1.567957537,13.4515403,,,,No,,0,No,F,66,L,Yes,1,2020-10-04_12h32.21.589,kura-A1,2020.1.2,MacIntel,60,,,"[""space"",""space"",""space"",""space"",""space"",""space"",""space"",""space"",""space"",""space"",""space"",""space"",""space"",""space"",""space"",""space"",""space"",""space"",""space""]","[1.6510000000000673,2.2040000000000646,2.802000000000021,3.383000000000038,3.9050000000000864,4.4500000000000455,5.091000000000008,5.674000000000092,6.262000000000057,6.767000000000053,7.343000000000075,7.953000000000088,8.558000000000106,9.12600000000009,9.718000000000075,10.267000000000053,10.894999999999982,11.493000000000052,12.008000000000038]",space,1.424,0.0,28.0,28.0,32.0,1.0,,,,,,,,,,,,,
,,,,,,,,,,,block_1/weak_n_92_1.wav,no,n,weak,92.0,2.164314711,15.90903126,,,,No,,0,No,F,66,L,Yes,1,2020-10-04_12h32.21.589,kura-A1,2020.1.2,MacIntel,60,,,"[""space"",""space"",""space"",""space"",""space"",""space"",""space"",""space"",""space"",""space"",""space"",""space"",""space"",""space"",""space"",""space"",""space"",""space"",""space"",""space""]","[1.6929999999999836,2.0569999999999027,2.755999999999972,3.3629999999999427,4.008999999999901,4.552999999999997,5.1200000000000045,5.920999999999935,6.598999999999933,7.317999999999984,7.9799999999999045,8.557999999999993,9.217999999999961,9.878999999999905,10.604999999999905,11.274000000000001,11.936999999999898,12.583999999999946,13.254999999999995,13.896999999999935]",space,1.688,0.0,29.0,29.0,2.0,1.0,,,,,,,,,,,,,
,,,,,,,,,,,block_1/weak_n_72_2.wav,no,n,weak,72.0,2.426446225,22.38744396,,,,No,,0,No,F,66,L,Yes,1,2020-10-04_12h32.21.589,kura-A1,2020.1.2,MacIntel,60,,,"[""space"",""space"",""space"",""space"",""space"",""space"",""space"",""space"",""space"",""space"",""space"",""space"",""space"",""space"",""space"",""space"",""space"",""space"",""space""]","[0.6140000000000327,1.4519999999999982,4.09699999999998,4.970000000000027,6.0499999999999545,7.043999999999983,8.010999999999967,9.019999999999982,10.024999999999977,11.170999999999935,12.079999999999927,13.067999999999984,14.07899999999995,15.100000000000136,16.202999999999975,17.211000000000013,18.202999999999975,19.31499999999994,20.236999999999966]",space,0.791,0.0,30.0,30.0,11.0,1.0,,,,,,,,,,,,,
,,,,,,,,,,,block_1/medium_n_72_1.wav,no,n,medium,72.0,1.188923945,17.15940014,,,,No,,0,No,F,66,L,Yes,1,2020-10-04_12h32.21.589,kura-A1,2020.1.2,MacIntel,60,,,"[""space"",""space"",""space"",""space"",""space"",""space"",""space"",""space"",""space"",""space"",""space"",""space"",""space"",""space"",""space"",""space"",""space"",""space"",""space"",""space""]","[1.0669999999998936,1.7749999999999773,2.55499999999995,3.3339999999999463,4.197999999999979,4.992999999999938,5.817999999999984,6.7029999999999745,7.469999999999914,8.187999999999988,8.927999999999997,9.716999999999985,10.538999999999987,11.322999999999979,12.086000000000013,12.848999999999933,13.65199999999993,14.495999999999981,15.362999999999943,16.12099999999998]",space,0.845,0.0,31.0,31.0,10.0,1.0,,,,,,,,,,,,,
,,,,,,,,,,,block_1/medium_n_92_2.wav,no,n,medium,92.0,1.321097132,12.85819464,,,,No,,0,No,F,66,L,Yes,1,2020-10-04_12h32.21.589,kura-A1,2020.1.2,MacIntel,60,,,"[""space"",""space"",""space"",""space"",""space"",""space"",""space"",""space"",""space"",""space"",""space"",""space"",""space"",""space"",""space"",""space"",""space"",""space""]","[1.0350000000000819,1.86200000000008,2.3050000000000637,3.2520000000000664,3.8450000000000273,4.455000000000041,5.0330000000000155,5.592000000000098,6.161000000000058,6.758000000000038,7.3250000000000455,7.997000000000071,8.6400000000001,9.242000000000075,9.897000000000048,10.543000000000006,11.168000000000006,11.722000000000094]",space,3.436,0.0,32.0,32.0,1.0,1.0,,,,,,,,,,,,,
,,,,,,,,,,,block_1/none_n_92_1.wav,no,n,none,92.0,1.720415177,18.30862379,,,,No,,0,No,F,66,L,Yes,1,2020-10-04_12h32.21.589,kura-A1,2020.1.2,MacIntel,60,,,"[""space"",""space"",""space"",""space"",""space"",""space"",""space"",""space"",""space"",""space"",""space"",""space"",""space"",""space"",""space"",""space""]","[1.8529999999999518,2.744000000000028,3.644999999999982,4.439999999999941,5.355000000000018,6.197000000000003,7.037000000000035,8.022000000000048,9.052000000000021,9.95399999999995,10.95799999999997,11.948999999999955,12.839999999999918,13.851999999999975,14.900999999999954,15.918999999999983]",space,1.979,0.0,33.0,33.0,20.0,1.0,,,,,,,,,,,,,
,,,,,,,,,,,block_1/strong_n_105_2.wav,no,n,strong,105.0,2.465472491,15.61086932,,,,No,,0,No,F,66,L,Yes,1,2020-10-04_12h32.21.589,kura-A1,2020.1.2,MacIntel,60,,,"[""space"",""space"",""space"",""space"",""space"",""space"",""space"",""space"",""space"",""space"",""space"",""space"",""space"",""space"",""space"",""space"",""space"",""space"",""space"",""space""]","[1.0799999999999272,1.51400000000001,2.1689999999999827,2.794999999999959,3.4629999999999654,4.100000000000023,4.751999999999953,5.420999999999935,6.13900000000001,6.77800000000002,7.433999999999969,8.053999999999974,8.725000000000023,9.396999999999935,10.052999999999997,10.653999999999996,11.287000000000035,11.933999999999969,12.576000000000022,13.23599999999999]",space,3.361,0.0,34.0,34.0,9.0,1.0,,,,,,,,,,,,,
,,,,,,,,,,,block_1/weak_n_105_2.wav,no,n,weak,105.0,1.25756433,14.19910628,,,,No,,0,No,F,66,L,Yes,1,2020-10-04_12h32.21.589,kura-A1,2020.1.2,MacIntel,60,,,"[""space"",""space"",""space"",""space"",""space""]","[7.1340000000000146,8.22700000000009,9.899000000000001,11.27800000000002,12.649000000000001]",space,3.513,0.0,35.0,35.0,26.0,1.0,,,,,,,,,,,,,
,,,,,,,,,,,block_1/strong_n_105_1.wav,no,n,strong,105.0,1.182925411,14.58124741,,,,No,,0,No,F,66,L,Yes,1,2020-10-04_12h32.21.589,kura-A1,2020.1.2,MacIntel,60,,,"[""space"",""space"",""space"",""space"",""space"",""space"",""space"",""space"",""space"",""space"",""space"",""space"",""space"",""space"",""space"",""space"",""space"",""space"",""space""]","[1.4770000000000891,2.1230000000000473,2.7889999999999873,3.4629999999999654,4.165000000000077,4.830000000000041,5.4950000000000045,6.127000000000066,6.795000000000073,7.477000000000089,8.158999999999992,8.87600000000009,9.557000000000016,10.210000000000036,10.951000000000022,11.557999999999993,12.189000000000078,12.877000000000066,13.48599999999999]",space,5.587,0.0,36.0,36.0,13.0,1.0,,,,,,,,,,,,,
,,,,,,,,,,,block_1/medium_n_119_2.wav,no,n,medium,119.0,1.29591098,10.35291778,,,,No,,0,No,F,66,L,Yes,1,2020-10-04_12h32.21.589,kura-A1,2020.1.2,MacIntel,60,,,"[""space"",""space"",""space"",""space"",""space"",""space"",""space"",""space""]","[2.7519999999999527,3.7530000000000427,4.588000000000079,5.369000000000028,6.091000000000008,6.793000000000006,7.751999999999953,8.586000000000013]",space,1.552,0.0,37.0,37.0,21.0,1.0,,,,,,,,,,,,,
,,,,,,,,,,,block_1/weak_n_92_2.wav,no,n,weak,92.0,1.763778337,14.00087584,,,,No,,0,No,F,66,L,Yes,1,2020-10-04_12h32.21.589,kura-A1,2020.1.2,MacIntel,60,,,"[""space"",""space"",""space"",""space"",""space"",""space"",""space"",""space"",""space"",""space"",""space"",""space"",""space"",""space"",""space"",""space"",""space"",""space"",""space""]","[1.5039999999999054,2.0839999999999463,2.686999999999898,3.3029999999999973,3.905999999999949,4.516999999999939,5.1609999999999445,5.700999999999908,6.326999999999998,6.954999999999927,7.5499999999999545,8.16199999999992,8.740999999999985,9.348999999999933,9.900999999999954,10.518999999999892,11.155999999999949,11.811999999999898,12.47099999999989]",space,1.672,0.0,38.0,38.0,6.0,1.0,,,,,,,,,,,,,
,,,,,,,,,,,block_1/medium_n_105_2.wav,no,n,medium,105.0,2.100494097,12.22140113,,,,No,,0,No,F,66,L,Yes,1,2020-10-04_12h32.21.589,kura-A1,2020.1.2,MacIntel,60,,,"[""space"",""space"",""space"",""space"",""space"",""space"",""space"",""space"",""space"",""space"",""space"",""space"",""space"",""space"",""space"",""space"",""space"",""space""]","[1.4840000000000373,2.052000000000021,2.5009999999999764,3.044999999999959,3.492999999999938,3.941000000000031,4.47300000000007,4.9640000000000555,5.469000000000051,6.018000000000029,6.557999999999993,7.0049999999999955,7.595000000000027,8.104000000000042,8.580000000000041,9.151000000000067,9.686000000000035,10.206999999999994]",space,2.104,0.0,39.0,39.0,3.0,1.0,,,,,,,,,,,,,
,,,,,,,,,,,block_2/weak_t_72_2.wav,timbre,t,weak,72.0,2.280914128,17.55202524,,,,No,,0,No,F,66,L,Yes,1,2020-10-04_12h32.21.589,kura-A1,2020.1.2,MacIntel,60,,,,,,,,,,,,space,172.915,"[""space"",""space"",""space"",""space"",""space"",""space"",""space"",""space"",""space"",""space"",""space"",""space"",""space"",""space"",""space"",""space"",""space"",""space""]","[1.788000000000011,2.824000000000069,3.7660000000000764,4.423000000000002,5.085000000000036,6.0190000000000055,6.73700000000008,7.51299999999992,8.288000000000011,8.995999999999867,9.826999999999998,10.615999999999985,11.424999999999955,12.155999999999949,12.878999999999905,13.664999999999964,14.519000000000005,15.321999999999889]",space,2.923,0.0,0.0,0.0,25.0,1.0,,
,,,,,,,,,,,block_2/weak_t_119_1.wav,timbre,t,weak,119.0,2.44047477,12.74986253,,,,No,,0,No,F,66,L,Yes,1,2020-10-04_12h32.21.589,kura-A1,2020.1.2,MacIntel,60,,,,,,,,,,,,,,"[""space"",""space"",""space"",""space"",""space"",""space"",""space"",""space"",""space"",""space"",""space"",""space"",""space"",""space"",""space"",""space"",""space"",""space""]","[2.298999999999978,3.3479999999999563,4.052000000000135,4.7719999999999345,5.230000000000018,5.633000000000038,5.985000000000127,6.4659999999998945,6.870000000000118,7.2409999999999854,7.598999999999933,7.999000000000024,8.385999999999967,8.786000000000058,9.17599999999993,9.598999999999933,9.982999999999947,10.410000000000082]",space,5.992,0.0,1.0,1.0,12.0,1.0,,
,,,,,,,,,,,block_2/weak_t_105_1.wav,timbre,t,weak,105.0,2.340100097,14.83112051,,,,No,,0,No,F,66,L,Yes,1,2020-10-04_12h32.21.589,kura-A1,2020.1.2,MacIntel,60,,,,,,,,,,,,,,"[""space"",""space"",""space"",""space"",""space"",""space"",""space"",""space"",""space"",""space"",""space"",""space"",""space"",""space"",""space"",""space"",""space"",""space"",""space""]","[1.3520000000000891,2.0060000000000855,2.6010000000001128,3.175000000000182,3.8230000000000928,4.408000000000129,4.994000000000142,5.635999999999967,6.379000000000133,6.925000000000182,7.538000000000011,8.21400000000017,8.751000000000204,9.438000000000102,10.111000000000104,10.726000000000113,11.371000000000095,12.045000000000073,12.693000000000211]",space,1.153,0.0,2.0,2.0,0.0,1.0,,
,,,,,,,,,,,block_2/weak_t_119_2.wav,timbre,t,weak,119.0,2.381776461,12.65062,,,,No,,0,No,F,66,L,Yes,1,2020-10-04_12h32.21.589,kura-A1,2020.1.2,MacIntel,60,,,,,,,,,,,,,,"[""space"",""space"",""space"",""space"",""space"",""space"",""space"",""space"",""space"",""space"",""space"",""space"",""space"",""space"",""space"",""space"",""space"",""space"",""space""]","[1.477999999999838,1.90300000000002,2.342999999999847,3.283999999999878,3.6929999999999836,4.095000000000027,4.483999999999924,4.891999999999825,5.3559999999999945,5.807999999999993,6.342999999999847,6.751999999999953,7.205999999999904,7.736999999999853,8.24799999999982,8.80099999999993,9.324999999999818,9.82899999999995,10.334999999999809]",space,3.058,0.0,3.0,3.0,13.0,1.0,,
,,,,,,,,,,,block_2/medium_t_119_1.wav,timbre,t,medium,119.0,2.133191859,13.15799912,,,,No,,0,No,F,66,L,Yes,1,2020-10-04_12h32.21.589,kura-A1,2020.1.2,MacIntel,60,,,,,,,,,,,,,,"[""space"",""space"",""space"",""space"",""space"",""space"",""space"",""space"",""space"",""space"",""space"",""space"",""space"",""space"",""space"",""space"",""space"",""space"",""space"",""space""]","[0.8579999999999472,1.5270000000000437,2.0289999999999964,2.5419999999999163,3.0319999999999254,3.6340000000000146,4.211000000000013,4.758000000000038,5.308999999999969,5.837999999999965,6.34699999999998,6.892000000000053,7.475999999999885,7.9909999999999854,8.507000000000062,9.054000000000087,9.565000000000055,10.07899999999995,10.610999999999876,11.158999999999878]",space,1.067,0.0,4.0,4.0,34.0,1.0,,
,,,,,,,,,,,block_2/weak_t_92_1.wav,timbre,t,weak,92.0,1.077881565,14.47407204,,,,No,,0,No,F,66,L,Yes,1,2020-10-04_12h32.21.589,kura-A1,2020.1.2,MacIntel,60,,,,,,,,,,,,,,"[""space"",""space"",""space"",""space"",""space"",""space"",""space"",""space"",""space"",""space"",""space"",""space"",""space"",""space"",""space"",""space"",""space""]","[2.8400000000001455,3.5570000000000164,4.372000000000071,5.039999999999964,5.642000000000053,6.246000000000095,6.901000000000067,7.514000000000124,8.164999999999964,8.923000000000002,9.55600000000004,10.207000000000107,10.855999999999995,11.495000000000118,12.120000000000118,12.771999999999935,13.498000000000047]",space,3.641,0.0,5.0,5.0,33.0,1.0,,
,,,,,,,,,,,block_2/none_t_92_2.wav,timbre,t,none,92.0,1.981316359,18.5242642,,,,No,,0,No,F,66,L,Yes,1,2020-10-04_12h32.21.589,kura-A1,2020.1.2,MacIntel,60,,,,,,,,,,,,,,"[""space"",""space"",""space"",""space"",""space"",""space"",""space"",""space"",""space"",""space"",""space"",""space"",""space"",""space"",""space"",""space"",""space"",""space"",""space"",""space"",""space"",""space""]","[2.18100000000004,2.7390000000000327,3.7539999999999054,4.663999999999987,5.412000000000035,6.091999999999871,6.753999999999905,7.414999999999964,8.09699999999998,8.76299999999992,9.437999999999874,10.200999999999794,10.961000000000013,11.606999999999971,12.345000000000027,12.92599999999993,13.461000000000013,14.101999999999862,14.69399999999996,15.279999999999973,15.875,16.386999999999944]",space,2.43,0.0,6.0,6.0,18.0,1.0,,
,,,,,,,,,,,block_2/strong_t_72_1.wav,timbre,t,strong,72.0,1.104397067,17.67881884,,,,No,,0,No,F,66,L,Yes,1,2020-10-04_12h32.21.589,kura-A1,2020.1.2,MacIntel,60,,,,,,,,,,,,,,"[""space"",""space"",""space"",""space"",""space"",""space"",""space"",""space"",""space"",""space"",""space"",""space"",""space"",""space"",""space"",""space"",""space"",""space"",""space""]","[2.0779999999999745,2.856999999999971,3.65300000000002,4.52800000000002,5.294999999999845,6.087999999999965,6.888999999999896,7.746999999999844,8.561999999999898,9.390999999999849,10.17100000000005,10.989000000000033,11.904999999999973,12.705999999999904,13.57899999999995,14.35400000000027,15.207999999999856,15.982999999999947,16.781999999999925]",space,1.905,0.0,7.0,7.0,9.0,1.0,,
,,,,,,,,,,,block_2/none_t_105_1.wav,timbre,t,none,105.0,2.049885048,16.17201657,,,,No,,0,No,F,66,L,Yes,1,2020-10-04_12h32.21.589,kura-A1,2020.1.2,MacIntel,60,,,,,,,,,,,,,,"[""space"",""space"",""space"",""space"",""space"",""space"",""space"",""space"",""space"",""space"",""space"",""space""]","[4.8900000000001,5.691000000000031,6.510000000000218,7.344000000000051,8.120000000000118,8.923000000000002,9.801000000000158,10.606999999999971,11.438000000000102,12.340000000000146,13.180000000000064,14.121000000000095]",space,1.441,0.0,8.0,8.0,17.0,1.0,,
,,,,,,,,,,,block_2/none_t_81_2.wav,timbre,t,none,81.0,2.376288721,21.12975811,,,,No,,0,No,F,66,L,Yes,1,2020-10-04_12h32.21.589,kura-A1,2020.1.2,MacIntel,60,,,,,,,,,,,,,,"[""space"",""space"",""space"",""space"",""space"",""space"",""space"",""space"",""space"",""space"",""space"",""space"",""space"",""space"",""space"",""space"",""space"",""space"",""space"",""space"",""space""]","[2.9149999999999636,3.6849999999999454,4.4809999999999945,5.253999999999905,6.095000000000027,6.856999999999971,7.6440000000000055,8.460000000000036,9.330999999999904,10.105999999999995,10.988000000000056,11.884999999999991,12.677999999999884,13.526000000000067,14.357999999999947,15.211999999999989,16.007000000000062,16.860999999999876,17.60199999999986,18.28800000000001,18.954999999999927]",space,1.428,0.0,9.0,9.0,10.0,1.0,,
,,,,,,,,,,,block_2/none_t_92_1.wav,timbre,t,none,92.0,2.07216362,14.90350149,,,,No,,0,No,F,66,L,Yes,1,2020-10-04_12h32.21.589,kura-A1,2020.1.2,MacIntel,60,,,,,,,,,,,,,,"[""space"",""space"",""space"",""space"",""space"",""space"",""space"",""space"",""space"",""space"",""space"",""space"",""space"",""space"",""space""]","[2.4069999999999254,3.1720000000000255,4.079999999999927,4.755999999999858,5.614000000000033,6.44399999999996,7.127999999999929,7.7719999999999345,8.586000000000013,9.368999999999915,10.185999999999922,10.958000000000084,11.617999999999938,12.29099999999994,13.05099999999993]",space,1.101,0.0,10.0,10.0,15.0,1.0,,
,,,,,,,,,,,block_2/weak_t_92_2.wav,timbre,t,weak,92.0,1.897128492,17.06302418,,,,No,,0,No,F,66,L,Yes,1,2020-10-04_12h32.21.589,kura-A1,2020.1.2,MacIntel,60,,,,,,,,,,,,,,"[""space"",""space"",""space"",""space"",""space"",""space"",""space"",""space"",""space"",""space"",""space"",""space"",""space"",""space"",""space"",""space"",""space"",""space"",""space""]","[1.3399999999999181,2.1109999999998763,2.8840000000000146,3.6949999999999363,4.471000000000004,5.298999999999978,6.000999999999976,6.83199999999988,7.564999999999827,8.392999999999802,9.169999999999845,9.901999999999816,10.696999999999889,11.411999999999807,12.139999999999873,12.921999999999798,13.70699999999988,14.481999999999971,15.233999999999924]",space,1.796,0.0,11.0,11.0,37.0,1.0,,
,,,,,,,,,,,block_2/strong_t_119_1.wav,timbre,t,strong,119.0,1.599889289,11.56710017,,,,No,,0,No,F,66,L,Yes,1,2020-10-04_12h32.21.589,kura-A1,2020.1.2,MacIntel,60,,,,,,,,,,,,,,"[""space"",""space"",""space"",""space"",""space"",""space"",""space"",""space"",""space"",""space"",""space"",""space"",""space"",""space"",""space"",""space"",""space"",""space"",""space"",""space""]","[0.8300000000001546,1.1359999999999673,1.6170000000001892,2.119000000000142,2.615000000000009,3.094000000000051,3.5920000000000982,4.092000000000098,4.58400000000006,5.094000000000051,5.592000000000098,6.089000000000169,6.614000000000033,7.091000000000122,7.605000000000018,8.098000000000184,8.603000000000065,9.129000000000133,9.610000000000127,10.073000000000093]",space,2.444,0.0,12.0,12.0,27.0,1.0,,
,,,,,,,,,,,block_2/strong_t_81_2.wav,timbre,t,strong,81.0,1.682183604,15.83846478,,,,No,,0,No,F,66,L,Yes,1,2020-10-04_12h32.21.589,kura-A1,2020.1.2,MacIntel,60,,,,,,,,,,,,,,"[""space"",""space"",""space"",""space"",""space"",""space"",""space"",""space"",""space"",""space"",""space"",""space"",""space"",""space"",""space"",""space"",""space"",""space"",""space""]","[1.4120000000000346,2.12700000000018,2.8680000000001655,3.5800000000001546,4.23700000000008,4.954000000000178,5.651000000000067,6.374000000000024,7.1180000000001655,7.855000000000018,8.615000000000009,9.298000000000002,10.006000000000085,10.68100000000004,11.40300000000002,12.178000000000111,12.873000000000047,13.585000000000036,14.29300000000012]",space,4.598,0.0,13.0,13.0,26.0,1.0,,
,,,,,,,,,,,block_2/strong_t_105_2.wav,timbre,t,strong,105.0,1.902812304,12.72943362,,,,No,,0,No,F,66,L,Yes,1,2020-10-04_12h32.21.589,kura-A1,2020.1.2,MacIntel,60,,,,,,,,,,,,,,"[""space"",""space"",""space"",""space"",""space"",""space"",""space"",""space"",""space"",""space"",""space"",""space"",""space"",""space"",""space"",""space"",""space"",""space"",""space""]","[1.1900000000000546,1.663000000000011,2.1319999999998345,2.647999999999911,3.229000000000042,3.7690000000000055,4.3250000000000455,4.894999999999982,5.445999999999913,6.042999999999893,6.6310000000000855,7.162000000000035,7.685999999999922,8.196999999999889,8.759999999999991,9.33199999999988,9.875999999999976,10.42100000000005,10.942999999999984]",space,3.977,0.0,14.0,14.0,22.0,1.0,,
,,,,,,,,,,,block_2/strong_t_92_1.wav,timbre,t,strong,92.0,2.398655974,13.52958568,,,,No,,0,No,F,66,L,Yes,1,2020-10-04_12h32.21.589,kura-A1,2020.1.2,MacIntel,60,,,,,,,,,,,,,,"[""space"",""space"",""space"",""space"",""space"",""space"",""space"",""space"",""space"",""space"",""space"",""space"",""space"",""space"",""space"",""space"",""space"",""space"",""space""]","[1.219000000000051,1.5700000000001637,2.1180000000001655,2.675000000000182,3.244000000000142,3.798999999999978,4.361000000000104,4.938000000000102,5.538000000000011,6.096000000000004,6.665000000000191,7.262000000000171,7.819000000000187,8.382000000000062,8.948000000000093,9.513000000000147,10.091000000000122,10.69600000000014,11.316000000000031]",space,1.426,0.0,15.0,15.0,1.0,1.0,,
,,,,,,,,,,,block_2/medium_t_72_2.wav,timbre,t,medium,72.0,1.613581299,18.7474135,,,,No,,0,No,F,66,L,Yes,1,2020-10-04_12h32.21.589,kura-A1,2020.1.2,MacIntel,60,,,,,,,,,,,,,,"[""space"",""space"",""space"",""space"",""space"",""space"",""space"",""space"",""space"",""space"",""space"",""space"",""space"",""space"",""space"",""space"",""space"",""space""]","[1.4710000000000036,2.395000000000209,3.2890000000002146,4.20900000000006,5.045000000000073,5.970000000000027,6.735000000000127,7.629000000000133,8.467000000000098,9.370000000000118,10.275000000000091,11.240000000000009,12.025000000000091,12.844000000000051,13.705000000000155,14.680000000000064,15.70900000000006,16.501000000000204]",space,0.637,0.0,16.0,16.0,28.0,1.0,,
,,,,,,,,,,,block_2/weak_t_81_1.wav,timbre,t,weak,81.0,1.591601339,16.65690746,,,,No,,0,No,F,66,L,Yes,1,2020-10-04_12h32.21.589,kura-A1,2020.1.2,MacIntel,60,,,,,,,,,,,,,,"[""space"",""space"",""space"",""space"",""space"",""space"",""space"",""space"",""space"",""space"",""space"",""space"",""space"",""space"",""space"",""space"",""space"",""space""]","[0.9800000000000182,1.77800000000002,2.5850000000000364,3.744999999999891,5.263999999999896,6.01299999999992,6.8689999999999145,7.7029999999999745,8.451999999999998,9.353999999999814,10.13799999999992,10.811999999999898,11.451999999999998,12.194999999999936,13.027000000000271,13.839999999999918,14.605000000000018,15.361999999999853]",space,3.523,0.0,17.0,17.0,8.0,1.0,,
,,,,,,,,,,,block_2/medium_t_92_1.wav,timbre,t,medium,92.0,1.649670592,15.35429644,,,,No,,0,No,F,66,L,Yes,1,2020-10-04_12h32.21.589,kura-A1,2020.1.2,MacIntel,60,,,,,,,,,,,,,,"[""space"",""space"",""space"",""space"",""space"",""space"",""space"",""space"",""space"",""space"",""space"",""space"",""space"",""space"",""space"",""space"",""space"",""space"",""space"",""space""]","[0.7899999999999636,1.3179999999999836,1.87299999999982,2.5979999999999563,3.30399999999986,4.061999999999898,4.7409999999999854,5.399999999999864,6.182000000000016,6.899999999999864,7.587999999999965,8.31899999999996,8.961999999999989,9.659999999999854,10.327999999999975,11.086999999999989,11.731999999999971,12.490000000000009,13.173000000000002,13.842999999999847]",space,1.496,0.0,18.0,18.0,36.0,1.0,,
,,,,,,,,,,,block_2/strong_t_72_2.wav,timbre,t,strong,72.0,2.404328943,17.8229684,,,,No,,0,No,F,66,L,Yes,1,2020-10-04_12h32.21.589,kura-A1,2020.1.2,MacIntel,60,,,,,,,,,,,,,,"[""space"",""space"",""space"",""space"",""space"",""space"",""space"",""space"",""space"",""space"",""space"",""space"",""space"",""space"",""space"",""space"",""space"",""space"",""space"",""space""]","[0.8940000000000055,1.3339999999998327,2.168999999999869,2.951999999999998,3.702999999999747,4.504999999999882,5.27599999999984,6.036999999999807,6.783999999999878,7.632999999999811,8.403999999999996,9.212999999999965,10.002999999999929,10.853999999999814,11.67899999999986,12.42899999999986,13.223999999999933,14.058999999999969,14.806999999999789,15.630999999999858]",space,1.161,0.0,19.0,19.0,6.0,1.0,,
,,,,,,,,,,,block_2/strong_t_119_2.wav,timbre,t,strong,119.0,1.752168489,11.36699842,,,,No,,0,No,F,66,L,Yes,1,2020-10-04_12h32.21.589,kura-A1,2020.1.2,MacIntel,60,,,,,,,,,,,,,,"[""space"",""space"",""space"",""space"",""space"",""space"",""space"",""space"",""space"",""space"",""space"",""space"",""space"",""space"",""space"",""space"",""space"",""space"",""space"",""space""]","[0.7529999999999291,1.0419999999999163,1.509999999999991,1.9980000000000473,2.4579999999998563,2.97199999999998,3.461999999999989,3.941000000000031,4.406999999999925,4.877999999999929,5.389999999999873,5.854000000000042,6.338999999999942,6.817000000000007,7.286000000000058,7.798999999999978,8.27800000000002,8.7349999999999,9.230000000000018,9.720000000000027]",space,2.188,0.0,20.0,20.0,31.0,1.0,,
,,,,,,,,,,,block_2/strong_t_105_1.wav,timbre,t,strong,105.0,2.348438476,14.79111421,,,,No,,0,No,F,66,L,Yes,1,2020-10-04_12h32.21.589,kura-A1,2020.1.2,MacIntel,60,,,,,,,,,,,,,,"[""space"",""space"",""space"",""space"",""space"",""space"",""space"",""space"",""space"",""space"",""space"",""space"",""space"",""space"",""space"",""space"",""space"",""space"",""space""]","[1.240000000000009,1.7299999999997908,2.3739999999997963,3.043999999999869,3.685999999999922,4.342999999999847,4.906999999999925,5.551999999999907,6.164000000000215,6.808999999999969,7.430999999999813,8.086000000000013,8.751999999999953,9.436999999999898,10.048000000000002,10.674999999999955,11.259999999999991,11.830999999999904,12.580999999999904]",space,13.623,0.0,21.0,21.0,20.0,1.0,,
,,,,,,,,,,,block_2/weak_t_105_2.wav,timbre,t,weak,105.0,2.1216156,16.06451809,,,,No,,0,No,F,66,L,Yes,1,2020-10-04_12h32.21.589,kura-A1,2020.1.2,MacIntel,60,,,,,,,,,,,,,,"[""space"",""space"",""space"",""space"",""space"",""space"",""space"",""space"",""space"",""space"",""space"",""space"",""space"",""space"",""space"",""space"",""space""]","[1.4329999999999927,2.5239999999998872,3.3379999999999654,3.9139999999999873,4.645999999999958,5.54099999999994,6.2690000000000055,7.212999999999965,7.845000000000027,8.464999999999918,9.029999999999973,9.692999999999984,10.307000000000016,11.099999999999909,11.807000000000016,13.250999999999976,14.107999999999947]",space,8.926,0.0,22.0,22.0,2.0,1.0,,
,,,,,,,,,,,block_2/none_t_119_1.wav,timbre,t,none,119.0,1.241510023,14.60305197,,,,No,,0,No,F,66,L,Yes,1,2020-10-04_12h32.21.589,kura-A1,2020.1.2,MacIntel,60,,,,,,,,,,,,,,"[""space"",""space"",""space"",""space"",""space"",""space"",""space"",""space"",""space"",""space""]","[5.66800000000012,6.398000000000138,7.1310000000000855,7.964000000000169,8.702999999999975,9.635999999999967,10.624000000000024,11.454999999999927,12.336999999999989,13.218000000000075]",space,1.51,0.0,23.0,23.0,39.0,1.0,,
,,,,,,,,,,,block_2/medium_t_92_2.wav,timbre,t,medium,92.0,2.383848972,15.42820271,,,,No,,0,No,F,66,L,Yes,1,2020-10-04_12h32.21.589,kura-A1,2020.1.2,MacIntel,60,,,,,,,,,,,,,,"[""space"",""space"",""space"",""space"",""space"",""space"",""space"",""space"",""space"",""space"",""space"",""space"",""space"",""space"",""space"",""space"",""space"",""space"",""space"",""space""]","[0.8790000000001328,1.5050000000001091,2.1590000000001055,2.803000000000111,3.4600000000000364,4.057000000000016,4.820000000000164,5.408000000000129,6.0750000000000455,6.735000000000127,7.370000000000118,7.996000000000095,8.744000000000142,9.438000000000102,10.083000000000084,10.72700000000009,11.388000000000147,11.903999999999996,12.562000000000126,13.195000000000164]",space,1.02,0.0,24.0,24.0,32.0,1.0,,
,,,,,,,,,,,block_2/medium_t_105_1.wav,timbre,t,medium,105.0,1.073604292,13.26340021,,,,No,,0,No,F,66,L,Yes,1,2020-10-04_12h32.21.589,kura-A1,2020.1.2,MacIntel,60,,,,,,,,,,,,,,"[""space"",""space"",""space"",""space"",""space"",""space"",""space"",""space"",""space"",""space"",""space"",""space"",""space"",""space"",""space"",""space"",""space"",""space""]","[1.678000000000111,2.45900000000006,3.0850000000000364,3.6490000000001146,4.1340000000000146,4.718000000000075,5.34699999999998,5.889000000000124,6.500999999999976,7.105000000000018,7.714000000000169,8.404999999999973,9.109000000000378,9.73700000000008,10.329000000000178,10.95900000000006,11.552000000000135,12.22199999999998]",space,1.119,0.0,25.0,25.0,16.0,1.0,,
,,,,,,,,,,,block_2/none_t_119_2.wav,timbre,t,none,119.0,1.129624063,11.70173291,,,,No,,0,No,F,66,L,Yes,1,2020-10-04_12h32.21.589,kura-A1,2020.1.2,MacIntel,60,,,,,,,,,,,,,,"[""space"",""space"",""space"",""space"",""space"",""space"",""space"",""space"",""space"",""space""]","[0.7170000000003256,1.5960000000000036,2.810999999999922,3.492999999999938,4.76299999999992,5.651000000000067,6.7690000000000055,7.70900000000006,8.841000000000122,9.855000000000018]",space,1.18,0.0,26.0,26.0,35.0,1.0,,
,,,,,,,,,,,block_2/weak_t_72_1.wav,timbre,t,weak,72.0,1.161723604,18.236871,,,,No,,0,No,F,66,L,Yes,1,2020-10-04_12h32.21.589,kura-A1,2020.1.2,MacIntel,60,,,,,,,,,,,,,,"[""space"",""space"",""space"",""space"",""space"",""space"",""space"",""space"",""space"",""space"",""space"",""space"",""space"",""space"",""space"",""space"",""space"",""space"",""space"",""space"",""space"",""space"",""space""]","[1.3430000000000746,2.005000000000109,2.7920000000001437,3.6800000000000637,4.410000000000082,5.331000000000131,6.177000000000135,6.854000000000042,7.5090000000000146,8.276000000000067,8.848000000000184,9.582000000000107,10.27800000000002,11.024000000000115,11.779999999999973,12.403999999999996,13.07400000000007,13.782000000000153,14.522000000000162,15.313000000000102,16.019999999999982,16.7320000000002,17.298000000000002]",space,0.747,0.0,27.0,27.0,29.0,1.0,,
,,,,,,,,,,,block_2/none_t_72_1.wav,timbre,t,none,72.0,1.393664986,20.37801873,,,,No,,0,No,F,66,L,Yes,1,2020-10-04_12h32.21.589,kura-A1,2020.1.2,MacIntel,60,,,,,,,,,,,,,,"[""space"",""space"",""space"",""space"",""space"",""space"",""space"",""space"",""space"",""space"",""space"",""space"",""space"",""space"",""space"",""space"",""space"",""space"",""space"",""space"",""space"",""space""]","[0.7820000000001528,1.4829999999999472,2.3500000000001364,3.2360000000001037,3.953000000000202,5.009999999999991,5.95900000000006,7.194000000000187,7.956000000000131,8.734000000000151,9.552000000000135,10.19600000000014,10.955000000000155,11.761000000000195,12.663000000000011,13.422000000000025,14.210000000000036,15.057999999999993,15.951999999999998,16.807999999999993,17.545000000000073,18.3420000000001]",space,1.412,0.0,28.0,28.0,23.0,1.0,,
,,,,,,,,,,,block_2/none_t_81_1.wav,timbre,t,none,81.0,1.797175978,16.13359321,,,,No,,0,No,F,66,L,Yes,1,2020-10-04_12h32.21.589,kura-A1,2020.1.2,MacIntel,60,,,,,,,,,,,,,,"[""space"",""space"",""space"",""space"",""space"",""space"",""space"",""space"",""space"",""space"",""space"",""space"",""space"",""space"",""space""]","[5.210000000000036,6.106999999999971,6.872000000000071,7.485000000000127,8.064000000000078,8.670000000000073,9.386999999999944,10.063000000000102,10.613000000000056,11.129000000000133,11.67100000000005,12.229000000000042,12.769000000000005,13.434999999999945,14.183999999999969]",space,0.668,0.0,29.0,29.0,11.0,1.0,,
,,,,,,,,,,,block_2/medium_t_81_2.wav,timbre,t,medium,81.0,1.338539444,16.50597709,,,,No,,0,No,F,66,L,Yes,1,2020-10-04_12h32.21.589,kura-A1,2020.1.2,MacIntel,60,,,,,,,,,,,,,,"[""space"",""space"",""space"",""space"",""space"",""space"",""space"",""space"",""space"",""space"",""space"",""space"",""space"",""space"",""space"",""space"",""space"",""space""]","[1.9969999999998436,2.785999999999831,3.5499999999999545,4.320999999999913,5.1909999999998035,5.970000000000027,6.711999999999989,7.448999999999842,8.190999999999804,8.995999999999867,9.722999999999956,10.500999999999976,11.265999999999849,12.039999999999964,12.857999999999947,13.579999999999927,14.367999999999938,15.154000000000224]",space,0.99,0.0,30.0,30.0,7.0,1.0,,
,,,,,,,,,,,block_2/none_t_105_2.wav,timbre,t,none,105.0,1.468449628,14.54844963,,,,No,,0,No,F,66,L,Yes,1,2020-10-04_12h32.21.589,kura-A1,2020.1.2,MacIntel,60,,,,,,,,,,,,,,"[""space"",""space"",""space"",""space"",""space"",""space"",""space"",""space"",""space"",""space"",""space"",""space"",""space""]","[0.34699999999998,1.1420000000000528,2.1080000000001746,3.0790000000001783,4.025000000000091,5.083000000000084,6.250999999999976,7.41800000000012,8.498000000000047,9.606999999999971,10.534000000000106,11.601000000000113,12.748000000000047]",space,0.55,0.0,31.0,31.0,14.0,1.0,,
,,,,,,,,,,,block_2/strong_t_92_2.wav,timbre,t,strong,92.0,2.142189268,15.39026183,,,,No,,0,No,F,66,L,Yes,1,2020-10-04_12h32.21.589,kura-A1,2020.1.2,MacIntel,60,,,,,,,,,,,,,,"[""space"",""space"",""space"",""space"",""space"",""space"",""space"",""space"",""space"",""space"",""space"",""space"",""space"",""space"",""space"",""space"",""space"",""space"",""space""]","[1.3110000000001492,1.9290000000000873,2.6010000000001128,3.257000000000062,3.9350000000004,4.598000000000184,5.2710000000001855,5.951000000000022,6.628000000000156,7.314000000000078,8.02800000000002,8.659000000000106,9.376000000000204,10.011999999999944,10.667000000000144,11.301000000000158,11.937000000000126,12.578000000000202,13.217000000000098]",space,1.013,0.0,32.0,32.0,3.0,1.0,,
,,,,,,,,,,,block_2/strong_t_81_1.wav,timbre,t,strong,81.0,1.294160312,15.54953446,,,,No,,0,No,F,66,L,Yes,1,2020-10-04_12h32.21.589,kura-A1,2020.1.2,MacIntel,60,,,,,,,,,,,,,,"[""space"",""space"",""space"",""space"",""space"",""space"",""space"",""space"",""space"",""space"",""space"",""space"",""space"",""space"",""space"",""space"",""space"",""space"",""space"",""space""]","[1.0170000000000528,1.5779999999999745,2.2940000000000964,2.9860000000001037,3.6760000000001583,4.3530000000000655,5.08400000000006,5.813000000000102,6.552000000000135,7.27800000000002,8.013000000000147,8.706000000000131,9.405999999999949,10.09900000000016,10.920000000000073,11.603000000000065,12.305000000000064,13.035000000000082,13.741999999999962,14.402000000000044]",space,1.935,0.0,33.0,33.0,30.0,1.0,,
,,,,,,,,,,,block_2/medium_t_105_2.wav,timbre,t,medium,105.0,1.583239388,12.36101717,,,,No,,0,No,F,66,L,Yes,1,2020-10-04_12h32.21.589,kura-A1,2020.1.2,MacIntel,60,,,,,,,,,,,,,,"[""space"",""space"",""space"",""space"",""space"",""space"",""space"",""space"",""space"",""space"",""space"",""space"",""space"",""space"",""space"",""space"",""space"",""space""]","[1.6110000000001037,2.0570000000000164,2.615000000000009,3.0950000000000273,3.7170000000000982,4.2590000000000146,4.835000000000036,5.411000000000058,5.97199999999998,6.451000000000022,7.0499999999999545,7.579999999999927,8.134999999999991,8.717000000000098,9.32899999999995,9.878999999999905,10.432000000000016,11.006000000000085]",space,0.681,0.0,34.0,34.0,19.0,1.0,,
,,,,,,,,,,,block_2/none_t_72_2.wav,timbre,t,none,72.0,2.345629585,20.60318061,,,,No,,0,No,F,66,L,Yes,1,2020-10-04_12h32.21.589,kura-A1,2020.1.2,MacIntel,60,,,,,,,,,,,,,,"[""space"",""space"",""space"",""space"",""space"",""space"",""space"",""space"",""space"",""space"",""space"",""space"",""space"",""space"",""space"",""space"",""space""]","[1.8920000000000528,2.9120000000000346,3.9220000000000255,4.956000000000131,5.971000000000004,7.053000000000111,8.172000000000025,9.245000000000118,10.391000000000076,11.460000000000036,12.564000000000078,13.532000000000153,14.625999999999976,15.638000000000147,16.68100000000004,17.647000000000162,18.532000000000153]",space,3.764,0.0,35.0,35.0,21.0,1.0,,
,,,,,,,,,,,block_2/medium_t_72_1.wav,timbre,t,medium,72.0,1.800053144,19.08504181,,,,No,,0,No,F,66,L,Yes,1,2020-10-04_12h32.21.589,kura-A1,2020.1.2,MacIntel,60,,,,,,,,,,,,,,"[""space"",""space"",""space"",""space"",""space"",""space"",""space"",""space"",""space"",""space"",""space"",""space"",""space"",""space"",""space"",""space"",""space"",""space"",""space"",""space""]","[0.7450000000001182,1.5920000000000982,2.5060000000000855,3.3010000000001583,4.186000000000149,5.072000000000116,5.913000000000011,6.801000000000158,7.624000000000024,8.57400000000007,9.439000000000078,10.251999999999953,11.097000000000207,11.958000000000084,12.819000000000187,13.75500000000011,14.60200000000009,15.445000000000164,16.24200000000019,17.024000000000115]",space,6.631,0.0,36.0,36.0,24.0,1.0,,
,,,,,,,,,,,block_2/medium_t_81_1.wav,timbre,t,medium,81.0,1.868021577,16.02697849,,,,No,,0,No,F,66,L,Yes,1,2020-10-04_12h32.21.589,kura-A1,2020.1.2,MacIntel,60,,,,,,,,,,,,,,"[""space"",""space"",""space"",""space"",""space"",""space"",""space"",""space"",""space"",""space"",""space"",""space"",""space"",""space"",""space"",""space"",""space"",""space""]","[1.8790000000001328,2.6110000000001037,3.3170000000000073,4.038999999999987,4.759999999999991,5.490000000000009,6.201000000000022,6.935000000000173,7.670000000000073,8.37700000000018,9.180000000000064,9.856999999999971,10.513000000000375,11.266000000000076,11.972999999999956,12.769999999999982,13.500999999999976,14.204000000000178]",space,5.34,0.0,37.0,37.0,4.0,1.0,,
,,,,,,,,,,,block_2/weak_t_81_2.wav,timbre,t,weak,81.0,1.659662472,15.06274637,,,,No,,0,No,F,66,L,Yes,1,2020-10-04_12h32.21.589,kura-A1,2020.1.2,MacIntel,60,,,,,,,,,,,,,,"[""space"",""space"",""space"",""space"",""space"",""space"",""space"",""space"",""space"",""space"",""space"",""space"",""space"",""space"",""space"",""space"",""space"",""space""]","[1.7560000000000855,2.4710000000000036,3.071999999999889,3.7450000000003456,4.453999999999951,5.173999999999978,6.023000000000138,6.842000000000098,7.451999999999998,8.13000000000011,8.872000000000071,9.47700000000009,10.115000000000009,10.815000000000055,11.508000000000038,12.154999999999973,12.792000000000144,13.497000000000071]",space,2.384,0.0,38.0,38.0,5.0,1.0,,
,,,,,,,,,,,block_2/medium_t_119_2.wav,timbre,t,medium,119.0,1.931946566,12.84791029,,,,No,,0,No,F,66,L,Yes,1,2020-10-04_12h32.21.589,kura-A1,2020.1.2,MacIntel,60,,,,,,,,,,,,,,"[""space"",""space"",""space"",""space"",""space"",""space"",""space"",""space"",""space"",""space"",""space"",""space""]","[5.545000000000073,5.98700000000008,6.587999999999965,7.169000000000096,7.675999999999931,8.17599999999993,8.626999999999953,9.034000000000106,9.557000000000016,10.107999999999947,10.592000000000098,11.082000000000107]",space,1.455,0.0,39.0,39.0,38.0,1.0,,
,,,,,,,,,,,,,,,,,,,,,No,,0,No,F,66,L,Yes,1,2020-10-04_12h32.21.589,kura-A1,2020.1.2,MacIntel,60,,,,,,,,,,,,,,,,,,,,,,,space,57.525
