key_resp.keys,key_resp.rt,practice_taps.keys,practice_taps.rt,keyresp.keys,keyresp.rt,practice_stims_loop.thisRepN,practice_stims_loop.thisTrialN,practice_stims_loop.thisN,practice_stims_loop.thisIndex,practice_stims_loop.ran,sndfile,type,tempo,cond,version,delay,dur,Participant Initials,"If you are a MTurk worker, what is your MTurk worker ID?","If you are not an MTurk worker, please provide your email address",Are you wearing headphones?,What are the headphone make and model?,"How many years of musical training, if any, do you have?",Do you have any hearing problems? Please describe,What is your sex (f/m/decline)?,What is your age?,What is your handedness (R/L/ambi)?,Are you currently in a secure and quiet room without a possible interruption?,session ,date,expName,psychopyVersion,OS,frameRate,instructions_prompt.keys,instructions_prompt.rt,block1_taps.keys,block1_taps.rt,key_resp_2.keys,key_resp_2.rt,trials.thisRepN,trials.thisTrialN,trials.thisN,trials.thisIndex,trials.ran,key_resp2.keys,key_resp2.rt,block2_taps.keys,block2_taps.rt,key_resp_3.keys,key_resp_3.rt,trials_2.thisRepN,trials_2.thisTrialN,trials_2.thisN,trials_2.thisIndex,trials_2.ran,key_resp_4.keys,key_resp_4.rt
space,7.23425,"[""space"",""space"",""space"",""space"",""space"",""space"",""space"",""space"",""space"",""space"",""space"",""space"",""space"",""space"",""space""]","[2.269315000041388,2.7527150000678375,3.1369500000728294,3.5320899999933317,3.9545800000196323,4.397425000090152,4.899380000075325,5.407495000050403,5.846544999978505,6.297115000081249,6.7465350000420585,7.224920000066049,7.660440000006929,8.108225000090897,8.522620000061579]",space,2.64082,0.0,0.0,0.0,1.0,1.0,block_2/medium_n_119_4.wav,no,n,medium,119.0,1.224634286,9.531709116,,,,yes,sony,19,no,f,25,R,yes,1,2020-09-10_18h03.12.198,kura-B2,2020.1.2,MacIntel,60,,,,,,,,,,,,,,,,,,,,,,,,
,,"[""space"",""space"",""space"",""space"",""space"",""space"",""space"",""space"",""space"",""space"",""space"",""space"",""space"",""space"",""space"",""space"",""space"",""space""]","[1.0124000000068918,1.4192350000375882,1.9294600000139326,2.396290000062436,2.885785000049509,3.6428800000576302,4.294590000063181,4.901960000046529,5.5170400000642985,6.305000000051223,6.917209999985062,7.433055000030436,7.983950000023469,8.54921500000637,9.038835000013933,9.534950000001118,10.035715000005439,10.554684999980964]",space,0.65207,0.0,1.0,1.0,2.0,1.0,block_2/weak_n_105_4.wav,no,n,weak,105.0,1.982674472,12.75578105,,,,yes,sony,19,no,f,25,R,yes,1,2020-09-10_18h03.12.198,kura-B2,2020.1.2,MacIntel,60,,,,,,,,,,,,,,,,,,,,,,,,
,,"[""space"",""space"",""space"",""space"",""space"",""space"",""space"",""space"",""space"",""space"",""space"",""space"",""space"",""space"",""space"",""space"",""space"",""space"",""space"",""space""]","[0.32068499992601573,0.9444849999854341,1.652944999979809,2.0084949999582022,2.4471449999837205,2.9806099999696016,3.4219349999912083,3.93812499998603,4.405364999896847,4.856449999962933,5.348379999981262,5.882279999903403,6.3820499998983,6.891279999981634,7.461134999990463,7.914339999901131,8.386464999988675,8.935614999965765,9.452004999970086,9.98664999997709]",space,0.73529,0.0,2.0,2.0,3.0,1.0,block_1/medium_t_119_4.wav,timbre,t,medium,119.0,1.752316959,11.57313329,,,,yes,sony,19,no,f,25,R,yes,1,2020-09-10_18h03.12.198,kura-B2,2020.1.2,MacIntel,60,,,,,,,,,,,,,,,,,,,,,,,,
,,"[""space"",""space"",""space"",""space"",""space"",""space"",""space"",""space"",""space"",""space"",""space"",""space"",""space"",""space"",""space"",""space"",""space"",""space"",""space"",""space"",""space"",""space"",""space""]","[0.19675000000279397,0.6668700000736862,1.458809999981895,2.1757000000216067,2.9166149999946356,3.6567800000775605,4.398649999988265,5.161844999995083,6.044420000049286,6.661949999979697,7.322065000073053,8.047084999969229,8.76315999997314,9.447604999993928,10.239990000030957,10.902774999965914,11.573465000023134,12.27332999999635,12.940850000013597,13.589690000051633,14.309080000035465,15.017164999968372,15.668185000075027]",space,1.838545,0.0,3.0,3.0,0.0,1.0,block_2/none_n_92_3.wav,no,n,none,92.0,2.306164339,18.20620969,,,,yes,sony,19,no,f,25,R,yes,1,2020-09-10_18h03.12.198,kura-B2,2020.1.2,MacIntel,60,,,,,,,,,,,,,,,,,,,,,,,,
,,,,,,,,,,,block_1/weak_t_119_3.wav,timbre,t,weak,119.0,1.729530605,11.14109523,,,,yes,sony,19,no,f,25,R,yes,1,2020-09-10_18h03.12.198,kura-B2,2020.1.2,MacIntel,60,space,12.08868,"[""space"",""space"",""space"",""space"",""space"",""space"",""space"",""space"",""space"",""space"",""space"",""space"",""space"",""space"",""space"",""space"",""space"",""space""]","[0.2333199999993667,0.866370000061579,1.3103950000368059,1.8773000000510365,2.361615000059828,2.747285000048578,3.394120000069961,3.8843950000591576,4.394450000021607,4.973340000025928,5.464460000046529,6.062575000105426,6.632320000091568,7.4672150000697,7.864595000050031,8.366790000000037,8.866645000060089,9.338480000034906]",space,0.314165,0.0,0.0,0.0,13.0,1.0,,,,,,,,,,,,,
,,,,,,,,,,,block_1/strong_t_119_4.wav,timbre,t,strong,119.0,1.237037075,11.10492823,,,,yes,sony,19,no,f,25,R,yes,1,2020-09-10_18h03.12.198,kura-B2,2020.1.2,MacIntel,60,,,"[""space"",""space"",""space"",""space"",""space"",""space"",""space"",""space"",""space"",""space"",""space"",""space"",""space"",""space"",""space"",""space"",""space"",""space"",""space"",""space"",""space""]","[0.18722500000149012,0.6849500000244007,1.0027400000253692,1.5239950000541285,2.0193650000728667,2.5262649999931455,3.0159350000321865,3.5386700000381097,4.031195000046864,4.512180000077933,5.008024999988265,5.515880000079051,6.025980000034906,6.543040000018664,7.091310000047088,7.615530000068247,8.059254999971017,8.542235000059009,9.035140000050887,9.559270000085235,10.08519500005059]",space,0.495055,0.0,1.0,1.0,39.0,1.0,,,,,,,,,,,,,
,,,,,,,,,,,block_1/strong_t_81_4.wav,timbre,t,strong,81.0,1.870008989,16.22765071,,,,yes,sony,19,no,f,25,R,yes,1,2020-09-10_18h03.12.198,kura-B2,2020.1.2,MacIntel,60,,,"[""space"",""space"",""space"",""space"",""space"",""space"",""space"",""space"",""space"",""space"",""space"",""space"",""space"",""space"",""space"",""space"",""space"",""space"",""space"",""space"",""space""]","[0.4187699999893084,0.6689900000346825,1.5793500000145286,2.30374500004109,3.0625850000651553,3.7761350000509992,4.497205000021495,5.199230000027455,5.964765000040643,6.670329999993555,7.38222999998834,8.133060000021942,8.843010000069626,9.610394999966957,10.326720000011846,11.021999999997206,11.759710000013001,12.528270000009798,13.245125000015832,13.966604999965057,14.731780000030994]",space,0.436985,0.0,2.0,2.0,34.0,1.0,,,,,,,,,,,,,
,,,,,,,,,,,block_1/strong_t_105_3.wav,timbre,t,strong,105.0,1.518747526,13.05135524,,,,yes,sony,19,no,f,25,R,yes,1,2020-09-10_18h03.12.198,kura-B2,2020.1.2,MacIntel,60,,,"[""space"",""space"",""space"",""space"",""space"",""space"",""space"",""space"",""space"",""space"",""space"",""space"",""space"",""space"",""space"",""space"",""space"",""space"",""space"",""space""]","[0.7810950001003221,1.2532650000648573,1.8225150000071153,2.4035600000061095,2.9719350000377744,3.587445000070147,4.158435000106692,4.7457450000802055,5.3146050000796095,5.919955000048503,6.485335000092164,7.083210000069812,7.683305000071414,8.270650000078604,8.850665000034496,9.47009500011336,10.04570000001695,10.645250000059605,11.221765000023879,11.820570000098087]",space,1.93733,0.0,3.0,3.0,21.0,1.0,,,,,,,,,,,,,
,,,,,,,,,,,block_1/strong_t_92_4.wav,timbre,t,strong,92.0,1.022726917,13.26377,,,,yes,sony,19,no,f,25,R,yes,1,2020-09-10_18h03.12.198,kura-B2,2020.1.2,MacIntel,60,,,"[""space"",""space"",""space"",""space"",""space"",""space"",""space"",""space"",""space"",""space"",""space"",""space"",""space"",""space"",""space"",""space"",""space"",""space"",""space"",""space""]","[0.6528249999973923,1.104894999996759,1.718764999997802,2.3568600000580773,2.974515000008978,3.637430000002496,4.280610000016168,4.864085000008345,5.423320000059903,6.108099999953993,6.773049999959767,7.440545000019483,8.079825000022538,8.697664999985136,9.3249599999981,9.950100000016391,10.726709999958985,11.285724999965169,11.88918499997817,12.602150000049733]",space,2.404715,0.0,4.0,4.0,9.0,1.0,,,,,,,,,,,,,
,,,,,,,,,,,block_1/weak_t_72_3.wav,timbre,t,weak,72.0,1.571303333,17.03996546,,,,yes,sony,19,no,f,25,R,yes,1,2020-09-10_18h03.12.198,kura-B2,2020.1.2,MacIntel,60,,,"[""space"",""space"",""space"",""space"",""space"",""space"",""space"",""space"",""space"",""space"",""space"",""space"",""space"",""space"",""space"",""space"",""space"",""space"",""space"",""space""]","[0.5744000000413507,1.340764999971725,2.0742199999513105,2.869994999957271,3.664299999945797,4.4498149999417365,5.298889999976382,6.187069999985397,6.949084999971092,7.739930000039749,8.549594999989495,9.37436500005424,10.125179999973625,10.890995000023395,11.808294999995269,12.624489999958314,13.431070000049658,14.263105000020005,14.88655000005383,15.779860000009649]",space,0.48508,0.0,5.0,5.0,26.0,1.0,,,,,,,,,,,,,
,,,,,,,,,,,block_1/none_t_72_3.wav,timbre,t,none,72.0,1.707698408,21.90234693,,,,yes,sony,19,no,f,25,R,yes,1,2020-09-10_18h03.12.198,kura-B2,2020.1.2,MacIntel,60,,,"[""space"",""space"",""space"",""space"",""space"",""space"",""space"",""space"",""space"",""space"",""space"",""space"",""space"",""space"",""space"",""space"",""space"",""space"",""space"",""space"",""space"",""space"",""space"",""space"",""space"",""space"",""space"",""space""]","[0.29443500004708767,0.9746499999891967,1.737280000001192,2.5248950000386685,3.138630000059493,3.8625050000846386,4.616550000035204,5.3471550000831485,6.0758500000229105,6.821510000037961,7.530295000062324,8.230885000084527,9.000014999997802,9.750210000085644,10.445320000057109,11.234735000063665,11.969095000065863,12.73530500009656,13.470270000048913,14.272355000022799,15.046925000031479,15.865640000090934,16.34805500006769,17.09835500002373,17.83321499999147,18.583385000005364,19.337785000097938,20.09475500008557]",space,2.430045,0.0,6.0,6.0,19.0,1.0,,,,,,,,,,,,,
,,,,,,,,,,,block_1/weak_t_72_4.wav,timbre,t,weak,72.0,1.01386198,17.48964429,,,,yes,sony,19,no,f,25,R,yes,1,2020-09-10_18h03.12.198,kura-B2,2020.1.2,MacIntel,60,,,"[""space"",""space"",""space"",""space"",""space"",""space"",""space"",""space"",""space"",""space"",""space"",""space"",""space"",""space"",""space"",""space"",""space"",""space"",""space"",""space""]","[0.2798449998954311,0.8348549999063835,1.788124999962747,2.736544999992475,3.6361699999542907,4.463444999884814,5.287999999942258,6.021379999932833,6.841989999986254,7.662989999982528,8.59989999991376,9.450479999999516,10.184204999939539,10.972489999956451,11.468339999904856,12.625704999896698,13.612309999996796,14.5059299999848,15.313614999991842,16.50881999998819]",space,2.53335,0.0,7.0,7.0,33.0,1.0,,,,,,,,,,,,,
,,,,,,,,,,,block_1/none_t_81_4.wav,timbre,t,none,81.0,1.802900323,17.84380735,,,,yes,sony,19,no,f,25,R,yes,1,2020-09-10_18h03.12.198,kura-B2,2020.1.2,MacIntel,60,,,"[""space"",""space"",""space"",""space"",""space"",""space"",""space"",""space"",""space"",""space"",""space"",""space"",""space"",""space"",""space"",""space"",""space"",""space"",""space""]","[0.2005799999460578,0.9517850000411272,1.7902649999596179,2.640690000029281,3.439449999947101,4.2709399999585,5.095594999962486,5.847644999972545,6.885984999942593,7.715779999969527,8.516079999972135,9.423809999949299,10.26679999998305,11.119014999945648,11.935904999962077,12.70498999999836,13.689610000001267,14.488759999978356,15.44348000001628]",space,5.02388,0.0,8.0,8.0,12.0,1.0,,,,,,,,,,,,,
,,,,,,,,,,,block_1/none_t_72_4.wav,timbre,t,none,72.0,1.772355542,25.47190203,,,,yes,sony,19,no,f,25,R,yes,1,2020-09-10_18h03.12.198,kura-B2,2020.1.2,MacIntel,60,,,"[""space"",""space"",""space"",""space"",""space"",""space"",""space"",""space"",""space"",""space"",""space"",""space"",""space"",""space"",""space"",""space"",""space"",""space"",""space"",""space"",""space"",""space"",""space"",""space"",""space"",""space"",""space""]","[0.23623999999836087,0.7417099999729544,1.3755499999970198,2.014865000033751,2.978125000023283,3.898574999999255,4.8666550000198185,5.748069999972358,6.898565000039525,7.484485000022687,8.38270499999635,9.28633000003174,10.219240000005811,11.168395000044256,13.08308999997098,13.948549999971874,14.733080000034533,15.373959999997169,16.257850000052713,17.181940000038594,17.951839999994263,18.805305000045337,19.69211499998346,20.568334999959916,21.39246500004083,22.310795000055805,23.09985500003677]",space,0.5396,0.0,9.0,9.0,15.0,1.0,,,,,,,,,,,,,
,,,,,,,,,,,block_1/strong_t_72_3.wav,timbre,t,strong,72.0,1.503157527,17.98057249,,,,yes,sony,19,no,f,25,R,yes,1,2020-09-10_18h03.12.198,kura-B2,2020.1.2,MacIntel,60,,,"[""space"",""space"",""space"",""space"",""space"",""space"",""space"",""space"",""space"",""space"",""space"",""space"",""space"",""space"",""space"",""space"",""space"",""space"",""space"",""space"",""space""]","[0.5766000000294298,0.9374499999685213,1.744635000010021,2.5881550000049174,3.413635000004433,4.233520000008866,5.114094999968074,5.997854999965057,6.764044999959879,7.6328499999362975,8.450549999950454,9.302885000011884,10.154974999953993,10.985714999958873,11.846664999960922,12.754495000001043,13.68776500003878,14.481215000036173,15.199000000022352,16.004524999996647,17.0675999999512]",space,6.884385,0.0,10.0,10.0,5.0,1.0,,,,,,,,,,,,,
,,,,,,,,,,,block_1/medium_t_92_3.wav,timbre,t,medium,92.0,2.360774731,14.34626226,,,,yes,sony,19,no,f,25,R,yes,1,2020-09-10_18h03.12.198,kura-B2,2020.1.2,MacIntel,60,,,"[""space"",""space"",""space"",""space"",""space"",""space"",""space"",""space"",""space"",""space"",""space"",""space"",""space"",""space"",""space"",""space"",""space"",""space"",""space"",""space"",""space""]","[0.30891000002156943,0.8399199999403208,1.4025200000032783,2.0470300000160933,2.662125000031665,3.3074849999975413,3.88050500000827,4.41446499992162,4.962199999950826,5.607579999952577,6.2245949999196455,6.944015000015497,7.4355999999679625,8.081624999991618,8.708134999964386,9.302144999965094,9.95878999994602,10.476174999959767,11.051409999956377,11.724144999985583,12.261349999927916]",space,1.980625,0.0,11.0,11.0,35.0,1.0,,,,,,,,,,,,,
,,,,,,,,,,,block_1/medium_t_105_3.wav,timbre,t,medium,105.0,1.131854181,11.90867958,,,,yes,sony,19,no,f,25,R,yes,1,2020-09-10_18h03.12.198,kura-B2,2020.1.2,MacIntel,60,,,"[""space"",""space"",""space"",""space"",""space"",""space"",""space"",""space"",""space"",""space"",""space"",""space"",""space"",""space"",""space"",""space"",""space"",""space"",""space"",""space""]","[0.4070050000445917,0.9687449999619275,1.5705900000175461,2.1071549999760464,2.7014699999708682,3.2864449999760836,3.8555400000186637,4.409059999976307,4.90914000000339,5.486490000039339,6.0549550000578165,6.623535000020638,7.180369999958202,7.823240000056103,8.306534999981523,8.865250000031665,9.428779999958351,9.93769000004977,10.509640000062063,11.039970000041649]",space,3.04091,0.0,12.0,12.0,16.0,1.0,,,,,,,,,,,,,
,,,,,,,,,,,block_1/strong_t_72_4.wav,timbre,t,strong,72.0,1.194355845,16.3115894,,,,yes,sony,19,no,f,25,R,yes,1,2020-09-10_18h03.12.198,kura-B2,2020.1.2,MacIntel,60,,,"[""space"",""space"",""space"",""space"",""space"",""space"",""space"",""space"",""space"",""space"",""space"",""space"",""space"",""space"",""space"",""space"",""space"",""space"",""space"",""space""]","[0.8203000000212342,1.1357849999330938,2.171390000032261,2.9719249999616295,3.7177300000330433,4.497205000021495,5.269734999979846,6.049059999990277,6.816424999968149,7.623095000046305,8.422080000047572,9.206239999970421,10.0029649999924,10.768075000029057,11.589090000023134,12.357244999962859,13.126019999966957,13.919710000045598,14.69782000000123,15.504760000039823]",space,2.4364,0.0,13.0,13.0,1.0,1.0,,,,,,,,,,,,,
,,,,,,,,,,,block_1/none_t_105_4.wav,timbre,t,none,105.0,1.782068205,15.59785052,,,,yes,sony,19,no,f,25,R,yes,1,2020-09-10_18h03.12.198,kura-B2,2020.1.2,MacIntel,60,,,"[""space"",""space"",""space"",""space"",""space"",""space"",""space"",""space"",""space"",""space"",""space"",""space"",""space"",""space"",""space"",""space"",""space"",""space""]","[0.22052000008989125,0.7958750000689179,1.443459999980405,2.004079999984242,2.721390000078827,3.38737500004936,4.131675000069663,5.021795000066049,5.881030000047758,6.781829999992624,7.583540000021458,8.416530000045896,9.401405000011437,10.15347500005737,10.995555000030436,11.986275000032037,12.679510000045411,13.482165000052191]",space,2.189335,0.0,14.0,14.0,20.0,1.0,,,,,,,,,,,,,
,,,,,,,,,,,block_1/weak_t_105_3.wav,timbre,t,weak,105.0,2.038080476,13.26905553,,,,yes,sony,19,no,f,25,R,yes,1,2020-09-10_18h03.12.198,kura-B2,2020.1.2,MacIntel,60,,,"[""space"",""space"",""space"",""space"",""space"",""space"",""space"",""space"",""space"",""space"",""space"",""space"",""space"",""space"",""space"",""space"",""space"",""space""]","[0.4194900000002235,0.9909249999327585,1.5927849999861792,2.2029799999436364,2.8454349999083206,3.45429999998305,4.164409999968484,4.669879999943078,5.713334999978542,6.407369999913499,7.0312449999619275,7.632005000021309,8.238069999963045,8.732764999964274,9.333434999920428,9.841679999954067,10.441474999999627,11.06766499998048]",space,0.31163,0.0,15.0,15.0,4.0,1.0,,,,,,,,,,,,,
,,,,,,,,,,,block_1/weak_t_81_4.wav,timbre,t,weak,81.0,2.31768599,15.5134683,,,,yes,sony,19,no,f,25,R,yes,1,2020-09-10_18h03.12.198,kura-B2,2020.1.2,MacIntel,60,,,"[""space"",""space"",""space"",""space"",""space"",""space"",""space"",""space"",""space"",""space"",""space"",""space"",""space"",""space"",""space"",""space"",""space"",""space"",""space"",""space"",""space""]","[0.20854500005953014,0.8519300000043586,1.5234600000549108,2.185920000076294,2.7608450000407174,3.4459100000094622,4.147080000024289,4.873020000057295,5.512675000005402,6.180740000098012,6.842905000085011,7.525475000031292,8.088470000075176,8.851940000080504,9.568475000094622,10.240120000089519,10.9028849999886,11.530574999982491,12.279320000088774,12.92042500001844,13.655330000096]",space,0.761715,0.0,16.0,16.0,0.0,1.0,,,,,,,,,,,,,
,,,,,,,,,,,block_1/weak_t_92_4.wav,timbre,t,weak,92.0,1.530875014,13.01332399,,,,yes,sony,19,no,f,25,R,yes,1,2020-09-10_18h03.12.198,kura-B2,2020.1.2,MacIntel,60,,,"[""space"",""space"",""space"",""space"",""space"",""space"",""space"",""space"",""space"",""space"",""space"",""space"",""space"",""space"",""space"",""space"",""space"",""space"",""space"",""space"",""space""]","[0.24859999993350357,0.6410700000124052,1.2858499999856576,1.8370199999772012,2.387430000002496,2.9360449999803677,3.513150000013411,4.047429999918677,4.6547399999108166,5.25605500000529,5.859775000018999,6.441969999927096,7.107839999953285,7.665529999998398,8.247354999999516,8.77610499993898,9.397099999943748,9.951739999931306,10.551419999916106,11.088744999957271,11.701164999976754]",space,3.738815,0.0,17.0,17.0,29.0,1.0,,,,,,,,,,,,,
,,,,,,,,,,,block_1/medium_t_119_4.wav,timbre,t,medium,119.0,1.399295551,11.22011188,,,,yes,sony,19,no,f,25,R,yes,1,2020-09-10_18h03.12.198,kura-B2,2020.1.2,MacIntel,60,,,"[""space"",""space"",""space"",""space"",""space"",""space"",""space"",""space"",""space"",""space"",""space"",""space"",""space"",""space"",""space"",""space"",""space"",""space""]","[0.3357049999758601,0.9613749999552965,1.5834299999987707,2.065130000002682,2.6184399999910966,3.345314999925904,3.973684999975376,4.565255000023171,5.281089999945834,5.818169999984093,6.384130000020377,6.859960000030696,7.36578999995254,7.9931349999969825,8.542939999955706,9.035184999927878,9.625905000022613,10.078005000017583]",space,0.74575,0.0,18.0,18.0,30.0,1.0,,,,,,,,,,,,,
,,,,,,,,,,,block_1/weak_t_105_4.wav,timbre,t,weak,105.0,1.882880114,13.41285744,,,,yes,sony,19,no,f,25,R,yes,1,2020-09-10_18h03.12.198,kura-B2,2020.1.2,MacIntel,60,,,"[""space"",""space"",""space"",""space"",""space"",""space"",""space"",""space"",""space"",""space"",""space"",""space"",""space"",""space"",""space"",""space"",""space"",""space"",""space"",""space""]","[0.42005499999504536,0.9194500000448897,1.570880000013858,2.130280000041239,2.646554999984801,3.1882550000445917,3.8648149999789894,4.413549999939278,5.230665000039153,5.8927899999544024,6.414190000039525,7.009539999999106,7.55870000005234,8.19156499998644,8.783640000037849,9.391225000028498,9.943190000019968,10.491730000008829,11.156414999975823,11.762319999979809]",space,2.620615,0.0,19.0,19.0,7.0,1.0,,,,,,,,,,,,,
,,,,,,,,,,,block_1/none_t_119_4.wav,timbre,t,none,119.0,1.977931805,11.04042614,,,,yes,sony,19,no,f,25,R,yes,1,2020-09-10_18h03.12.198,kura-B2,2020.1.2,MacIntel,60,,,"[""space"",""space"",""space"",""space"",""space"",""space"",""space"",""space"",""space"",""space"",""space"",""space""]","[0.21891000005416572,0.8224600000539795,1.5066450000740588,2.2008450001012534,2.804895000066608,3.5043450000230223,4.272665000054985,5.105485000065528,6.044280000030994,6.916270000045188,7.657620000070892,8.602055000024848]",space,1.06911,0.0,20.0,20.0,27.0,1.0,,,,,,,,,,,,,
,,,,,,,,,,,block_1/medium_t_72_3.wav,timbre,t,medium,72.0,2.203768917,18.98399567,,,,yes,sony,19,no,f,25,R,yes,1,2020-09-10_18h03.12.198,kura-B2,2020.1.2,MacIntel,60,,,"[""space"",""space"",""space"",""space"",""space"",""space"",""space"",""space"",""space"",""space"",""space"",""space"",""space"",""space"",""space"",""space"",""space"",""space"",""space"",""space""]","[0.18359999998938292,0.69246499997098,1.505144999944605,2.3600299999816343,3.369360000011511,4.214999999967404,5.0613749999320135,6.018459999933839,6.780915000010282,7.537989999982528,8.453970000031404,9.354745000018738,10.320884999935515,11.121425000019372,12.018655000021681,12.939550000010058,13.928599999984726,14.793569999979809,15.707605000003241,16.431549999979325]",space,0.81888,0.0,21.0,21.0,31.0,1.0,,,,,,,,,,,,,
,,,,,,,,,,,block_1/none_t_92_4.wav,timbre,t,none,92.0,2.400883628,17.24192671,,,,yes,sony,19,no,f,25,R,yes,1,2020-09-10_18h03.12.198,kura-B2,2020.1.2,MacIntel,60,,,"[""space"",""space"",""space"",""space"",""space"",""space"",""space"",""space"",""space"",""space"",""space"",""space"",""space"",""space"",""space"",""space"",""space"",""space"",""space""]","[0.17830999998841435,0.8357700000051409,1.6354450000217184,2.4605049999663606,3.7845900000538677,4.696340000024065,5.403249999973923,6.232910000020638,7.030750000034459,7.809074999997392,8.607715000049211,9.404674999997951,10.242749999975786,11.02069500007201,11.8546750000678,12.641500000027008,13.415305000031367,14.266025000018999,15.179594999994151]",space,1.18152,0.0,22.0,22.0,22.0,1.0,,,,,,,,,,,,,
,,,,,,,,,,,block_1/medium_t_81_3.wav,timbre,t,medium,81.0,1.352794873,13.94617356,,,,yes,sony,19,no,f,25,R,yes,1,2020-09-10_18h03.12.198,kura-B2,2020.1.2,MacIntel,60,,,"[""space"",""space"",""space"",""space"",""space"",""space"",""space"",""space"",""space"",""space"",""space"",""space"",""space"",""space"",""space"",""space"",""space"",""space"",""space"",""space""]","[0.21502999996300787,0.858269999967888,1.616924999980256,2.555019999970682,3.222994999960065,3.875995000009425,4.501324999961071,5.183320000069216,5.796629999997094,6.4783949999837205,7.145065000047907,7.779280000017025,8.422409999999218,9.022185000008903,9.663775000022724,10.281510000000708,10.983175000059418,11.633649999974295,12.306280000018887,12.886670000036247]",space,0.822005,0.0,23.0,23.0,8.0,1.0,,,,,,,,,,,,,
,,,,,,,,,,,block_1/weak_t_92_3.wav,timbre,t,weak,92.0,1.190820523,16.55263458,,,,yes,sony,19,no,f,25,R,yes,1,2020-09-10_18h03.12.198,kura-B2,2020.1.2,MacIntel,60,,,"[""space"",""space"",""space"",""space"",""space"",""space"",""space"",""space"",""space"",""space"",""space"",""space"",""space"",""space"",""space"",""space"",""space"",""space"",""space"",""space"",""space""]","[0.18862499995157123,0.8016799999168143,1.4850350000197068,2.1968549999874085,3.003900000010617,3.803819999913685,4.7224099999293685,5.409174999920651,6.32422999991104,7.1590099999448285,7.836164999986067,8.550799999968149,9.286940000019968,10.03503999998793,10.936189999920316,11.681154999998398,12.423904999974184,13.220585000002757,13.938379999948665,14.70553999999538,15.489384999964386]",space,0.53651,0.0,24.0,24.0,38.0,1.0,,,,,,,,,,,,,
,,,,,,,,,,,block_1/strong_t_119_3.wav,timbre,t,strong,119.0,1.722630655,12.55029505,,,,yes,sony,19,no,f,25,R,yes,1,2020-09-10_18h03.12.198,kura-B2,2020.1.2,MacIntel,60,,,"[""space"",""space"",""space"",""space"",""space"",""space"",""space"",""space"",""space"",""space"",""space"",""space"",""space"",""space"",""space"",""space"",""space"",""space"",""space"",""space""]","[0.609639999922365,1.15434499992989,1.5687149999430403,2.1072849999181926,2.671779999975115,3.2304399999557063,3.7900949999457225,4.3550699999323115,4.93949999997858,5.443424999946728,6.014454999938607,6.408244999940507,7.100035000010394,7.648805000004359,8.210069999913685,8.804494999931194,9.38546000001952,9.918769999989308,10.503294999944046,11.051039999932982]",space,0.830415,0.0,25.0,25.0,28.0,1.0,,,,,,,,,,,,,
,,,,,,,,,,,block_1/weak_t_119_4.wav,timbre,t,weak,119.0,1.438381355,12.04736095,,,,yes,sony,19,no,f,25,R,yes,1,2020-09-10_18h03.12.198,kura-B2,2020.1.2,MacIntel,60,,,"[""space"",""space"",""space"",""space"",""space"",""space"",""space"",""space"",""space"",""space"",""space"",""space"",""space"",""space"",""space"",""space""]","[0.30253999994602054,0.7360450000269338,1.4282899999525398,2.0863200000021607,2.8147249999456108,3.5442249999614432,4.281699999934062,4.649435000028461,5.3491350000258535,5.988305000006221,6.950674999970943,7.532374999951571,8.282174999942072,9.043089999933727,9.768069999990985,10.325190000003204]",space,0.53629,0.0,26.0,26.0,11.0,1.0,,,,,,,,,,,,,
,,,,,,,,,,,block_1/none_t_119_3.wav,timbre,t,none,119.0,1.169893331,12.28885025,,,,yes,sony,19,no,f,25,R,yes,1,2020-09-10_18h03.12.198,kura-B2,2020.1.2,MacIntel,60,,,"[""space"",""space"",""space"",""space"",""space"",""space"",""space"",""space"",""space"",""space"",""space"",""space"",""space"",""space"",""space"",""space"",""space"",""space""]","[0.183189999894239,0.7816949998959899,1.5114299999549985,2.095354999997653,2.65262999990955,3.27762999990955,3.9963149999966845,4.678969999891706,5.2806499999715015,5.963894999935292,6.606409999891184,7.267445000004955,7.9245649999938905,8.571459999890067,9.174554999917746,9.8342549999943,10.461189999943599,11.166614999994636]",space,1.85349,0.0,27.0,27.0,32.0,1.0,,,,,,,,,,,,,
,,,,,,,,,,,block_1/strong_t_105_4.wav,timbre,t,strong,105.0,2.094581561,12.21235934,,,,yes,sony,19,no,f,25,R,yes,1,2020-09-10_18h03.12.198,kura-B2,2020.1.2,MacIntel,60,,,"[""space"",""space"",""space"",""space"",""space"",""space"",""space"",""space"",""space"",""space"",""space"",""space"",""space"",""space"",""space"",""space"",""space"",""space"",""space"",""space""]","[0.6951399999670684,1.235964999999851,1.8254849999211729,2.3201849999604747,2.80598999990616,3.3094649999402463,3.761589999892749,4.263929999899119,4.780354999937117,5.310854999930598,5.796639999956824,6.315809999941848,6.81500999990385,7.32206999999471,7.792739999946207,8.356889999937266,8.859514999901876,9.342779999948107,9.826674999902025,10.383794999914244]",space,3.98016,0.0,28.0,28.0,18.0,1.0,,,,,,,,,,,,,
,,,,,,,,,,,block_1/weak_t_81_3.wav,timbre,t,weak,81.0,1.53156375,17.80117826,,,,yes,sony,19,no,f,25,R,yes,1,2020-09-10_18h03.12.198,kura-B2,2020.1.2,MacIntel,60,,,"[""space"",""space"",""space"",""space"",""space"",""space"",""space"",""space"",""space"",""space"",""space"",""space"",""space"",""space"",""space"",""space"",""space"",""space"",""space"",""space"",""space"",""space"",""space""]","[0.18563500000163913,0.8013250000076368,1.527659999905154,1.9886100000003353,2.603294999920763,3.3441149999853224,3.95402499998454,4.796489999978803,5.461229999898933,6.1114449999295175,6.715609999955632,7.453600000008009,8.13402999995742,9.123174999956973,10.002239999943413,10.87933999998495,11.603514999966137,12.496049999957904,13.436679999926127,14.227919999975711,15.011184999952093,15.858840000000782,16.58165999990888]",space,13.609435,0.0,29.0,29.0,6.0,1.0,,,,,,,,,,,,,
,,,,,,,,,,,block_1/medium_t_72_4.wav,timbre,t,medium,72.0,1.659874932,19.69733525,,,,yes,sony,19,no,f,25,R,yes,1,2020-09-10_18h03.12.198,kura-B2,2020.1.2,MacIntel,60,,,"[""space"",""space"",""space"",""space"",""space"",""space"",""space"",""space"",""space"",""space"",""space"",""space"",""space"",""space"",""space"",""space"",""space"",""space"",""space"",""space"",""space""]","[0.43437999999150634,1.0610400000587106,2.0268550000619143,3.087760000023991,3.996530000003986,4.82073500007391,5.647070000064559,6.515690000029281,7.500450000050478,8.283095000078902,9.185645000077784,9.89135500008706,11.086675000027753,12.071335000102408,12.937090000021271,13.688205000013113,14.646305000060238,15.533325000084005,16.530330000096,17.45505500002764,18.36665500001982]",space,0.83862,0.0,30.0,30.0,36.0,1.0,,,,,,,,,,,,,
,,,,,,,,,,,block_1/none_t_92_3.wav,timbre,t,none,92.0,1.813425609,13.88349364,,,,yes,sony,19,no,f,25,R,yes,1,2020-09-10_18h03.12.198,kura-B2,2020.1.2,MacIntel,60,,,"[""space"",""space"",""space"",""space"",""space"",""space"",""space"",""space"",""space"",""space"",""space"",""space"",""space"",""space"",""space"",""space"",""space"",""space""]","[0.8914099999237806,1.8619249999755993,2.7492599999532104,3.7777599999681115,4.600329999928363,5.314959999988787,5.963389999931678,6.6318399999290705,7.231709999963641,7.859070000005886,8.432389999972656,8.983765000011772,9.51680999994278,10.08316499995999,10.578254999942146,11.178759999922477,11.76191000000108,12.302919999929145]",space,0.18422,0.0,31.0,31.0,17.0,1.0,,,,,,,,,,,,,
,,,,,,,,,,,block_1/medium_t_92_4.wav,timbre,t,medium,92.0,1.590939721,14.58753836,,,,yes,sony,19,no,f,25,R,yes,1,2020-09-10_18h03.12.198,kura-B2,2020.1.2,MacIntel,60,,,"[""space"",""space"",""space"",""space"",""space"",""space"",""space"",""space"",""space"",""space"",""space"",""space"",""space"",""space"",""space"",""space"",""space"",""space"",""space"",""space"",""space""]","[0.33466000005137175,0.7894550000783056,1.3360700000775978,1.9235300000291318,2.5616750000044703,3.2123300000093877,3.8209000000497326,4.443510000011884,5.131250000093132,5.713534999988042,6.4801200000802055,7.153790000011213,7.831890000030398,8.593440000084229,9.284940000041388,9.894925000029616,10.593885000096634,11.273210000013933,11.972509999992326,12.595050000003539,13.263725000084378]",space,4.712295,0.0,32.0,32.0,25.0,1.0,,,,,,,,,,,,,
,,,,,,,,,,,block_1/strong_t_92_3.wav,timbre,t,strong,92.0,1.987733848,15.03440052,,,,yes,sony,19,no,f,25,R,yes,1,2020-09-10_18h03.12.198,kura-B2,2020.1.2,MacIntel,60,,,"[""space"",""space"",""space"",""space"",""space"",""space"",""space"",""space"",""space"",""space"",""space"",""space"",""space"",""space"",""space"",""space"",""space"",""space"",""space"",""space"",""space""]","[0.2711249999701977,0.7035199999809265,1.2175950000528246,1.9596300000557676,2.554275000002235,3.0860399999655783,3.928474999964237,4.596574999974109,5.152379999984987,5.964110000059009,6.680290000047535,7.334245000034571,8.033019999973476,8.664899999974295,9.365334999980405,10.032950000022538,10.700130000011995,11.351269999984652,12.003320000017993,12.688365000067279,13.352859999984503]",space,10.92851,0.0,33.0,33.0,3.0,1.0,,,,,,,,,,,,,
,,,,,,,,,,,block_1/medium_t_105_4.wav,timbre,t,medium,105.0,2.498438995,14.23458412,,,,yes,sony,19,no,f,25,R,yes,1,2020-09-10_18h03.12.198,kura-B2,2020.1.2,MacIntel,60,,,"[""space"",""space"",""space"",""space"",""space"",""space"",""space"",""space"",""space"",""space"",""space"",""space"",""space"",""space"",""space"",""space"",""space"",""space"",""space"",""space"",""space""]","[0.2788999999174848,0.7952799999620765,1.2061799999792129,1.7201699999859557,2.3546949999872595,2.8879899999592453,3.5110999998869374,4.048994999960996,4.755369999911636,5.301164999953471,5.953614999889396,6.54812499997206,7.13230499997735,7.74105499999132,8.415689999936149,9.015554999932647,9.650574999977835,10.117359999916516,10.685284999897704,11.261959999916144,11.894244999974035]",space,19.605145,0.0,34.0,34.0,23.0,1.0,,,,,,,,,,,,,
,,,,,,,,,,,block_1/strong_t_81_3.wav,timbre,t,strong,81.0,2.437587677,17.65296183,,,,yes,sony,19,no,f,25,R,yes,1,2020-09-10_18h03.12.198,kura-B2,2020.1.2,MacIntel,60,,,"[""space"",""space"",""space"",""space"",""space"",""space"",""space"",""space"",""space"",""space"",""space"",""space"",""space"",""space"",""space"",""space"",""space"",""space"",""space"",""space"",""space""]","[0.31747999996878207,0.7671550000086427,1.6867050000000745,2.5181249999441206,3.2187949999934062,3.9218999999575317,4.755170000018552,5.489569999976084,6.256044999929145,7.056954999919981,7.8236249999608845,8.60133999993559,9.362829999998212,10.168579999939539,10.968054999946617,11.718159999931231,12.48554000002332,13.309095000033267,14.02229500003159,14.842289999942295,15.672909999964759]",space,5.5466,0.0,35.0,35.0,24.0,1.0,,,,,,,,,,,,,
,,,,,,,,,,,block_1/none_t_105_3.wav,timbre,t,none,105.0,2.248615294,16.06934092,,,,yes,sony,19,no,f,25,R,yes,1,2020-09-10_18h03.12.198,kura-B2,2020.1.2,MacIntel,60,,,"[""space"",""space"",""space"",""space"",""space"",""space"",""space"",""space"",""space"",""space"",""space"",""space"",""space"",""space"",""space"",""space"",""space"",""space"",""space"",""space""]","[0.22273000003769994,0.8267050000140443,1.436890000011772,2.1036699999822304,2.8095249999314547,3.443489999976009,4.086600000038743,4.836744999978691,5.5322399999713525,6.242740000016056,6.93253500002902,7.715459999977611,8.416674999985844,9.071744999964722,9.827064999961294,10.639029999962077,11.342945000040345,11.852134999935515,12.64587499992922,13.36317499994766]",space,5.8151,0.0,36.0,36.0,14.0,1.0,,,,,,,,,,,,,
,,,,,,,,,,,block_1/none_t_81_3.wav,timbre,t,none,81.0,2.10326082,21.36648077,,,,yes,sony,19,no,f,25,R,yes,1,2020-09-10_18h03.12.198,kura-B2,2020.1.2,MacIntel,60,,,"[""space"",""space"",""space"",""space"",""space"",""space"",""space"",""space"",""space"",""space"",""space"",""space"",""space"",""space"",""space"",""space"",""space"",""space"",""space"",""space"",""space"",""space"",""space"",""space"",""space"",""space"",""space""]","[0.24277000001166016,0.7798050000565127,1.3778650000458583,2.1600050000706688,3.0127100000390783,3.76652499998454,4.496655000024475,5.262259999988601,6.098425000091083,6.899704999988899,7.732825000071898,8.433140000095591,9.176444999990053,9.96730000001844,11.109245000057854,11.978230000007898,12.843830000027083,13.4389300000621,14.197945000021718,14.854005000088364,15.478155000018887,15.989965000073425,16.538555000093766,17.089965000050142,17.64825000008568,18.2480500000529,18.888789999997243]",space,2.04115,0.0,37.0,37.0,10.0,1.0,,,,,,,,,,,,,
,,,,,,,,,,,block_1/medium_t_81_4.wav,timbre,t,medium,81.0,1.136743646,13.9322992,,,,yes,sony,19,no,f,25,R,yes,1,2020-09-10_18h03.12.198,kura-B2,2020.1.2,MacIntel,60,,,"[""space"",""space"",""space"",""space"",""space"",""space"",""space"",""space"",""space"",""space"",""space"",""space"",""space"",""space"",""space"",""space"",""space"",""space"",""space"",""space"",""space"",""space""]","[0.2952400000067428,0.7865849999943748,1.1459249999606982,1.7875500000081956,2.605295000015758,3.216084999963641,3.7959000000264496,4.380535000003874,5.073635000037029,5.719010000000708,6.3336050000507385,7.0168350000167266,7.733815000043251,8.425290000042878,9.028384999954142,9.719595000031404,10.386260000057518,11.180275000049733,11.711374999955297,12.457754999981262,13.347554999985732,13.638204999966547]",space,6.599375,0.0,38.0,38.0,2.0,1.0,,,,,,,,,,,,,
,,,,,,,,,,,block_1/medium_t_119_3.wav,timbre,t,medium,119.0,2.226222359,10.98477111,,,,yes,sony,19,no,f,25,R,yes,1,2020-09-10_18h03.12.198,kura-B2,2020.1.2,MacIntel,60,,,"[""space"",""space"",""space"",""space"",""space"",""space"",""space"",""space"",""space"",""space"",""space"",""space"",""space"",""space"",""space"",""space"",""space"",""space"",""space"",""space"",""space""]","[0.31774500000756234,0.7518400000408292,1.2360450000269338,1.7080299999797717,2.1070700000273064,2.596694999956526,3.0609300000360236,3.5183599999872968,3.9540450000204146,4.436804999946617,4.879004999995232,5.378859999938868,5.807984999963082,6.2290999999968335,6.513269999995828,6.755654999986291,7.20374999998603,7.671624999959022,8.10483500000555,8.549445000011474,8.987835000036284]",space,0.802365,0.0,39.0,39.0,37.0,1.0,,,,,,,,,,,,,
,,,,,,,,,,,block_2/medium_n_72_4.wav,no,n,medium,72.0,1.35197092,15.86054235,,,,yes,sony,19,no,f,25,R,yes,1,2020-09-10_18h03.12.198,kura-B2,2020.1.2,MacIntel,60,,,,,,,,,,,,space,25.47203,"[""space"",""space"",""space"",""space"",""space"",""space"",""space"",""space"",""space"",""space"",""space"",""space"",""space"",""space"",""space"",""space"",""space"",""space"",""space"",""space"",""space""]","[0.368335000006482,0.6361000000033528,1.4859850000357255,2.2366049999836832,3.0208600000478327,3.672400000039488,4.42304999998305,5.172155000036582,5.964355000061914,6.656554999994114,7.438979999977164,8.151805000030436,8.850184999988414,9.579419999965467,10.319735000026412,10.985310000018217,11.804875000030734,12.48706499999389,13.210489999968559,14.03847000002861,14.814469999982975]",space,1.08555,0.0,0.0,0.0,7.0,1.0,,
,,,,,,,,,,,block_2/weak_n_92_4.wav,no,n,weak,92.0,2.26710089,14.35326869,,,,yes,sony,19,no,f,25,R,yes,1,2020-09-10_18h03.12.198,kura-B2,2020.1.2,MacIntel,60,,,,,,,,,,,,,,"[""space"",""space"",""space"",""space"",""space"",""space"",""space"",""space"",""space"",""space"",""space"",""space"",""space"",""space"",""space"",""space"",""space"",""space"",""space"",""space"",""space""]","[0.2865250000031665,0.8611149999778718,1.428055000025779,2.093100000056438,2.6295049999607727,3.237334999954328,3.8496749999467283,4.4279650000389665,4.978269999963231,5.61606499995105,6.303919999976642,6.916345000034198,7.504820000031032,8.151465000002645,8.694024999975227,9.301059999968857,9.901090000057593,10.503209999995306,11.085405000019819,11.677945000003092,12.27960000000894]",space,0.79279,0.0,1.0,1.0,15.0,1.0,,
,,,,,,,,,,,block_2/none_n_72_3.wav,no,n,none,72.0,2.393872505,24.12062987,,,,yes,sony,19,no,f,25,R,yes,1,2020-09-10_18h03.12.198,kura-B2,2020.1.2,MacIntel,60,,,,,,,,,,,,,,"[""space"",""space"",""space"",""space"",""space"",""space"",""space"",""space"",""space"",""space"",""space"",""space"",""space"",""space"",""space"",""space"",""space"",""space"",""space"",""space"",""space"",""space"",""space"",""space"",""space"",""space"",""space"",""space"",""space"",""space"",""space"",""space"",""space"",""space"",""space"",""space""]","[0.19093000004068017,0.8290300000226125,1.3183500000741333,1.9134199999971315,2.5096700000576675,3.359195000026375,3.963380000088364,4.590010000043549,5.147170000011101,5.780305000022054,6.482945000054315,7.079930000007153,7.716745000099763,8.388175000087358,9.017210000078194,9.63780000002589,10.312275000032969,10.902230000006966,11.657910000067204,12.36901000002399,12.964905000058934,13.546010000049137,14.048185000079684,14.230465000029653,14.796160000027157,15.489915000041947,15.791505000088364,16.76232500001788,17.446650000056252,18.10297000000719,18.800835000001825,19.484485000022687,20.118250000057742,20.84027500008233,21.419195000082254,22.082300000009127]",space,0.50405,0.0,2.0,2.0,18.0,1.0,,
,,,,,,,,,,,block_2/strong_n_81_3.wav,no,n,strong,81.0,2.384474622,16.38941793,,,,yes,sony,19,no,f,25,R,yes,1,2020-09-10_18h03.12.198,kura-B2,2020.1.2,MacIntel,60,,,,,,,,,,,,,,"[""space"",""space"",""space"",""space"",""space"",""space"",""space"",""space"",""space"",""space"",""space"",""space"",""space"",""space"",""space"",""space"",""space"",""space"",""space"",""space""]","[0.5400349999545142,1.4114599999738857,2.19816000002902,2.8946299999952316,3.581789999967441,4.256649999995716,5.047915000002831,5.699845000053756,6.466815000050701,7.152475000009872,7.939754999941215,8.667974999989383,9.409570000017993,10.102994999964722,10.775900000007823,11.477455000043847,12.214240000001155,12.905374999972992,13.61144000000786,14.340020000003278]",space,9.71877,0.0,3.0,3.0,10.0,1.0,,
,,,,,,,,,,,block_2/none_n_119_4.wav,no,n,none,119.0,1.538189981,14.89986799,,,,yes,sony,19,no,f,25,R,yes,1,2020-09-10_18h03.12.198,kura-B2,2020.1.2,MacIntel,60,,,,,,,,,,,,,,"[""space"",""space"",""space"",""space"",""space"",""space"",""space"",""space"",""space"",""space"",""space"",""space"",""space"",""space"",""space"",""space"",""space"",""space"",""space"",""space""]","[0.23549500002991408,0.6914300000062212,1.3770950000034645,2.078120000078343,2.7544550000457093,3.463050000020303,4.215874999994412,4.864615000085905,5.915090000024065,6.625460000010207,7.383375000092201,8.1186699999962,8.821330000064336,9.480345000047237,10.241695000091568,10.936184999998659,11.563755000010133,12.303940000012517,13.028290000045672,13.7033250000095]",space,1.135355,0.0,4.0,4.0,20.0,1.0,,
,,,,,,,,,,,block_2/weak_n_105_3.wav,no,n,weak,105.0,2.432347709,14.10785791,,,,yes,sony,19,no,f,25,R,yes,1,2020-09-10_18h03.12.198,kura-B2,2020.1.2,MacIntel,60,,,,,,,,,,,,,,"[""space"",""space"",""space"",""space"",""space"",""space"",""space"",""space"",""space"",""space"",""space"",""space"",""space"",""space"",""space"",""space"",""space"",""space"",""space"",""space""]","[0.28897500003222376,0.8467899999814108,1.4195150000741705,2.1823350000195205,2.903924999991432,3.523490000050515,4.050020000082441,4.61334500007797,5.174785000039265,5.858460000017658,6.626255000010133,7.350465000024997,7.9140400000615045,8.543195000034757,9.09566500002984,9.69891000003554,10.294980000006035,10.772935000015423,11.321575000067241,11.88785000005737]",space,3.73152,0.0,5.0,5.0,27.0,1.0,,
,,,,,,,,,,,block_2/strong_n_105_4.wav,no,n,strong,105.0,1.723608797,13.55862014,,,,yes,sony,19,no,f,25,R,yes,1,2020-09-10_18h03.12.198,kura-B2,2020.1.2,MacIntel,60,,,,,,,,,,,,,,"[""space"",""space"",""space"",""space"",""space"",""space"",""space"",""space"",""space"",""space"",""space"",""space"",""space"",""space"",""space"",""space"",""space"",""space"",""space"",""space"",""space"",""space""]","[0.2594299999764189,0.7563000000081956,1.4891249999636784,1.9206199999898672,2.5070149999810383,3.0859349999809638,3.705240000039339,4.329180000000633,4.922419999958947,5.457820000010543,6.0669599999673665,6.65535999997519,7.26659999997355,7.615774999954738,7.934039999963716,8.5023499999661,9.049295000033453,9.676485000061803,10.295494999969378,10.902750000008382,11.50280500005465,12.046070000040345]",space,10.343485,0.0,6.0,6.0,3.0,1.0,,
,,,,,,,,,,,block_2/none_n_72_4.wav,no,n,none,72.0,1.743803892,24.48607147,,,,yes,sony,19,no,f,25,R,yes,1,2020-09-10_18h03.12.198,kura-B2,2020.1.2,MacIntel,60,,,,,,,,,,,,,,"[""space"",""space"",""space"",""space"",""space"",""space"",""space"",""space"",""space"",""space"",""space"",""space"",""space"",""space"",""space"",""space"",""space"",""space"",""space"",""space"",""space"",""space"",""space"",""space"",""space"",""space"",""space"",""space"",""space"",""space""]","[0.7200050000101328,1.4562000000150874,2.2351550000021234,3.0358600000618026,3.7182299999985844,4.5137500000419095,5.230839999974705,6.649940000032075,7.3562000000383705,8.071914999978617,8.716705000028014,9.550475000054576,10.384599999990314,11.119575000018813,11.720025000046007,12.373404999962077,13.18874000001233,13.929650000063702,14.56312499998603,15.274394999956712,15.905739999958314,16.505160000058822,17.192470000009052,18.04709999996703,18.893595000030473,19.658460000064224,20.525009999983013,21.353390000062063,22.088235000032,22.868789999978617]",space,2.4308,0.0,7.0,7.0,21.0,1.0,,
,,,,,,,,,,,block_2/none_n_119_3.wav,no,n,none,119.0,1.37370001,14.3364211,,,,yes,sony,19,no,f,25,R,yes,1,2020-09-10_18h03.12.198,kura-B2,2020.1.2,MacIntel,60,,,,,,,,,,,,,,"[""space"",""space"",""space"",""space"",""space"",""space"",""space"",""space"",""space"",""space"",""space"",""space"",""space"",""space"",""space"",""space"",""space"",""space""]","[0.30235499993432313,0.7743849999969825,1.7783099999651313,2.5367750000441447,3.3808549999957904,4.178764999960549,4.978729999973439,5.879829999990761,6.547595000010915,7.257555000018328,7.868460000026971,8.591499999980442,9.334389999974519,10.024540000013076,10.85812500002794,11.581319999997504,12.280204999959096,13.030335000017658]",space,0.86242,0.0,8.0,8.0,24.0,1.0,,
,,,,,,,,,,,block_2/weak_n_119_3.wav,no,n,weak,119.0,1.689359171,10.04573105,,,,yes,sony,19,no,f,25,R,yes,1,2020-09-10_18h03.12.198,kura-B2,2020.1.2,MacIntel,60,,,,,,,,,,,,,,"[""space"",""space"",""space"",""space"",""space"",""space"",""space"",""space"",""space"",""space"",""space"",""space"",""space"",""space"",""space"",""space"",""space""]","[0.31386999995447695,1.2918800000334159,2.0867299999808893,2.838484999956563,3.715929999947548,4.124820000026375,4.523165000020526,4.929219999932684,5.401534999953583,5.869489999953657,6.284099999931641,6.702259999932721,7.191340000019409,7.635699999984354,8.071615000022575,8.516644999966957,9.419879999943078]",space,1.73955,0.0,9.0,9.0,37.0,1.0,,
,,,,,,,,,,,block_2/strong_n_92_4.wav,no,n,strong,92.0,1.480736093,15.18463632,,,,yes,sony,19,no,f,25,R,yes,1,2020-09-10_18h03.12.198,kura-B2,2020.1.2,MacIntel,60,,,,,,,,,,,,,,"[""space"",""space"",""space"",""space"",""space"",""space"",""space"",""space"",""space"",""space"",""space"",""space"",""space"",""space"",""space"",""space"",""space"",""space"",""space"",""space""]","[0.41791000007651746,1.055144999991171,1.9609150000615045,2.6807750000152737,3.3554250000743195,4.1098650000058115,4.829965000040829,5.562385000055656,6.27980000001844,6.914650000049733,7.639480000012554,8.365014999988489,9.106355000054464,9.789839999983087,10.43234499997925,11.175900000031106,11.960455000051297,12.659790000063367,13.41801000002306,14.095670000067912]",space,0.6795,0.0,10.0,10.0,34.0,1.0,,
,,,,,,,,,,,block_2/medium_n_72_3.wav,no,n,medium,72.0,1.994146771,18.06802432,,,,yes,sony,19,no,f,25,R,yes,1,2020-09-10_18h03.12.198,kura-B2,2020.1.2,MacIntel,60,,,,,,,,,,,,,,"[""space"",""space"",""space"",""space"",""space"",""space"",""space"",""space"",""space"",""space"",""space"",""space"",""space"",""space"",""space"",""space"",""space"",""space"",""space"",""space"",""space""]","[0.21010499994736165,0.6759999999776483,1.559209999977611,2.303609999944456,3.1086249999934807,4.0156049999641255,4.802249999949709,5.680994999944232,6.421394999953918,7.298710000002757,8.126010000007227,8.91719499998726,9.826679999940097,10.808270000037737,11.493084999965504,12.253015000023879,13.076894999947399,13.828175000031479,14.62038500001654,15.57082999998238,16.39723999996204]",space,22.98547,0.0,11.0,11.0,13.0,1.0,,
,,,,,,,,,,,block_2/strong_n_72_4.wav,no,n,strong,72.0,1.689031128,17.05764791,,,,yes,sony,19,no,f,25,R,yes,1,2020-09-10_18h03.12.198,kura-B2,2020.1.2,MacIntel,60,,,,,,,,,,,,,,"[""space"",""space"",""space"",""space"",""space"",""space"",""space"",""space"",""space"",""space"",""space"",""space"",""space"",""space"",""space"",""space"",""space"",""space"",""space"",""space""]","[0.8433550000190735,1.393640000023879,2.2145000000018626,3.1000899999635294,3.85757500003092,4.584765000035986,5.380795000004582,6.215304999961518,7.0328600000357255,7.768904999946244,8.639929999946617,9.418605000013486,10.192694999976084,10.973125000018626,11.718624999979511,12.56344000005629,13.379285000031814,14.185395000036806,14.990130000049248,15.77367000002414]",space,4.948055,0.0,12.0,12.0,35.0,1.0,,
,,,,,,,,,,,block_2/weak_n_119_4.wav,no,n,weak,119.0,1.653391966,12.42708811,,,,yes,sony,19,no,f,25,R,yes,1,2020-09-10_18h03.12.198,kura-B2,2020.1.2,MacIntel,60,,,,,,,,,,,,,,"[""space"",""space"",""space"",""space"",""space"",""space"",""space"",""space"",""space"",""space"",""space"",""space"",""space"",""space"",""space"",""space"",""space"",""space""]","[0.1260550000006333,1.0052200000500306,1.7198000000789762,2.338825000100769,2.9055100000696257,3.505100000067614,4.161930000060238,5.22183000005316,5.716215000022203,6.657305000000633,7.267850000062026,7.800879999995232,8.402005000039935,8.937160000088625,9.451760000083596,10.00198000005912,10.54632500000298,11.086590000079013]",space,0.744025,0.0,13.0,13.0,31.0,1.0,,
,,,,,,,,,,,block_2/medium_n_119_4.wav,no,n,medium,119.0,1.918272059,10.22534689,,,,yes,sony,19,no,f,25,R,yes,1,2020-09-10_18h03.12.198,kura-B2,2020.1.2,MacIntel,60,,,,,,,,,,,,,,"[""space"",""space"",""space"",""space"",""space"",""space"",""space"",""space"",""space"",""space"",""space"",""space"",""space"",""space"",""space"",""space"",""space"",""space"",""space""]","[0.35256999998819083,0.8876799999270588,1.2853800000157207,1.691454999963753,2.3386699999682605,2.7857399999629706,3.183405000017956,3.5657049999572337,4.016650000005029,4.462609999929555,4.9305249999742955,5.381449999986216,5.848389999940991,6.316479999921285,7.232940000016242,7.682730000000447,8.123934999923222,8.573734999983571,10.023109999950975]",space,5.165455,0.0,14.0,14.0,17.0,1.0,,
,,,,,,,,,,,block_2/weak_n_81_4.wav,no,n,weak,81.0,1.139338257,16.19847658,,,,yes,sony,19,no,f,25,R,yes,1,2020-09-10_18h03.12.198,kura-B2,2020.1.2,MacIntel,60,,,,,,,,,,,,,,"[""space"",""space"",""space"",""space"",""space"",""space"",""space"",""space"",""space"",""space"",""space"",""space"",""space"",""space"",""space"",""space"",""space"",""space"",""space"",""space"",""space""]","[0.4692100000102073,0.91881500009913,1.7292500000912696,2.587220000103116,3.3316850000992417,4.138380000018515,4.89867000002414,5.634850000031292,6.266290000057779,6.800460000056773,7.5337450000224635,8.401055000023916,9.20202500000596,9.938425000058487,10.761630000080913,11.44734499999322,12.253495000069961,13.061530000064522,13.763185000047088,14.539865000057034,15.323115000035614]",space,0.64354,0.0,15.0,15.0,36.0,1.0,,
,,,,,,,,,,,block_2/strong_n_72_3.wav,no,n,strong,72.0,2.337906276,17.4032124,,,,yes,sony,19,no,f,25,R,yes,1,2020-09-10_18h03.12.198,kura-B2,2020.1.2,MacIntel,60,,,,,,,,,,,,,,"[""space"",""space"",""space"",""space"",""space"",""space"",""space"",""space"",""space"",""space"",""space"",""space"",""space"",""space"",""space"",""space"",""space"",""space"",""space"",""space"",""space""]","[0.2758400000166148,0.7192649999633431,1.4409450000384822,2.2291149999946356,3.030529999989085,3.8050949999596924,4.539734999998473,5.3605599999427795,6.078589999931864,6.8927749999566,7.69941000000108,8.417155000031926,9.187769999960437,10.006380000035278,10.744964999961667,11.519124999991618,12.246154999942519,13.012005000025965,13.888060000026599,14.638670000014827,15.374639999936335]",space,5.455725,0.0,16.0,16.0,32.0,1.0,,
,,,,,,,,,,,block_2/medium_n_81_4.wav,no,n,medium,81.0,1.594727623,16.1032537,,,,yes,sony,19,no,f,25,R,yes,1,2020-09-10_18h03.12.198,kura-B2,2020.1.2,MacIntel,60,,,,,,,,,,,,,,"[""space"",""space"",""space"",""space"",""space"",""space"",""space"",""space"",""space"",""space"",""space"",""space"",""space"",""space"",""space"",""space"",""space"",""space"",""space"",""space"",""space""]","[0.18411499995272607,0.7609049999155104,1.4797450000187382,2.2626199999358505,2.9692949999589473,3.784110000007786,4.4488199999323115,5.280999999959022,5.966090000001714,6.7510749999200925,7.387884999974631,8.184664999949746,8.883715000003576,9.60145499999635,10.385574999963865,11.235845000017434,11.91120500001125,12.667639999999665,13.311679999926127,14.018945000017993,14.730489999987185]",space,0.83839,0.0,17.0,17.0,38.0,1.0,,
,,,,,,,,,,,block_2/medium_n_81_3.wav,no,n,medium,81.0,2.235189468,17.75582439,,,,yes,sony,19,no,f,25,R,yes,1,2020-09-10_18h03.12.198,kura-B2,2020.1.2,MacIntel,60,,,,,,,,,,,,,,"[""space"",""space"",""space"",""space"",""space"",""space"",""space"",""space"",""space"",""space"",""space"",""space"",""space"",""space"",""space"",""space"",""space"",""space"",""space"",""space""]","[0.4752399999415502,1.177214999916032,2.0375800000038,2.8620949999894947,3.687210000003688,4.512609999976121,5.2529649999924,6.102964999969117,6.964824999915436,7.781309999991208,8.558199999970384,9.349799999967217,10.218664999934845,11.059819999965839,11.824930000002496,12.710375000024214,13.451044999994338,14.198744999943301,14.997179999947548,15.773509999969974]",space,24.44669,0.0,18.0,18.0,33.0,1.0,,
,,,,,,,,,,,block_2/none_n_81_3.wav,no,n,none,81.0,2.161532659,18.80565964,,,,yes,sony,19,no,f,25,R,yes,1,2020-09-10_18h03.12.198,kura-B2,2020.1.2,MacIntel,60,,,,,,,,,,,,,,"[""space"",""space"",""space"",""space"",""space"",""space"",""space"",""space"",""space"",""space"",""space"",""space"",""space"",""space"",""space"",""space"",""space"",""space"",""space"",""space"",""space"",""space""]","[0.2510550000006333,0.9595399999525398,1.807909999974072,2.612390000023879,3.3738600000506267,4.013039999990724,4.9255600000033155,5.655980000039563,6.389465000014752,7.239730000030249,7.934265000047162,8.719520000042394,9.51769999996759,10.266605000011623,10.934765000012703,11.75434999994468,12.458349999971688,13.229474999941885,13.987169999978505,14.905610000016168,15.505460000014864,16.491140000056475]",space,0.7036,0.0,19.0,19.0,29.0,1.0,,
,,,,,,,,,,,block_2/strong_n_92_3.wav,no,n,strong,92.0,1.019287146,13.50967263,,,,yes,sony,19,no,f,25,R,yes,1,2020-09-10_18h03.12.198,kura-B2,2020.1.2,MacIntel,60,,,,,,,,,,,,,,"[""space"",""space"",""space"",""space"",""space"",""space"",""space"",""space"",""space"",""space"",""space"",""space"",""space"",""space"",""space"",""space"",""space"",""space"",""space"",""space"",""space""]","[0.428650000016205,0.8348649999825284,1.4187499999534339,2.0575850000604987,2.639659999986179,3.3379949999507517,4.054940000060014,4.590534999966621,5.1919749999651685,5.8303150000283495,6.473155000014231,7.112485000048764,7.592945000040345,8.389229999971576,8.804284999961965,9.588194999960251,10.246004999964498,10.825614999979734,11.529669999959879,12.135890000034124,12.771135000046343]",space,3.271355,0.0,20.0,20.0,39.0,1.0,,
,,,,,,,,,,,block_2/weak_n_105_4.wav,no,n,weak,105.0,1.277365727,12.0504723,,,,yes,sony,19,no,f,25,R,yes,1,2020-09-10_18h03.12.198,kura-B2,2020.1.2,MacIntel,60,,,,,,,,,,,,,,"[""space"",""space"",""space"",""space"",""space"",""space"",""space"",""space"",""space"",""space"",""space"",""space"",""space"",""space"",""space"",""space"",""space"",""space"",""space"",""space"",""space""]","[0.16995500004850328,0.6699749999679625,1.056789999944158,1.9210100000491366,2.6707500000484288,3.2123849999625236,3.6813250000122935,4.271964999963529,4.859745000023395,5.349640000029467,5.85640000004787,6.325624999939464,6.827030000044033,7.332565000047907,7.8605449999449775,8.398949999944307,8.917714999988675,9.43206000002101,9.971819999977015,10.472659999970347,11.003370000049472]",space,0.67024,0.0,21.0,21.0,28.0,1.0,,
,,,,,,,,,,,block_2/weak_n_92_3.wav,no,n,weak,92.0,2.16711471,14.91038002,,,,yes,sony,19,no,f,25,R,yes,1,2020-09-10_18h03.12.198,kura-B2,2020.1.2,MacIntel,60,,,,,,,,,,,,,,"[""space"",""space"",""space"",""space"",""space"",""space"",""space"",""space"",""space"",""space"",""space"",""space"",""space"",""space"",""space"",""space"",""space"",""space"",""space"",""space"",""space""]","[0.20493000000715256,0.652765000006184,1.2538199999835342,1.9198249999899417,2.8206500000087544,3.2605850000400096,3.905879999976605,4.510714999982156,5.163090000045486,5.765054999967106,6.440965000074357,7.090124999987893,7.8168050000676885,8.510974999982864,9.15596500004176,9.784850000054576,10.453845000010915,11.078005000017583,11.703139999997802,12.344305000035092,13.02070500003174]",space,0.528935,0.0,22.0,22.0,5.0,1.0,,
,,,,,,,,,,,block_2/none_n_92_3.wav,no,n,none,92.0,2.008897919,17.90894327,,,,yes,sony,19,no,f,25,R,yes,1,2020-09-10_18h03.12.198,kura-B2,2020.1.2,MacIntel,60,,,,,,,,,,,,,,"[""space"",""space"",""space"",""space"",""space"",""space"",""space"",""space"",""space"",""space"",""space"",""space"",""space"",""space"",""space"",""space"",""space"",""space"",""space"",""space"",""space"",""space"",""space"",""space"",""space"",""space""]","[0.2228850000537932,0.8793199999490753,1.9018149999901652,2.3684949999442324,2.9577249999856576,3.5529200000455603,4.129225000040606,4.6551500000059605,5.280469999997877,5.905685000005178,6.478735000011511,7.039744999958202,7.641674999962561,8.224384999950416,8.820255000027828,9.412959999986924,10.101705000037327,11.221185000031255,11.774109999998473,12.41925999999512,13.029510000022128,13.595770000014454,14.288030000054277,15.07964000001084,15.656510000000708,16.223950000014156]",space,8.66881,0.0,23.0,23.0,25.0,1.0,,
,,,,,,,,,,,block_2/medium_n_105_4.wav,no,n,medium,105.0,2.115061775,16.52181914,,,,yes,sony,19,no,f,25,R,yes,1,2020-09-10_18h03.12.198,kura-B2,2020.1.2,MacIntel,60,,,,,,,,,,,,,,"[""space"",""space"",""space"",""space"",""space"",""space"",""space"",""space"",""space"",""space"",""space"",""space"",""space"",""space"",""space"",""space"",""space"",""space"",""space"",""space"",""space""]","[0.1850550000090152,0.734885000041686,1.2237500000046566,2.058644999982789,2.896545000025071,3.930225000018254,4.763774999999441,5.539035000023432,6.081419999944046,6.791590000037104,7.524259999976493,8.227605000021867,9.000239999964833,9.74031499994453,10.392714999965392,11.039319999981672,11.772534999996424,12.552670000004582,13.343104999978095,13.987844999996014,14.705079999985173]",space,2.661225,0.0,24.0,24.0,12.0,1.0,,
,,,,,,,,,,,block_2/medium_n_92_4.wav,no,n,medium,92.0,1.021723279,13.61201806,,,,yes,sony,19,no,f,25,R,yes,1,2020-09-10_18h03.12.198,kura-B2,2020.1.2,MacIntel,60,,,,,,,,,,,,,,"[""space"",""space"",""space"",""space"",""space"",""space"",""space"",""space"",""space"",""space"",""space"",""space"",""space"",""space"",""space"",""space"",""space"",""space"",""space"",""space"",""space""]","[0.19082500005606562,0.8625649999594316,1.4408100000582635,2.1238150000572205,2.7373650000663474,3.3547200000612065,4.080255000037141,4.658754999982193,5.205214999965392,5.908485000021756,6.507740000030026,7.173904999974184,7.844675000058487,8.448124999995343,9.048900000052527,9.671650000032969,10.416504999971949,10.934690000023693,11.541594999958761,12.186454999959096,12.80312000005506]",space,0.40351,0.0,25.0,25.0,11.0,1.0,,
,,,,,,,,,,,block_2/strong_n_81_4.wav,no,n,strong,81.0,1.736263272,17.70810001,,,,yes,sony,19,no,f,25,R,yes,1,2020-09-10_18h03.12.198,kura-B2,2020.1.2,MacIntel,60,,,,,,,,,,,,,,"[""space"",""space"",""space"",""space"",""space"",""space"",""space"",""space"",""space"",""space"",""space"",""space"",""space"",""space"",""space"",""space"",""space"",""space"",""space"",""space"",""space""]","[0.3079549999674782,0.7414049999788404,1.720519999973476,2.528099999995902,3.380229999893345,4.163539999979548,4.866759999888018,5.769399999990128,6.547734999912791,7.435334999929182,8.102264999994077,8.932990000001155,9.757519999984652,10.534454999957234,11.52437999995891,12.353260000003502,13.045109999948181,13.813739999895915,14.67011999990791,15.419114999938756,16.331369999912567]",space,1.153695,0.0,26.0,26.0,1.0,1.0,,
,,,,,,,,,,,block_2/medium_n_119_3.wav,no,n,medium,119.0,2.317779723,12.17918562,,,,yes,sony,19,no,f,25,R,yes,1,2020-09-10_18h03.12.198,kura-B2,2020.1.2,MacIntel,60,,,,,,,,,,,,,,"[""space"",""space"",""space"",""space"",""space"",""space"",""space"",""space"",""space"",""space"",""space"",""space"",""space"",""space"",""space"",""space"",""space"",""space"",""space"",""space""]","[0.22700499999336898,0.7737249999772757,1.4780549999559298,2.2625749999424443,2.819584999931976,3.244674999965355,3.594730000011623,4.073469999944791,4.606254999991506,5.130264999927022,5.670814999961294,6.15047999995295,6.670949999941513,7.147690000012517,7.5992199999745935,8.086349999997765,8.600265000015497,9.099794999929145,9.567459999932908,10.054125000024214]",space,0.48939,0.0,27.0,27.0,22.0,1.0,,
,,,,,,,,,,,block_2/strong_n_105_3.wav,no,n,strong,105.0,2.095458379,13.32602527,,,,yes,sony,19,no,f,25,R,yes,1,2020-09-10_18h03.12.198,kura-B2,2020.1.2,MacIntel,60,,,,,,,,,,,,,,"[""space"",""space"",""space"",""space"",""space"",""space"",""space"",""space"",""space"",""space"",""space"",""space"",""space"",""space"",""space"",""space"",""space"",""space"",""space"",""space"",""space""]","[0.22199499991256744,0.747984999907203,1.1347599999280646,1.7245600000023842,2.313079999992624,2.881514999899082,3.4417849999153987,3.9809949999907985,4.52429500001017,5.190850000013597,5.740844999905676,6.258309999946505,6.867689999984577,7.4181899999966845,7.977749999961816,8.585579999955371,9.151789999916218,9.702779999934137,10.25836499989964,10.904624999966472,11.496694999979809]",space,0.232315,0.0,28.0,28.0,9.0,1.0,,
,,,,,,,,,,,block_2/none_n_105_4.wav,no,n,none,105.0,1.256367297,16.73296594,,,,yes,sony,19,no,f,25,R,yes,1,2020-09-10_18h03.12.198,kura-B2,2020.1.2,MacIntel,60,,,,,,,,,,,,,,"[""space"",""space"",""space"",""space"",""space"",""space"",""space"",""space"",""space"",""space"",""space"",""space"",""space"",""space"",""space"",""space"",""space""]","[0.21073000004980713,0.7424100000644103,1.4351550000719726,2.4364250000799075,3.312430000049062,4.050600000075065,5.083350000088103,6.031264999997802,7.158620000001974,8.117190000019036,9.151614999980666,10.108020000043325,11.141330000013113,12.041035000002012,13.048970000003465,13.94003000005614,14.879925000015646]",space,1.14277,0.0,29.0,29.0,14.0,1.0,,
,,,,,,,,,,,block_2/strong_n_119_4.wav,no,n,strong,119.0,2.003027148,12.07137182,,,,yes,sony,19,no,f,25,R,yes,1,2020-09-10_18h03.12.198,kura-B2,2020.1.2,MacIntel,60,,,,,,,,,,,,,,"[""space"",""space"",""space"",""space"",""space"",""space"",""space"",""space"",""space"",""space"",""space"",""space"",""space"",""space"",""space"",""space"",""space"",""space"",""space"",""space"",""space""]","[0.4683899999363348,0.8349799999268726,1.137209999957122,1.6586499999975786,2.1426750000100583,2.6292799999937415,3.079894999973476,3.6338899999391288,4.148524999967776,4.698959999950603,5.196729999966919,5.7135850000195205,6.117644999991171,6.709399999934249,7.265215000021271,7.749639999936335,8.260054999962449,8.752734999987297,9.25254000001587,9.77554499998223,10.296229999978095]",space,1.163155,0.0,30.0,30.0,23.0,1.0,,
,,,,,,,,,,,block_2/none_n_105_3.wav,no,n,none,105.0,1.200203838,13.86165508,,,,yes,sony,19,no,f,25,R,yes,1,2020-09-10_18h03.12.198,kura-B2,2020.1.2,MacIntel,60,,,,,,,,,,,,,,"[""space"",""space"",""space"",""space"",""space"",""space"",""space"",""space"",""space"",""space"",""space"",""space"",""space"",""space"",""space""]","[0.23738499998580664,0.8403799999505281,1.7202350000152364,2.5975300000282004,3.660234999959357,4.548210000037216,5.740849999943748,6.80878500000108,7.858619999955408,8.796695000026375,9.770690000033937,10.268344999989495,11.155230000033043,11.619289999944158,12.29612499999348]",space,5.91774,0.0,31.0,31.0,6.0,1.0,,
,,,,,,,,,,,block_2/weak_n_72_4.wav,no,n,weak,72.0,1.671954957,17.64637673,,,,yes,sony,19,no,f,25,R,yes,1,2020-09-10_18h03.12.198,kura-B2,2020.1.2,MacIntel,60,,,,,,,,,,,,,,"[""space"",""space"",""space"",""space"",""space"",""space"",""space"",""space"",""space"",""space"",""space"",""space"",""space"",""space"",""space"",""space"",""space"",""space"",""space"",""space"",""space""]","[0.2105500000761822,0.6037950000027195,1.3015050000976771,2.0128800000529736,2.8698500000173226,3.7871000000741333,4.627285000053234,5.477760000037961,6.330629999982193,7.182740000076592,8.003020000061952,8.783415000070818,9.501370000070892,10.401049999985844,11.411030000075698,12.204095000051893,12.922245000023395,13.803324999986216,14.661425000056624,15.499275000067428,16.172260000021197]",space,0.021805,0.0,32.0,32.0,4.0,1.0,,
,,,,,,,,,,,block_2/none_n_92_4.wav,no,n,none,92.0,2.009431863,15.90199422,,,,yes,sony,19,no,f,25,R,yes,1,2020-09-10_18h03.12.198,kura-B2,2020.1.2,MacIntel,60,,,,,,,,,,,,,,"[""space"",""space"",""space"",""space"",""space"",""space"",""space"",""space"",""space"",""space"",""space"",""space"",""space"",""space"",""space"",""space"",""space"",""space"",""space"",""space"",""space"",""space"",""space"",""space"",""space""]","[0.4746700000250712,1.2697349999798462,2.01410000002943,2.620130000053905,3.190309999976307,3.8293650000123307,4.405450000078417,4.995884999982081,5.623335000011139,6.175385000067763,6.7493000000249594,7.316334999981336,7.908374999999069,8.46909999998752,9.067634999984875,9.64928500005044,10.136999999987893,10.65136999997776,11.195445000077598,11.673309999983758,12.322510000085458,12.793004999984987,13.312009999994189,13.75748500006739,15.466230000020005]",space,1.02505,0.0,33.0,33.0,19.0,1.0,,
,,,,,,,,,,,block_2/strong_n_119_3.wav,no,n,strong,119.0,2.299979207,12.06555744,,,,yes,sony,19,no,f,25,R,yes,1,2020-09-10_18h03.12.198,kura-B2,2020.1.2,MacIntel,60,,,,,,,,,,,,,,"[""space"",""space"",""space"",""space"",""space"",""space"",""space"",""space"",""space"",""space"",""space"",""space"",""space"",""space"",""space"",""space"",""space"",""space"",""space"",""space""]","[0.5254200000781566,0.8713650000281632,1.652500000083819,2.130390000063926,2.6204100000904873,3.103564999997616,3.6364700000267476,4.121020000078715,4.579825000022538,5.065090000047348,5.555700000026263,6.076245000003837,6.5574450000422075,7.049914999981411,7.499130000011064,8.026665000012144,8.510445000021718,8.991005000076257,9.454115000087768,9.99077999999281]",space,2.160695,0.0,34.0,34.0,16.0,1.0,,
,,,,,,,,,,,block_2/medium_n_92_3.wav,no,n,medium,92.0,2.163023573,13.84869251,,,,yes,sony,19,no,f,25,R,yes,1,2020-09-10_18h03.12.198,kura-B2,2020.1.2,MacIntel,60,,,,,,,,,,,,,,"[""space"",""space"",""space"",""space"",""space"",""space"",""space"",""space"",""space"",""space"",""space"",""space"",""space"",""space"",""space"",""space"",""space"",""space"",""space"",""space"",""space""]","[0.2992350000422448,0.6179750000592321,0.9856250000884756,1.5757250000024214,2.16014500008896,2.7452200000407174,3.4118149999994785,4.020385000039823,4.6804400000255555,5.289564999984577,5.879765000077896,6.463180000078864,7.081465000053868,7.678775000036694,8.26459999999497,8.883715000003576,9.48926499998197,10.122135000070557,10.73964500008151,11.35902500001248,11.92758000001777]",space,15.60745,0.0,35.0,35.0,2.0,1.0,,
,,,,,,,,,,,block_2/medium_n_105_3.wav,no,n,medium,105.0,2.480661226,14.16274739,,,,yes,sony,19,no,f,25,R,yes,1,2020-09-10_18h03.12.198,kura-B2,2020.1.2,MacIntel,60,,,,,,,,,,,,,,"[""space"",""space"",""space"",""space"",""space"",""space"",""space"",""space"",""space"",""space"",""space"",""space"",""space"",""space"",""space"",""space"",""space"",""space"",""space"",""space""]","[0.3374299999559298,0.9036299999570474,1.5052450000075623,2.107814999995753,2.5930249999510124,3.1727549999486655,3.7900900000240654,4.404994999989867,4.896554999984801,5.494605000014417,6.081490000011399,6.625144999939948,7.2179299999261275,7.785135000012815,8.310049999970943,8.998254999984056,9.582519999938086,10.150009999983013,10.793109999969602,11.385859999922104]",space,2.920295,0.0,36.0,36.0,0.0,1.0,,
,,,,,,,,,,,block_2/weak_n_72_3.wav,no,n,weak,72.0,1.604938988,17.47283014,,,,yes,sony,19,no,f,25,R,yes,1,2020-09-10_18h03.12.198,kura-B2,2020.1.2,MacIntel,60,,,,,,,,,,,,,,"[""space"",""space"",""space"",""space"",""space"",""space"",""space"",""space"",""space"",""space"",""space"",""space"",""space"",""space"",""space"",""space"",""space"",""space"",""space"",""space"",""space""]","[0.3411799999885261,0.9314850000664592,1.9152049999684095,2.603000000002794,3.380390000063926,4.186080000014044,5.0150249999715015,5.895615000044927,6.691259999992326,7.464915000018664,8.207569999969564,9.011004999978468,9.818734999978915,10.543524999986403,11.332850000006147,12.121464999974705,12.912235000054352,13.661749999970198,14.546010000049137,15.213504999992438,16.031835000030696]",space,8.833535,0.0,37.0,37.0,8.0,1.0,,
,,,,,,,,,,,block_2/none_n_81_4.wav,no,n,none,81.0,1.032736778,20.98466422,,,,yes,sony,19,no,f,25,R,yes,1,2020-09-10_18h03.12.198,kura-B2,2020.1.2,MacIntel,60,,,,,,,,,,,,,,"[""space"",""space"",""space"",""space"",""space"",""space"",""space"",""space"",""space"",""space"",""space"",""space"",""space"",""space"",""space"",""space"",""space"",""space"",""space"",""space"",""space"",""space"",""space"",""space"",""space"",""space"",""space"",""space"",""space"",""space"",""space"",""space""]","[0.19182499998714775,0.8511100000469014,1.5044449999695644,2.13636999996379,2.821959999972023,3.377820000052452,3.8289749999530613,4.518730000010692,5.197954999981448,5.836860000039451,6.44770499994047,7.07215499994345,7.7885999999707565,8.525380000006407,9.092994999955408,9.809499999973923,10.510140000027604,11.239425000036135,11.870239999960177,12.446514999959618,13.07129500003066,13.681429999996908,14.330919999978505,14.984120000037365,15.547909999964759,16.26485000003595,16.91506000002846,17.57012000004761,18.22618999995757,18.858869999996386,19.450665000011213,20.110169999999925]",space,3.265915,0.0,38.0,38.0,26.0,1.0,,
,,,,,,,,,,,block_2/weak_n_81_3.wav,no,n,weak,81.0,2.376095497,17.43405468,,,,yes,sony,19,no,f,25,R,yes,1,2020-09-10_18h03.12.198,kura-B2,2020.1.2,MacIntel,60,,,,,,,,,,,,,,"[""space"",""space"",""space"",""space"",""space"",""space"",""space"",""space"",""space"",""space"",""space"",""space"",""space"",""space"",""space"",""space"",""space"",""space"",""space"",""space"",""space""]","[0.170090000028722,0.8516500000841916,1.8384250000817701,2.503774999990128,3.317120000021532,4.148285000002943,4.8243550000479445,5.540680000092834,6.2834400000283495,7.042010000091977,7.781034999992698,8.477045000065118,9.21757500001695,9.951549999997951,10.675245000049472,11.537050000042655,12.212595000048168,13.099490000051446,13.775150000001304,14.538080000085756,15.273505000048317]",space,0.68067,0.0,39.0,39.0,30.0,1.0,,
,,,,,,,,,,,,,,,,,,,,,yes,sony,19,no,f,25,R,yes,1,2020-09-10_18h03.12.198,kura-B2,2020.1.2,MacIntel,60,,,,,,,,,,,,,,,,,,,,,,,space,3.055705
