key_resp.keys,key_resp.rt,practice_taps.keys,practice_taps.rt,keyresp.keys,keyresp.rt,practice_stims_loop.thisRepN,practice_stims_loop.thisTrialN,practice_stims_loop.thisN,practice_stims_loop.thisIndex,practice_stims_loop.ran,sndfile,type,tempo,cond,version,delay,dur,Participant Initials,"If you are a MTurk worker, what is your MTurk worker ID?'",Are you wearing headphones?,What are the headphone make and model?,"How many years of musical training, if any, do you have?",Do you have any hearing problems? Please describe,What is your sex (f/m/decline)?,What is your age?,What is your handedness (R/L/ambi)?,Are you currently in a secure and quiet room without a possible interruption?,session,date,expName,psychopyVersion,OS,frameRate,instructions_prompt.keys,instructions_prompt.rt,block1_taps.keys,block1_taps.rt,key_resp_2.keys,key_resp_2.rt,trials.thisRepN,trials.thisTrialN,trials.thisN,trials.thisIndex,trials.ran,key_resp2.keys,key_resp2.rt,block2_taps.keys,block2_taps.rt,key_resp_3.keys,key_resp_3.rt,trials_2.thisRepN,trials_2.thisTrialN,trials_2.thisN,trials_2.thisIndex,trials_2.ran,key_resp_4.keys,key_resp_4.rt,"If you are not an MTurk worker, please provide your email address"
space,14.569245,"[""space"",""space"",""space"",""space"",""space"",""space"",""space"",""space"",""space"",""space"",""space"",""space"",""space"",""space"",""space"",""space"",""space""]","[2.0308400000212714,2.566225000016857,3.062419999972917,3.5505400000256486,4.0662349999765866,4.546020000008866,5.0319950000266545,5.5329299999866635,6.029174999974202,6.5660749999806285,7.062485000002198,7.582794999994803,8.117310000001453,8.596094999986235,9.100380000018049,9.59602499997709,10.115660000010394]",space,1.56608,0.0,0.0,0.0,3.0,1.0,block_2/strong_t_119_4.wav,timbre,t,strong,119.0,2.380207574,12.24809873,,,yes,Koss portaPro,27,no,,,,,1,2020-09-18_08h50.45.006,kura-A2,2020.1.2,MacIntel,60,,,,,,,,,,,,,,,,,,,,,,,,,
,,"[""space"",""space"",""space"",""space"",""space"",""space"",""space"",""space"",""space"",""space"",""space"",""space"",""space"",""space"",""space"",""space""]","[3.0047250000061467,3.921215000038501,4.785455000004731,5.6064900000346825,6.4381000000284985,7.287815000046976,8.15545000002021,8.917665000015404,9.767145000048913,10.536515000043437,11.389605000033043,12.269205000018701,13.05457000003662,13.904395000019576,14.734235000039916,15.571175000048243]",space,1.18358,0.0,1.0,1.0,2.0,1.0,block_1/weak_n_72_4.wav,no,n,weak,72.0,1.922330121,17.89675189,,,yes,Koss portaPro,27,no,,,,,1,2020-09-18_08h50.45.006,kura-A2,2020.1.2,MacIntel,60,,,,,,,,,,,,,,,,,,,,,,,,,
,,"[""space"",""space"",""space"",""space"",""space"",""space"",""space"",""space"",""space"",""space"",""space"",""space"",""space"",""space"",""space"",""space"",""space"",""space""]","[2.6156799999880604,3.2185499999905005,3.8338399999774992,4.450454999983776,4.966989999986254,5.503214999975171,6.119665000005625,6.683759999985341,7.263199999986682,7.830495000001974,8.42982999997912,9.016684999980498,9.579734999977518,9.667079999984708,10.200320000003558,10.751775000011548,11.383764999976847,11.96682500001043]",space,1.15041,0.0,2.0,2.0,0.0,1.0,block_1/medium_n_105_3.wav,no,n,medium,105.0,1.683245346,13.36533151,,,yes,Koss portaPro,27,no,,,,,1,2020-09-18_08h50.45.006,kura-A2,2020.1.2,MacIntel,60,,,,,,,,,,,,,,,,,,,,,,,,,
,,"[""space"",""space"",""space"",""space"",""space"",""space"",""space"",""space"",""space"",""space"",""space"",""space"",""space"",""space""]","[4.063780000025872,4.400750000029802,4.818275000026915,5.3362900000065565,5.834770000015851,6.350459999986924,6.851260000024922,7.397090000042226,7.931555000017397,8.448275000031572,8.981725000019651,9.496879999991506,10.030300000042189,10.632180000015069]",space,0.98384,0.0,3.0,3.0,1.0,1.0,block_2/medium_t_119_4.wav,timbre,t,medium,119.0,2.073396767,11.89421309,,,yes,Koss portaPro,27,no,,,,,1,2020-09-18_08h50.45.006,kura-A2,2020.1.2,MacIntel,60,,,,,,,,,,,,,,,,,,,,,,,,,
,,,,,,,,,,,block_1/none_n_105_4.wav,no,n,none,105.0,1.493653366,16.97025201,,,yes,Koss portaPro,27,no,,,,,1,2020-09-18_08h50.45.006,kura-A2,2020.1.2,MacIntel,60,space,4.449615,"[""space"",""space"",""space"",""space"",""space"",""space"",""space"",""space"",""space"",""space"",""space"",""space"",""space"",""space"",""space"",""space"",""space"",""space"",""space"",""space"",""space"",""space"",""space"",""space"",""space"",""space"",""space"",""space"",""space""]","[3.4012950000469573,3.8517400000127964,4.29624000005424,4.766950000019278,5.179635000007693,5.596475000027567,6.029915000020992,6.419070000003558,6.866925000038464,7.2835500000510365,7.716940000012983,8.116910000040662,8.533460000006016,8.984160000050906,9.412735000019893,9.817750000045635,10.283660000015516,10.716135000053328,11.216540000052191,11.679585000034422,12.13393500004895,12.566635000053793,13.183495000004768,13.546210000000428,14.000425000034738,14.449735000031069,14.91394500003662,15.351255000045057,16.049825000052806]",space,1.149455,0.0,0.0,0.0,14.0,1.0,,,,,,,,,,,,,,
,,,,,,,,,,,block_1/none_n_92_3.wav,no,n,none,92.0,2.336707073,18.23675242,,,yes,Koss portaPro,27,no,,,,,1,2020-09-18_08h50.45.006,kura-A2,2020.1.2,MacIntel,60,,,"[""space"",""space"",""space"",""space"",""space"",""space"",""space"",""space"",""space"",""space"",""space""]","[5.934370000031777,6.747099999978673,7.883749999979045,8.868075000005774,9.84715500002494,10.848875000025146,11.818165000004228,12.83455500000855,14.067365000024438,15.136330000008456,16.10080499999458]",space,1.68397,0.0,1.0,1.0,25.0,1.0,,,,,,,,,,,,,,
,,,,,,,,,,,block_1/none_n_105_3.wav,no,n,none,105.0,2.216733946,14.87818519,,,yes,Koss portaPro,27,no,,,,,1,2020-09-18_08h50.45.006,kura-A2,2020.1.2,MacIntel,60,,,"[""space"",""space"",""space"",""space"",""space""]","[7.883694999967702,8.833845000015572,9.91367999999784,11.046830000006594,12.213504999992438]",space,0.767785,0.0,2.0,2.0,6.0,1.0,,,,,,,,,,,,,,
,,,,,,,,,,,block_1/strong_n_81_3.wav,no,n,strong,81.0,1.6043637,15.60930701,,,yes,Koss portaPro,27,no,,,,,1,2020-09-18_08h50.45.006,kura-A2,2020.1.2,MacIntel,60,,,"[""space"",""space"",""space"",""space"",""space"",""space"",""space"",""space"",""space"",""space"",""space"",""space"",""space"",""space"",""space"",""space"",""space"",""space""]","[2.250995000009425,2.9388250000192784,3.6681600000010803,4.370895000000019,5.068315000040457,5.767345000000205,6.500570000032894,7.26689000002807,7.923005000047851,8.654635000042617,9.369990000035614,10.07440000004135,10.785015000030398,11.50071500003105,12.207010000012815,12.934040000021923,13.637605000054464,14.336500000033993]",space,0.701975,0.0,3.0,3.0,10.0,1.0,,,,,,,,,,,,,,
,,,,,,,,,,,block_1/medium_n_119_4.wav,no,n,medium,119.0,1.261396351,9.568471181,,,yes,Koss portaPro,27,no,,,,,1,2020-09-18_08h50.45.006,kura-A2,2020.1.2,MacIntel,60,,,"[""space"",""space"",""space"",""space"",""space"",""space"",""space"",""space"",""space"",""space"",""space"",""space"",""space""]","[3.1301600000006147,3.5340350000187755,3.9820249999756925,4.449725000013132,4.9468549999874085,5.396974999981467,5.853910000005271,6.286659999983385,6.764224999991711,7.233899999991991,7.683755000005476,8.113294999988284,8.563540000002831]",space,0.6506,0.0,4.0,4.0,17.0,1.0,,,,,,,,,,,,,,
,,,,,,,,,,,block_1/medium_n_81_3.wav,no,n,medium,81.0,1.199970007,16.72060493,,,yes,Koss portaPro,27,no,,,,,1,2020-09-18_08h50.45.006,kura-A2,2020.1.2,MacIntel,60,,,"[""space"",""space"",""space"",""space"",""space"",""space"",""space"",""space"",""space"",""space"",""space"",""space"",""space"",""space"",""space"",""space"",""space"",""space""]","[2.166785000008531,2.946730000025127,3.8503700000001118,4.653445000003558,5.417799999995623,6.218715000024531,7.051574999990407,7.834614999999758,8.58086500002537,9.43450999999186,10.269465000019409,11.084519999974873,11.933734999969602,12.697054999996908,13.480295000015758,14.247195000003558,15.067304999975022,15.80283000000054]",space,0.7337,0.0,5.0,5.0,33.0,1.0,,,,,,,,,,,,,,
,,,,,,,,,,,block_1/weak_n_105_4.wav,no,n,weak,105.0,1.436012468,12.20911904,,,yes,Koss portaPro,27,no,,,,,1,2020-09-18_08h50.45.006,kura-A2,2020.1.2,MacIntel,60,,,"[""space"",""space"",""space"",""space"",""space"",""space"",""space"",""space"",""space"",""space"",""space"",""space"",""space"",""space"",""space"",""space"",""space"",""space""]","[1.9837449999758974,2.563289999961853,3.0987999999779277,3.6471550000132993,4.21703499997966,4.73634999996284,5.300614999956451,5.800329999998212,6.329800000006799,6.900510000006761,7.347554999985732,7.836190000001807,8.382059999974445,8.917680000013206,9.401889999979176,9.916904999990948,10.429974999977276,10.950254999974277]",space,0.63311,0.0,6.0,6.0,28.0,1.0,,,,,,,,,,,,,,
,,,,,,,,,,,block_1/weak_n_72_3.wav,no,n,weak,72.0,1.008682366,16.87657352,,,yes,Koss portaPro,27,no,,,,,1,2020-09-18_08h50.45.006,kura-A2,2020.1.2,MacIntel,60,,,"[""space"",""space"",""space"",""space"",""space"",""space"",""space"",""space"",""space"",""space"",""space"",""space"",""space"",""space"",""space"",""space"",""space"",""space"",""space""]","[2.000700000033248,2.7346050000051036,3.467724999994971,4.2157350000343286,5.0835100000258535,5.947150000021793,6.686125000007451,7.504524999996647,8.280230000033043,9.083960000018124,9.813629999989644,10.550495000032242,11.346910000022035,12.096844999992754,12.900215000030585,13.701044999994338,14.569915000000037,15.268785000022035,16.08462999999756]",space,0.583865,0.0,7.0,7.0,8.0,1.0,,,,,,,,,,,,,,
,,,,,,,,,,,block_1/none_n_119_3.wav,no,n,none,119.0,1.932281918,14.89500301,,,yes,Koss portaPro,27,no,,,,,1,2020-09-18_08h50.45.006,kura-A2,2020.1.2,MacIntel,60,,,"[""space"",""space"",""space"",""space"",""space"",""space"",""space"",""space"",""space"",""space"",""space"",""space"",""space"",""space"",""space"",""space"",""space"",""space"",""space"",""space"",""space""]","[4.521290000004228,4.855055000050925,5.571005000034347,5.904680000036024,6.250995000009425,6.638160000031348,7.005380000045989,7.4509750000434,7.835935000039171,8.301845000009052,8.721230000024661,9.121830000018235,9.505685000040103,9.90460000000894,10.300610000034794,10.683554999995977,11.119650000007823,11.585540000000037,12.034325000015087,12.471220000006724,12.93839000002481]",space,0.85059,0.0,8.0,8.0,24.0,1.0,,,,,,,,,,,,,,
,,,,,,,,,,,block_1/weak_n_119_3.wav,no,n,weak,119.0,2.459758036,10.81612992,,,yes,Koss portaPro,27,no,,,,,1,2020-09-18_08h50.45.006,kura-A2,2020.1.2,MacIntel,60,,,"[""space"",""space"",""space"",""space"",""space"",""space"",""space"",""space"",""space"",""space"",""space"",""space"",""space"",""space"",""space"",""space""]","[2.101539999945089,2.5148849999532104,2.931609999970533,3.400999999954365,3.8167849999736063,4.263599999947473,4.6649349999497645,5.100534999975935,5.50379999994766,5.9174849999835715,6.313349999953061,6.751089999976102,7.200469999981578,7.630145000002813,8.068384999991395,8.483939999947324]",space,0.351015,0.0,9.0,9.0,37.0,1.0,,,,,,,,,,,,,,
,,,,,,,,,,,block_1/medium_n_105_4.wav,no,n,medium,105.0,1.402482856,15.80924023,,,yes,Koss portaPro,27,no,,,,,1,2020-09-18_08h50.45.006,kura-A2,2020.1.2,MacIntel,60,,,"[""space"",""space"",""space"",""space"",""space"",""space"",""space"",""space"",""space"",""space"",""space"",""space"",""space"",""space"",""space"",""space"",""space"",""space""]","[1.3877649999922141,2.184384999971371,2.9507449999800883,3.8373349999892525,4.771254999970552,5.43802499998128,6.151429999968968,6.870839999988675,7.588945000024978,8.271275000006426,9.071174999990035,9.738590000022668,10.454184999980498,11.254639999999199,11.91771000000881,12.637869999976829,13.504729999986012,14.088180000020657]",space,0.667365,0.0,10.0,10.0,12.0,1.0,,,,,,,,,,,,,,
,,,,,,,,,,,block_1/strong_n_105_3.wav,no,n,strong,105.0,1.156897655,12.38746455,,,yes,Koss portaPro,27,no,,,,,1,2020-09-18_08h50.45.006,kura-A2,2020.1.2,MacIntel,60,,,"[""space"",""space"",""space"",""space"",""space"",""space"",""space"",""space"",""space"",""space"",""space"",""space"",""space"",""space"",""space"",""space"",""space"",""space""]","[1.7387149999849498,2.3341449999716133,2.839754999964498,3.4551099999807775,4.08408000000054,4.637754999974277,5.185804999957327,5.78466499998467,6.339349999965634,6.9012799999909475,7.4746699999668635,8.04116999998223,8.638074999966193,9.170879999990575,9.771364999993239,10.337949999957345,10.904584999952931,11.484279999975115]",space,0.40086,0.0,11.0,11.0,9.0,1.0,,,,,,,,,,,,,,
,,,,,,,,,,,block_1/weak_n_119_4.wav,no,n,weak,119.0,2.305568033,13.07926418,,,yes,Koss portaPro,27,no,,,,,1,2020-09-18_08h50.45.006,kura-A2,2020.1.2,MacIntel,60,,,"[""space"",""space"",""space"",""space"",""space"",""space"",""space"",""space"",""space"",""space"",""space"",""space"",""space"",""space"",""space"",""space"",""space""]","[2.403519999992568,2.904050000011921,3.483955000003334,4.036599999992177,4.553730000043288,5.116775000002235,5.7178100000019185,6.270599999988917,6.853910000005271,7.370434999989811,7.899840000027325,8.417860000045039,8.923204999999143,9.456624999991618,9.940890000027139,10.47318000002997,11.137255000008736]",space,0.72043,0.0,12.0,12.0,31.0,1.0,,,,,,,,,,,,,,
,,,,,,,,,,,block_1/none_n_81_3.wav,no,n,none,81.0,1.098648096,17.74277508,,,yes,Koss portaPro,27,no,,,,,1,2020-09-18_08h50.45.006,kura-A2,2020.1.2,MacIntel,60,,,"[""space"",""space"",""space"",""space"",""space"",""space"",""space"",""space"",""space"",""space"",""space"",""space"",""space"",""space"",""space"",""space"",""space"",""space"",""space"",""space"",""space"",""space"",""space"",""space"",""space"",""space"",""space"",""space"",""space"",""space""]","[3.900565000018105,4.250980000011623,4.681319999974221,5.152995000011288,5.550734999997076,6.067024999996647,6.513540000014473,6.898174999980256,7.298309999983758,7.687319999968167,8.101099999970756,8.53665500000352,8.98165999999037,9.467245000007097,9.900520000024699,10.280194999999367,10.767345000000205,11.246890000009444,11.734635000000708,12.150499999988824,12.596580000012182,13.067120000021532,13.49721000000136,13.980395000020508,14.383904999995138,14.813589999976102,15.230429999995977,15.651015000010375,16.11755500000436,16.599059999978635]",space,0.30039,0.0,13.0,13.0,29.0,1.0,,,,,,,,,,,,,,
,,,,,,,,,,,block_1/strong_n_72_4.wav,no,n,strong,72.0,1.599228342,16.96784512,,,yes,Koss portaPro,27,no,,,,,1,2020-09-18_08h50.45.006,kura-A2,2020.1.2,MacIntel,60,,,"[""space"",""space"",""space"",""space"",""space"",""space"",""space"",""space"",""space"",""space"",""space"",""space"",""space"",""space"",""space"",""space"",""space"",""space"",""space""]","[1.3155249999836087,2.2967249999637716,3.0503849999513477,3.817544999998063,4.563374999968801,5.396819999965373,6.267229999997653,7.080019999993965,7.796659999992698,8.536364999949,9.400689999980386,10.150889999989886,11.013174999970943,11.801370000001043,12.617039999982808,13.369719999958761,14.163429999956861,14.900659999984782,15.679709999996703]",space,0.56673,0.0,14.0,14.0,35.0,1.0,,,,,,,,,,,,,,
,,,,,,,,,,,block_1/strong_n_92_3.wav,no,n,strong,92.0,1.754608557,14.24499404,,,yes,Koss portaPro,27,no,,,,,1,2020-09-18_08h50.45.006,kura-A2,2020.1.2,MacIntel,60,,,"[""space"",""space"",""space"",""space"",""space"",""space"",""space"",""space"",""space"",""space"",""space"",""space"",""space"",""space"",""space"",""space"",""space"",""space"",""space""]","[1.3711300000431947,2.00578000000678,2.670860000012908,3.3046000000322238,3.9341650000424124,4.550370000011753,5.221080000046641,5.824420000019018,6.467235000047367,7.071960000030231,7.702235000033397,8.404610000026878,8.974680000043008,9.604755000036675,10.250860000029206,10.87138500000583,11.534175000037067,12.154070000047795,12.784459999995306]",space,0.38374,0.0,15.0,15.0,39.0,1.0,,,,,,,,,,,,,,
,,,,,,,,,,,block_1/none_n_72_4.wav,no,n,none,72.0,1.118979514,23.86124709,,,yes,Koss portaPro,27,no,,,,,1,2020-09-18_08h50.45.006,kura-A2,2020.1.2,MacIntel,60,,,"[""space"",""space"",""space"",""space"",""space"",""space"",""space"",""space"",""space"",""space"",""space"",""space"",""space"",""space"",""space"",""space"",""space"",""space"",""space"",""space"",""space"",""space"",""space"",""space"",""space"",""space"",""space"",""space"",""space"",""space"",""space"",""space"",""space"",""space"",""space"",""space"",""space"",""space"",""space"",""space"",""space"",""space""]","[3.9206799999810755,4.320919999969192,4.75172499998007,5.2179899999755435,5.671009999990929,6.104894999996759,6.567225000006147,7.021074999996927,7.467279999982566,7.916960000002291,8.37231000000611,8.800875000015367,9.254610000003595,9.671024999988731,10.150205000012647,10.589819999993779,10.987499999988358,11.521139999968,12.072899999970105,12.504759999981616,12.955799999996088,13.45749000000069,14.037624999997206,14.46728499996243,14.917254999978468,15.387654999969527,15.871304999978747,16.335084999969695,16.7841999999946,17.225159999972675,17.70073499996215,18.173094999976456,18.600719999987632,19.054349999991246,19.486954999971204,19.950465000001714,20.40054499998223,20.93829999997979,21.41750499996124,21.890494999999646,22.284444999997504,22.772434999991674]",space,0.46809,0.0,16.0,16.0,21.0,1.0,,,,,,,,,,,,,,
,,,,,,,,,,,block_1/medium_n_92_3.wav,no,n,medium,92.0,1.602440637,13.28810957,,,yes,Koss portaPro,27,no,,,,,1,2020-09-18_08h50.45.006,kura-A2,2020.1.2,MacIntel,60,,,"[""space"",""space"",""space"",""space"",""space"",""space"",""space"",""space"",""space"",""space"",""space"",""space"",""space"",""space"",""space"",""space"",""space""]","[2.220435000024736,2.8207750000292435,3.4380950000486337,4.0376650000107475,4.602805000031367,5.251725000038277,5.854489999997895,6.567154999997001,7.08734500000719,7.720805000048131,8.317020000016782,8.904080000007525,9.537875000038184,10.11717000004137,10.755760000029113,11.318360000033863,11.917004999995697]",space,0.650385,0.0,17.0,17.0,2.0,1.0,,,,,,,,,,,,,,
,,,,,,,,,,,block_1/strong_n_105_4.wav,no,n,strong,105.0,1.30585928,13.14087062,,,yes,Koss portaPro,27,no,,,,,1,2020-09-18_08h50.45.006,kura-A2,2020.1.2,MacIntel,60,,,"[""space"",""space"",""space"",""space"",""space"",""space"",""space"",""space"",""space"",""space"",""space"",""space"",""space"",""space"",""space"",""space"",""space"",""space"",""space""]","[1.3374849999672733,1.9694149999995716,2.5181699999957345,3.102459999965504,3.720829999947455,4.3340449999668635,4.934844999981578,5.557559999986552,6.121304999978747,6.717979999957606,7.318249999952968,7.941084999998566,8.53912999999011,9.139774999988731,9.754149999993388,10.304524999985006,10.93842500000028,11.56835499999579,12.124339999980293]",space,1.083555,0.0,18.0,18.0,3.0,1.0,,,,,,,,,,,,,,
,,,,,,,,,,,block_1/weak_n_72_4.wav,no,n,weak,72.0,1.441009476,17.41543124,,,yes,Koss portaPro,27,no,,,,,1,2020-09-18_08h50.45.006,kura-A2,2020.1.2,MacIntel,60,,,"[""space"",""space"",""space"",""space"",""space"",""space"",""space"",""space"",""space"",""space"",""space"",""space"",""space"",""space"",""space"",""space"",""space""]","[3.100830000010319,3.8542250000173226,4.7377550000092015,5.573425000009593,6.387910000048578,7.254550000012387,8.100800000014715,8.89099000004353,9.671205000020564,10.537345000018831,11.407570000039414,12.217295000038575,13.117365000012796,13.920930000022054,14.65679999999702,15.48412500001723,16.291030000022147]",space,0.71801,0.0,19.0,19.0,4.0,1.0,,,,,,,,,,,,,,
,,,,,,,,,,,block_1/medium_n_72_3.wav,no,n,medium,72.0,2.102023577,18.17590113,,,yes,Koss portaPro,27,no,,,,,1,2020-09-18_08h50.45.006,kura-A2,2020.1.2,MacIntel,60,,,"[""space"",""space"",""space"",""space"",""space"",""space"",""space"",""space"",""space"",""space"",""space"",""space"",""space"",""space"",""space"",""space"",""space"",""space""]","[1.5688299999455921,2.320799999986775,3.2032799999578856,4.004494999942835,4.884714999992866,5.77111499995226,6.587639999983367,7.471204999950714,8.217974999977741,8.987359999970067,9.820749999955297,10.754684999992605,11.488069999963045,12.28772999998182,13.104529999953229,13.954269999987446,14.68693499994697,15.49150499998359]",space,0.4009,0.0,20.0,20.0,13.0,1.0,,,,,,,,,,,,,,
,,,,,,,,,,,block_1/strong_n_92_4.wav,no,n,strong,92.0,2.276261723,15.98016195,,,yes,Koss portaPro,27,no,,,,,1,2020-09-18_08h50.45.006,kura-A2,2020.1.2,MacIntel,60,,,"[""space"",""space"",""space"",""space"",""space"",""space"",""space"",""space"",""space"",""space"",""space"",""space"",""space"",""space"",""space"",""space"",""space"",""space"",""space"",""space""]","[1.2036799999768846,1.9544649999588728,2.654630000004545,3.3675299999886192,4.1502699999837205,4.854200000001583,5.53954500000691,6.167220000002999,7.237619999970775,7.683699999994133,8.36812999995891,9.100734999985434,9.75755499996012,10.467070000013337,11.253949999983888,11.93949999997858,12.635024999966845,13.371004999964498,14.067099999985658,15.237759999989066]",space,0.483575,0.0,21.0,21.0,34.0,1.0,,,,,,,,,,,,,,
,,,,,,,,,,,block_1/strong_n_72_3.wav,no,n,strong,72.0,2.03136762,17.09667374,,,yes,Koss portaPro,27,no,,,,,1,2020-09-18_08h50.45.006,kura-A2,2020.1.2,MacIntel,60,,,"[""space"",""space"",""space"",""space"",""space"",""space"",""space"",""space"",""space"",""space"",""space"",""space"",""space"",""space"",""space"",""space"",""space"",""space"",""space"",""space""]","[1.4002749999635853,2.2344149999553338,3.0640649999841116,3.801659999997355,4.584544999990612,5.396644999971613,6.235014999983832,6.950549999950454,7.6852599999983795,8.447334999975283,9.263374999980442,10.017185000004247,10.817059999972116,11.550694999983534,12.317159999976866,13.084949999989476,13.817544999998063,13.904199999989942,14.630234999989625,15.450559999968391]",space,0.61637,0.0,22.0,22.0,32.0,1.0,,,,,,,,,,,,,,
,,,,,,,,,,,block_1/medium_n_72_4.wav,no,n,medium,72.0,1.204769933,15.71334136,,,yes,Koss portaPro,27,no,,,,,1,2020-09-18_08h50.45.006,kura-A2,2020.1.2,MacIntel,60,,,"[""space"",""space"",""space"",""space"",""space"",""space"",""space"",""space"",""space"",""space"",""space"",""space"",""space"",""space"",""space"",""space"",""space"",""space"",""space""]","[1.5673999999999069,2.2713949999888428,3.0375849999836646,3.7878449999843724,4.501370000012685,5.219890000007581,5.972799999988638,6.736384999996517,7.484294999972917,8.238499999977648,8.954030000022613,9.688030000019353,10.372674999991432,11.107179999991786,11.86993500002427,12.637749999994412,13.321585000026971,14.05190500000026,14.784860000014305]",space,0.417265,0.0,23.0,23.0,7.0,1.0,,,,,,,,,,,,,,
,,,,,,,,,,,block_1/weak_n_81_3.wav,no,n,weak,81.0,1.412334255,16.47029344,,,yes,Koss portaPro,27,no,,,,,1,2020-09-18_08h50.45.006,kura-A2,2020.1.2,MacIntel,60,,,"[""space"",""space"",""space"",""space"",""space"",""space"",""space"",""space"",""space"",""space"",""space"",""space"",""space"",""space"",""space"",""space""]","[3.420415000000503,4.233149999985471,4.904149999958463,5.637374999991152,6.337650000001304,7.0881700000027195,7.820869999995921,8.621299999998882,9.422129999962635,10.190469999972265,10.906679999956395,11.62056999997003,12.350239999999758,13.153379999974277,13.920814999961294,14.703564999974333]",space,0.51702,0.0,24.0,24.0,30.0,1.0,,,,,,,,,,,,,,
,,,,,,,,,,,block_1/medium_n_119_3.wav,no,n,medium,119.0,1.238363393,11.09976929,,,yes,Koss portaPro,27,no,,,,,1,2020-09-18_08h50.45.006,kura-A2,2020.1.2,MacIntel,60,,,"[""space"",""space"",""space"",""space"",""space"",""space"",""space"",""space"",""space"",""space"",""space"",""space"",""space"",""space"",""space"",""space""]","[0.8632349999970756,3.417409999994561,3.7506050000083633,4.147839999990538,4.651099999959115,5.167249999998603,5.637274999986403,6.148894999991171,6.650849999976344,7.150734999973793,7.630464999994729,8.096489999967162,8.600685000012163,9.100370000000112,9.56887999997707,10.10057999996934]",space,0.83401,0.0,25.0,25.0,22.0,1.0,,,,,,,,,,,,,,
,,,,,,,,,,,block_1/weak_n_105_3.wav,no,n,weak,105.0,1.738990723,13.41450093,,,yes,Koss portaPro,27,no,,,,,1,2020-09-18_08h50.45.006,kura-A2,2020.1.2,MacIntel,60,,,"[""space"",""space"",""space"",""space"",""space"",""space"",""space"",""space"",""space"",""space"",""space"",""space"",""space""]","[4.650315000035334,5.13401999999769,5.896590000018477,6.703329999989364,7.397364999982528,8.06302499998128,8.55041500000516,9.217490000010002,9.783594999986235,10.296550000028219,10.796595000021625,11.36677000002237,11.88336999999592]",space,0.683725,0.0,26.0,26.0,27.0,1.0,,,,,,,,,,,,,,
,,,,,,,,,,,block_1/weak_n_92_4.wav,no,n,weak,92.0,2.208253857,14.29442166,,,yes,Koss portaPro,27,no,,,,,1,2020-09-18_08h50.45.006,kura-A2,2020.1.2,MacIntel,60,,,"[""space"",""space"",""space"",""space"",""space"",""space"",""space"",""space"",""space"",""space"",""space"",""space"",""space"",""space"",""space"",""space"",""space"",""space"",""space"",""space""]","[0.8215900000068359,1.4004100000020117,2.037865000020247,2.6543149999924935,3.2506200000061654,3.7695950000197627,4.404144999978598,4.957829999970272,5.657959999982268,6.267210000019986,6.871389999985695,7.417390000016894,8.050430000002962,8.63753499998711,9.22129000001587,9.9208000000217,10.434070000017527,11.117114999971818,11.671120000013616,12.333845000015572]",space,0.3829,0.0,27.0,27.0,15.0,1.0,,,,,,,,,,,,,,
,,,,,,,,,,,block_1/none_n_119_4.wav,no,n,none,119.0,2.009432028,15.37111003,,,yes,Koss portaPro,27,no,,,,,1,2020-09-18_08h50.45.006,kura-A2,2020.1.2,MacIntel,60,,,"[""space"",""space"",""space"",""space"",""space"",""space"",""space"",""space"",""space"",""space"",""space"",""space"",""space"",""space"",""space"",""space"",""space"",""space"",""space"",""space"",""space"",""space"",""space"",""space"",""space"",""space"",""space"",""space"",""space"",""space"",""space"",""space"",""space"",""space""]","[0.7505249999812804,1.1671400000341237,1.5522699999855831,1.9482200000202283,2.313525000005029,2.6634349999949336,3.0170950000174344,3.383990000002086,3.8004349999828264,4.116710000031162,4.500315000012051,4.813555000000633,5.166659999988042,5.50054999999702,5.833645000006072,6.333740000030957,6.700075000000652,7.050730000017211,7.470205000019632,7.850150000012945,8.217185000015888,8.633465000020806,8.94674500002293,9.403630000015255,9.836219999997411,10.253335000015795,10.650680000020657,11.050775000010617,11.496839999977965,11.849120000028051,12.217115000006743,12.613194999983534,13.063335000013467,13.46368500002427]",space,1.036395,0.0,28.0,28.0,20.0,1.0,,,,,,,,,,,,,,
,,,,,,,,,,,block_1/weak_n_81_4.wav,no,n,weak,81.0,2.484743178,17.5438815,,,yes,Koss portaPro,27,no,,,,,1,2020-09-18_08h50.45.006,kura-A2,2020.1.2,MacIntel,60,,,"[""space"",""space"",""space"",""space"",""space"",""space"",""space"",""space"",""space"",""space"",""space"",""space"",""space"",""space"",""space"",""space"",""space""]","[1.871419999981299,2.620104999979958,3.434030000003986,4.250514999963343,5.071264999976847,6.16816000000108,6.871354999952018,7.637814999965485,8.390574999968521,9.2212999999756,10.021814999985509,10.804199999955017,11.587750000006054,12.300779999990482,13.11737999995239,13.87104499997804,14.60555999999633]",space,0.48368,0.0,29.0,29.0,36.0,1.0,,,,,,,,,,,,,,
,,,,,,,,,,,block_1/medium_n_81_4.wav,no,n,medium,81.0,1.742854158,16.25138024,,,yes,Koss portaPro,27,no,,,,,1,2020-09-18_08h50.45.006,kura-A2,2020.1.2,MacIntel,60,,,"[""space"",""space"",""space"",""space"",""space"",""space"",""space"",""space"",""space"",""space"",""space"",""space"",""space"",""space"",""space"",""space"",""space"",""space""]","[1.5174899999983609,2.2338500000187196,3.0339099999982864,3.854524999973364,4.587650000001304,5.3378800000064075,6.068510000011884,6.787789999973029,7.504335000005085,8.188244999968447,8.93797500000801,9.62108499999158,10.40089499996975,11.07375999999931,11.824005000002217,12.574604999972507,13.333860000013374,14.107740000006743]",space,0.50446,0.0,30.0,30.0,38.0,1.0,,,,,,,,,,,,,,
,,,,,,,,,,,block_1/strong_n_119_3.wav,no,n,strong,119.0,1.213627968,10.9792062,,,yes,Koss portaPro,27,no,,,,,1,2020-09-18_08h50.45.006,kura-A2,2020.1.2,MacIntel,60,,,"[""space"",""space"",""space"",""space"",""space"",""space"",""space"",""space"",""space"",""space"",""space"",""space"",""space"",""space"",""space"",""space"",""space"",""space"",""space""]","[1.2466049999929965,1.746324999956414,2.1837049999739975,2.6335549999494106,3.1336199999786913,3.613149999990128,4.129384999978356,4.629769999999553,5.070769999991171,5.550209999957588,6.084559999988414,6.546634999976959,7.046459999983199,7.517884999979287,8.050285000004806,8.496879999991506,8.99635999999009,9.484399999957532,9.936894999991637]",space,0.41694,0.0,31.0,31.0,16.0,1.0,,,,,,,,,,,,,,
,,,,,,,,,,,block_1/none_n_72_3.wav,no,n,none,72.0,1.892162994,23.61892036,,,yes,Koss portaPro,27,no,,,,,1,2020-09-18_08h50.45.006,kura-A2,2020.1.2,MacIntel,60,,,"[""space"",""space"",""space"",""space"",""space"",""space"",""space"",""space"",""space"",""space"",""space"",""space"",""space"",""space"",""space"",""space"",""space"",""space"",""space"",""space"",""space"",""space"",""space"",""space"",""space"",""space"",""space"",""space"",""space"",""space"",""space"",""space""]","[6.8343600000371225,7.252470000006724,7.680274999991525,8.267685000027996,8.800700000021607,9.284810000041034,9.79704999999376,10.317125000001397,10.780305000022054,11.23375000001397,11.630189999996219,12.117750000033993,12.613360000017565,13.08111500000814,13.53595500002848,13.980085000046529,14.446845000027679,14.98389999999199,15.483020000043325,16.013635000039358,16.4503750000149,16.885914999991655,17.367410000006203,17.851400000043213,18.35359499999322,18.80152000003727,19.330400000035297,19.753094999992754,20.21734000003198,20.7191650000168,21.250464999990072,21.71547500003362]",space,1.233365,0.0,32.0,32.0,18.0,1.0,,,,,,,,,,,,,,
,,,,,,,,,,,block_1/weak_n_92_3.wav,no,n,weak,92.0,1.887522896,14.6307882,,,yes,Koss portaPro,27,no,,,,,1,2020-09-18_08h50.45.006,kura-A2,2020.1.2,MacIntel,60,,,"[""space"",""space"",""space"",""space"",""space"",""space"",""space"",""space"",""space"",""space"",""space"",""space"",""space"",""space"",""space"",""space"",""space""]","[2.6209450000314973,3.2876750000286847,3.9362050000345334,4.53747000003932,5.184494999994058,5.767655000032391,6.4339749999926426,7.117514999990817,7.82124499999918,8.467520000005607,9.12275999999838,9.850849999987986,10.454330000036862,11.035369999997783,11.688175000017509,12.350785000016913,13.00089000002481]",space,0.72066,0.0,33.0,33.0,5.0,1.0,,,,,,,,,,,,,,
,,,,,,,,,,,block_1/strong_n_81_4.wav,no,n,strong,81.0,1.727706814,17.69954355,,,yes,Koss portaPro,27,no,,,,,1,2020-09-18_08h50.45.006,kura-A2,2020.1.2,MacIntel,60,,,"[""space"",""space"",""space"",""space"",""space"",""space"",""space"",""space"",""space"",""space"",""space"",""space"",""space"",""space"",""space"",""space"",""space"",""space""]","[1.717449999996461,2.6011549999821,3.4173749999608845,4.252914999960922,4.946690000011586,5.7866700000013225,6.70113499998115,7.363465000002179,8.233840000000782,8.98389999999199,9.883685000007972,10.63430499995593,11.437284999992698,13.083754999970552,13.900449999957345,14.680649999994785,15.48444999998901,16.26397500000894]",space,0.583865,0.0,34.0,34.0,1.0,1.0,,,,,,,,,,,,,,
,,,,,,,,,,,block_1/none_n_81_4.wav,no,n,none,81.0,2.242955119,22.19488256,,,yes,Koss portaPro,27,no,,,,,1,2020-09-18_08h50.45.006,kura-A2,2020.1.2,MacIntel,60,,,"[""space"",""space"",""space"",""space"",""space"",""space"",""space"",""space"",""space"",""space"",""space"",""space"",""space"",""space"",""space"",""space"",""space"",""space"",""space"",""space"",""space"",""space"",""space"",""space"",""space"",""space"",""space"",""space"",""space""]","[3.7877299999818206,4.38808499998413,4.787774999975227,5.217434999998659,5.770870000007562,6.290694999974221,6.806029999977909,7.333935000002384,7.884689999977127,8.517234999977518,9.223554999975022,9.739375000004657,10.35050499998033,10.951000000000931,11.570940000005066,12.171719999983907,12.7037849999615,13.35668500000611,13.954900000011548,14.56683999998495,15.183764999965206,15.950565000006463,16.487704999977723,16.98809999995865,17.604564999986906,18.187455000006594,18.75138999999035,19.450695000006817,19.95064499997534]",space,0.53398,0.0,35.0,35.0,26.0,1.0,,,,,,,,,,,,,,
,,,,,,,,,,,block_1/medium_n_105_3.wav,no,n,medium,105.0,2.417465983,14.09955215,,,yes,Koss portaPro,27,no,,,,,1,2020-09-18_08h50.45.006,kura-A2,2020.1.2,MacIntel,60,,,"[""space"",""space"",""space"",""space"",""space"",""space"",""space"",""space"",""space"",""space"",""space"",""space"",""space"",""space"",""space"",""space"",""space"",""space"",""space""]","[1.4669799999683164,2.053509999997914,2.617199999978766,3.2004399999859743,3.7529649999924004,4.318489999976009,4.913329999952111,5.467004999984056,6.033504999999423,6.650734999973793,7.185644999961369,7.796614999999292,8.366314999992028,8.950184999965131,9.546854999964125,10.134224999987055,10.75035999994725,11.280149999947753,11.834094999998342]",space,0.400615,0.0,36.0,36.0,0.0,1.0,,,,,,,,,,,,,,
,,,,,,,,,,,block_1/none_n_92_4.wav,no,n,none,92.0,1.296817987,15.18938035,,,yes,Koss portaPro,27,no,,,,,1,2020-09-18_08h50.45.006,kura-A2,2020.1.2,MacIntel,60,,,"[""space"",""space"",""space"",""space"",""space"",""space"",""space"",""space"",""space"",""space"",""space"",""space"",""space"",""space""]","[6.617904999991879,7.08652999997139,7.7335800000000745,8.314345000020694,8.730180000013206,9.396840000001248,10.047710000013467,10.586379999993369,11.08002499997383,11.633794999972451,12.204369999992196,12.70130999997491,13.266709999996237,13.75042499997653]",space,0.35346,0.0,37.0,37.0,19.0,1.0,,,,,,,,,,,,,,
,,,,,,,,,,,block_1/medium_n_92_4.wav,no,n,medium,92.0,1.438882438,14.02917722,,,yes,Koss portaPro,27,no,,,,,1,2020-09-18_08h50.45.006,kura-A2,2020.1.2,MacIntel,60,,,"[""space"",""space"",""space"",""space"",""space"",""space"",""space"",""space"",""space"",""space"",""space"",""space"",""space"",""space"",""space"",""space"",""space"",""space"",""space""]","[1.4877799999667332,2.170704999996815,2.7838749999646097,3.437824999971781,4.0585250000003725,4.65480999997817,5.2717549999943,5.867369999992661,6.536129999964032,7.117960000003222,7.787949999968987,8.370924999995623,9.054669999983162,9.671510000014678,10.337799999979325,10.919394999975339,11.534134999965318,12.15089499996975,12.771539999986999]",space,0.66658,0.0,38.0,38.0,11.0,1.0,,,,,,,,,,,,,,
,,,,,,,,,,,block_1/strong_n_119_4.wav,no,n,strong,119.0,1.980480326,12.048825,,,yes,Koss portaPro,27,no,,,,,1,2020-09-18_08h50.45.006,kura-A2,2020.1.2,MacIntel,60,,,"[""space"",""space"",""space"",""space"",""space"",""space"",""space"",""space"",""space"",""space"",""space"",""space"",""space"",""space"",""space"",""space"",""space"",""space""]","[1.1860250000027008,1.667264999996405,2.671044999966398,3.1849650000222027,3.687904999998864,4.190260000003036,4.7337599999736995,5.204989999998361,5.70447499997681,6.204774999991059,6.707309999968857,7.203999999968801,7.704144999966957,8.22136500000488,8.750579999992624,9.237834999978077,9.738049999985378,10.254834999970626]",space,0.334685,0.0,39.0,39.0,23.0,1.0,,,,,,,,,,,,,,
,,,,,,,,,,,block_2/weak_t_105_3.wav,timbre,t,weak,105.0,1.911505731,13.14248079,,,yes,Koss portaPro,27,no,,,,,1,2020-09-18_08h50.45.006,kura-A2,2020.1.2,MacIntel,60,,,,,,,,,,,,space,36.347045,"[""space"",""space"",""space"",""space"",""space"",""space"",""space"",""space"",""space"",""space"",""space"",""space"",""space"",""space"",""space"",""space""]","[2.231445000041276,2.800180000020191,3.6005600000498816,4.179795000003651,4.767120000033174,5.413305000052787,5.930700000026263,6.433680000016466,6.983365000050981,7.616565000033006,8.179730000032578,8.716720000025816,9.300945000024512,9.883235000015702,10.417520000017248,11.016725000052247]",space,0.566655,0.0,0.0,0.0,4.0,1.0,,,
,,,,,,,,,,,block_2/medium_t_105_3.wav,timbre,t,medium,105.0,1.319167427,12.09599282,,,yes,Koss portaPro,27,no,,,,,1,2020-09-18_08h50.45.006,kura-A2,2020.1.2,MacIntel,60,,,,,,,,,,,,,,"[""space"",""space"",""space"",""space"",""space"",""space"",""space"",""space"",""space"",""space"",""space"",""space"",""space"",""space"",""space"",""space"",""space"",""space"",""space""]","[1.0874199999962002,1.6379650000017136,2.2045349999680184,2.7882749999989755,3.5006350000039674,3.938075000012759,4.439354999980424,4.954389999969862,5.533899999980349,6.091299999970943,6.620980000006966,7.184130000008736,7.753854999959003,8.287469999981113,8.821349999983795,9.35474499996053,9.95412499998929,10.487949999980628,11.056515000003856]",space,0.35048,0.0,1.0,1.0,16.0,1.0,,,
,,,,,,,,,,,block_2/medium_t_81_3.wav,timbre,t,medium,81.0,1.280563259,13.87394194,,,yes,Koss portaPro,27,no,,,,,1,2020-09-18_08h50.45.006,kura-A2,2020.1.2,MacIntel,60,,,,,,,,,,,,,,"[""space"",""space"",""space"",""space"",""space"",""space"",""space"",""space"",""space"",""space"",""space"",""space"",""space"",""space"",""space"",""space"",""space"",""space"",""space""]","[1.1352349999942817,1.8296749999863096,2.5962900000158697,3.2296900000073947,3.879895000020042,4.550745000015013,5.2129149999818765,5.80011499999091,6.55066499998793,7.2004500000039116,7.834045000025071,8.466780000017025,9.08336499996949,9.633924999972805,10.296165000007022,10.98338499997044,11.551144999975804,12.21665000001667,12.879735000024084]",space,17.783875,0.0,2.0,2.0,8.0,1.0,,,
,,,,,,,,,,,block_2/weak_t_119_3.wav,timbre,t,weak,119.0,2.134308914,11.54587354,,,yes,Koss portaPro,27,no,,,,,1,2020-09-18_08h50.45.006,kura-A2,2020.1.2,MacIntel,60,,,,,,,,,,,,,,"[""space"",""space"",""space"",""space"",""space"",""space"",""space"",""space"",""space"",""space"",""space"",""space"",""space"",""space"",""space"",""space"",""space"",""space""]","[1.7333250000374392,2.141150000039488,2.5671950000105426,2.9710350000532344,3.4543850000482053,3.904180000012275,4.353900000045542,4.804335000051651,5.240760000015143,5.72370500001125,6.190145000000484,6.671540000010282,7.187239999999292,7.657995000015944,8.133605000039097,8.600605000043288,9.087775000021793,9.57084500003839]",space,6.70169,0.0,3.0,3.0,13.0,1.0,,,
,,,,,,,,,,,block_2/none_t_92_4.wav,timbre,t,none,92.0,1.414044957,16.25508804,,,yes,Koss portaPro,27,no,,,,,1,2020-09-18_08h50.45.006,kura-A2,2020.1.2,MacIntel,60,,,,,,,,,,,,,,"[""space"",""space"",""space"",""space"",""space"",""space"",""space"",""space"",""space"",""space"",""space"",""space"",""space"",""space"",""space"",""space"",""space"",""space"",""space"",""space"",""space""]","[3.296619999979157,3.9340249999659136,4.400280000001658,4.900640000007115,5.350314999988768,5.8965449999668635,6.4673949999851175,7.200874999980442,7.802244999969844,8.496929999964777,9.05190500000026,9.636484999966342,10.233479999995325,10.81716499995673,11.413194999971893,11.967139999964274,12.583954999980051,13.114184999954887,13.64648999995552,14.233729999978095,14.867189999960829]",space,1.00063,0.0,4.0,4.0,22.0,1.0,,,
,,,,,,,,,,,block_2/strong_t_81_3.wav,timbre,t,strong,81.0,1.276002308,16.49137646,,,yes,Koss portaPro,27,no,,,,,1,2020-09-18_08h50.45.006,kura-A2,2020.1.2,MacIntel,60,,,,,,,,,,,,,,"[""space"",""space"",""space"",""space"",""space"",""space"",""space"",""space"",""space"",""space"",""space"",""space"",""space"",""space"",""space"",""space"",""space"",""space"",""space""]","[1.6174050000263378,2.385739999997895,3.1546850000158884,3.888165000011213,4.668500000028871,5.407325000036508,6.187750000040978,7.021470000036061,7.788189999992028,8.539310000021942,9.287925000011455,10.020735000027344,10.754990000044927,11.568435000022873,12.270814999996219,13.134030000015628,13.87138500000583,14.821050000027753,15.584265000012238]",space,0.583795,0.0,5.0,5.0,24.0,1.0,,,
,,,,,,,,,,,block_2/weak_t_119_4.wav,timbre,t,weak,119.0,2.497661912,13.1066415,,,yes,Koss portaPro,27,no,,,,,1,2020-09-18_08h50.45.006,kura-A2,2020.1.2,MacIntel,60,,,,,,,,,,,,,,"[""space"",""space"",""space"",""space"",""space"",""space"",""space"",""space"",""space"",""space"",""space"",""space"",""space"",""space"",""space""]","[2.2001750000054017,2.7507450000266545,3.2637850000173785,3.8835500000277534,4.447430000000168,5.130145000002813,5.779949999996461,6.417179999989457,6.950249999994412,7.501419999985956,8.08390500000678,8.683840000012424,9.363175000005867,9.884360000025481,10.396424999984447]",space,0.417045,0.0,6.0,6.0,11.0,1.0,,,
,,,,,,,,,,,block_2/strong_t_72_3.wav,timbre,t,strong,72.0,1.757165856,18.23458082,,,yes,Koss portaPro,27,no,,,,,1,2020-09-18_08h50.45.006,kura-A2,2020.1.2,MacIntel,60,,,,,,,,,,,,,,"[""space"",""space"",""space"",""space"",""space"",""space"",""space"",""space"",""space"",""space"",""space"",""space"",""space"",""space"",""space"",""space"",""space"",""space"",""space""]","[1.7172100000316277,2.603545000019949,3.4006350000272505,4.230139999999665,5.101584999996703,5.967044999997597,6.818120000010822,7.667320000007749,8.44724499998847,9.253550000023097,10.133535000029951,10.998629999987315,11.850960000010673,12.636724999989383,13.567229999986012,14.396735000016633,15.217164999980014,16.066950000007637,16.902579999994487]",space,1.866565,0.0,7.0,7.0,5.0,1.0,,,
,,,,,,,,,,,block_2/strong_t_105_3.wav,timbre,t,strong,105.0,1.973938856,13.50654657,,,yes,Koss portaPro,27,no,,,,,1,2020-09-18_08h50.45.006,kura-A2,2020.1.2,MacIntel,60,,,,,,,,,,,,,,"[""space"",""space"",""space"",""space"",""space"",""space"",""space"",""space"",""space"",""space"",""space"",""space"",""space"",""space"",""space"",""space"",""space"",""space""]","[1.168355000030715,1.9012750000110827,2.4004299999796785,2.9510000000009313,3.566709999984596,4.135965000023134,4.763254999998026,5.320010000024922,5.935635000001639,6.50071500003105,7.133405000029597,7.663730000029318,8.283560000010766,8.834120000014082,10.000664999999572,10.617335000017192,11.183315000031143,11.798609999998007]",space,0.38295,0.0,8.0,8.0,21.0,1.0,,,
,,,,,,,,,,,block_2/strong_t_81_4.wav,timbre,t,strong,81.0,1.059530738,15.41717246,,,yes,Koss portaPro,27,no,,,,,1,2020-09-18_08h50.45.006,kura-A2,2020.1.2,MacIntel,60,,,,,,,,,,,,,,"[""space"",""space"",""space"",""space"",""space"",""space"",""space"",""space"",""space"",""space"",""space"",""space"",""space"",""space"",""space"",""space"",""space"",""space"",""space""]","[1.613309999986086,2.330054999969434,3.0701999999582767,3.85025499999756,4.563504999969155,5.3010099999955855,6.033819999953266,6.701319999992847,7.485469999955967,8.23149499995634,8.902339999971446,9.596974999993108,10.417479999945499,11.084049999946728,11.820094999973662,12.617369999992661,13.313534999964759,13.983829999982845,14.717449999996461]",space,0.41939,0.0,9.0,9.0,34.0,1.0,,,
,,,,,,,,,,,block_2/strong_t_92_3.wav,timbre,t,strong,92.0,2.058598996,15.10526566,,,yes,Koss portaPro,27,no,,,,,1,2020-09-18_08h50.45.006,kura-A2,2020.1.2,MacIntel,60,,,,,,,,,,,,,,"[""space"",""space"",""space"",""space"",""space"",""space"",""space"",""space"",""space"",""space"",""space"",""space"",""space"",""space"",""space"",""space"",""space"",""space"",""space""]","[1.3506800000322983,2.0175150000141002,2.6879600000102073,3.3886500000371598,4.036339999991469,4.6713350000209175,5.334220000018831,6.050800000026356,6.7045149999903515,7.371455000014976,8.054494999989402,8.721125000040047,9.404604999988806,10.03802999999607,10.72156500001438,11.404474999988452,12.024314999987837,12.734180000028573,13.384865000029095]",space,0.466365,0.0,10.0,10.0,3.0,1.0,,,
,,,,,,,,,,,block_2/strong_t_119_3.wav,timbre,t,strong,119.0,2.177542179,13.00520658,,,yes,Koss portaPro,27,no,,,,,1,2020-09-18_08h50.45.006,kura-A2,2020.1.2,MacIntel,60,,,,,,,,,,,,,,"[""space"",""space"",""space"",""space"",""space"",""space"",""space"",""space"",""space"",""space"",""space"",""space"",""space"",""space"",""space"",""space"",""space"",""space"",""space""]","[1.1024099999922328,1.6336749999900348,2.1465299999690615,2.7020250000059605,3.233520000008866,3.8002599999890663,4.3798749999841675,4.929614999971818,5.483819999964908,6.0500149999861605,6.6340150000178255,7.167799999995623,7.748254999984056,8.3186299999943,8.850340000004508,9.433799999998882,9.98362499999348,10.533869999984745,11.083849999995437]",space,0.433105,0.0,11.0,11.0,28.0,1.0,,,
,,,,,,,,,,,block_2/none_t_92_3.wav,timbre,t,none,92.0,1.328085357,13.39815338,,,yes,Koss portaPro,27,no,,,,,1,2020-09-18_08h50.45.006,kura-A2,2020.1.2,MacIntel,60,,,,,,,,,,,,,,"[""space"",""space"",""space"",""space"",""space"",""space"",""space"",""space"",""space"",""space"",""space"",""space"",""space"",""space"",""space"",""space""]","[3.783770000038203,4.283800000033807,4.766900000046007,5.447595000034198,5.983464999997523,6.534245000046212,7.133629999996629,7.617230000032578,8.150515000044834,8.833810000040103,9.450245000014547,10.017345000000205,10.535295000008773,11.117250000010245,11.748045000014827,12.29690000001574]",space,0.367245,0.0,12.0,12.0,17.0,1.0,,,
,,,,,,,,,,,block_2/weak_t_105_4.wav,timbre,t,weak,105.0,1.205192231,12.73516956,,,yes,Koss portaPro,27,no,,,,,1,2020-09-18_08h50.45.006,kura-A2,2020.1.2,MacIntel,60,,,,,,,,,,,,,,"[""space"",""space"",""space"",""space"",""space"",""space"",""space"",""space"",""space"",""space"",""space"",""space"",""space"",""space"",""space"",""space"",""space"",""space""]","[1.4384650000138208,2.0540299999993294,2.6874550000065938,3.3005999999586493,3.900450000015553,4.451100000005681,5.187389999977313,5.904414999997243,6.487484999990556,7.070569999981672,7.704154999984894,8.291324999998324,8.904255000001285,9.467454999976326,10.000639999983832,10.554484999971464,11.123915000003763,11.717074999993201]",space,0.667275,0.0,13.0,13.0,7.0,1.0,,,
,,,,,,,,,,,block_2/medium_t_72_4.wav,timbre,t,medium,72.0,1.912133969,19.94959429,,,yes,Koss portaPro,27,no,,,,,1,2020-09-18_08h50.45.006,kura-A2,2020.1.2,MacIntel,60,,,,,,,,,,,,,,"[""space"",""space"",""space"",""space"",""space"",""space"",""space"",""space"",""space"",""space"",""space"",""space"",""space"",""space"",""space"",""space"",""space"",""space"",""space""]","[1.2636749999946915,2.1146699999808334,3.167520000017248,4.100474999984726,4.95085999998264,5.934094999975059,6.83428000001004,7.733710000000428,8.667889999982435,9.601099999970756,10.497254999994766,11.334144999971613,12.300325000018347,13.267334999982268,14.08400500001153,14.9512349999859,15.834165000007488,16.817174999974668,17.73033499997109]",space,0.684095,0.0,14.0,14.0,36.0,1.0,,,
,,,,,,,,,,,block_2/weak_t_72_4.wav,timbre,t,weak,72.0,1.41938316,17.89516547,,,yes,Koss portaPro,27,no,,,,,1,2020-09-18_08h50.45.006,kura-A2,2020.1.2,MacIntel,60,,,,,,,,,,,,,,"[""space"",""space"",""space"",""space"",""space"",""space"",""space"",""space"",""space"",""space"",""space"",""space"",""space"",""space"",""space"",""space"",""space"",""space""]","[1.9709149999544024,2.8043699999689125,3.688354999991134,4.504429999971762,5.3415449999738485,6.087629999965429,7.054409999982454,7.81718999997247,8.687479999964125,9.537784999993164,10.404404999979306,11.304535000002943,12.13803500001086,13.000490000005811,13.883869999961462,14.685965000011493,15.537734999961685,16.437630000000354]",space,1.00121,0.0,15.0,15.0,33.0,1.0,,,
,,,,,,,,,,,block_2/weak_t_72_3.wav,timbre,t,weak,72.0,1.543417886,17.01208002,,,yes,Koss portaPro,27,no,,,,,1,2020-09-18_08h50.45.006,kura-A2,2020.1.2,MacIntel,60,,,,,,,,,,,,,,"[""space"",""space"",""space"",""space"",""space"",""space"",""space"",""space"",""space"",""space"",""space"",""space"",""space"",""space""]","[4.614469999971334,5.4172900000121444,6.300300000002608,7.100724999967497,7.86308999999892,8.71728499996243,9.468240000016522,10.317065000010189,11.133830000006128,11.933714999991935,12.750279999978375,13.550374999991618,14.33116499998141,15.09719000000041]",space,0.35051,0.0,16.0,16.0,26.0,1.0,,,
,,,,,,,,,,,block_2/weak_t_92_3.wav,timbre,t,weak,92.0,1.995389518,17.35720358,,,yes,Koss portaPro,27,no,,,,,1,2020-09-18_08h50.45.006,kura-A2,2020.1.2,MacIntel,60,,,,,,,,,,,,,,"[""space"",""space"",""space"",""space"",""space"",""space"",""space"",""space"",""space"",""space"",""space"",""space"",""space"",""space""]","[4.32009500003187,5.383390000031795,6.263575000048149,7.513680000032764,8.183575000031851,8.817169999994803,9.620265000034124,10.54697500000475,11.163255000021309,12.067024999996647,12.830035000049975,13.633860000001732,14.335309999994934,15.252215000044089]",space,1.20035,0.0,17.0,17.0,38.0,1.0,,,
,,,,,,,,,,,block_2/medium_t_92_4.wav,timbre,t,medium,92.0,1.599417172,14.59601581,,,yes,Koss portaPro,27,no,,,,,1,2020-09-18_08h50.45.006,kura-A2,2020.1.2,MacIntel,60,,,,,,,,,,,,,,"[""space"",""space"",""space"",""space"",""space"",""space"",""space"",""space"",""space"",""space"",""space"",""space"",""space"",""space"",""space"",""space"",""space"",""space"",""space""]","[1.3337549999705516,2.0175450000097044,2.651290000008885,3.3829099999857135,3.967774999968242,4.684445000020787,5.3009949999977835,5.9999100000131875,6.6332149999798276,7.3181149999727495,7.950639999995474,8.633289999968838,9.34973999997601,9.999784999992698,10.66661000001477,11.332865000003949,12.016680000000633,12.700115000014193,13.332924999995157]",space,33.917525,0.0,18.0,18.0,25.0,1.0,,,
,,,,,,,,,,,block_2/none_t_72_4.wav,timbre,t,none,72.0,1.053800106,24.75334659,,,yes,Koss portaPro,27,no,,,,,1,2020-09-18_08h50.45.006,kura-A2,2020.1.2,MacIntel,60,,,,,,,,,,,,,,"[""space"",""space"",""space"",""space"",""space"",""space"",""space"",""space"",""space"",""space"",""space"",""space"",""space"",""space"",""space"",""space"",""space"",""space"",""space"",""space"",""space"",""space"",""space"",""space"",""space"",""space"",""space"",""space""]","[2.9679400000022724,3.5832400000072084,4.217425000038929,4.869400000025053,5.63603500003228,6.383995000040159,7.01681500003906,7.851060000015423,8.650340000051074,9.269470000057481,9.933420000015758,10.779315000050701,11.433725000009872,12.233385000028647,13.049915000039618,13.733165000041481,14.550535000045784,15.301235000020824,16.129610000003595,16.883440000005066,17.683290000015404,18.450255000032485,19.229580000042915,20.11677000002237,20.83351500000572,21.682445000042208,22.512795000046026,23.36302000004798]",space,0.73475,0.0,19.0,19.0,15.0,1.0,,,
,,,,,,,,,,,block_2/strong_t_119_4.wav,timbre,t,strong,119.0,1.529717424,11.39760858,,,yes,Koss portaPro,27,no,,,,,1,2020-09-18_08h50.45.006,kura-A2,2020.1.2,MacIntel,60,,,,,,,,,,,,,,"[""space"",""space"",""space"",""space"",""space"",""space"",""space"",""space"",""space"",""space"",""space"",""space"",""space"",""space"",""space"",""space"",""space"",""space"",""space""]","[1.037700000044424,1.5380950000253506,2.017099999997299,2.52113000000827,3.03765499999281,3.5544799999915995,4.055534999992233,4.554400000022724,5.05420499999309,5.537739999999758,6.054925000004005,6.55429500003811,7.037695000006352,7.554315000015777,8.054390000004787,8.537765000015497,9.07137000001967,9.55447000003187,10.072150000021793]",space,0.40128,0.0,20.0,20.0,39.0,1.0,,,
,,,,,,,,,,,block_2/weak_t_81_3.wav,timbre,t,weak,81.0,1.745235196,18.01484971,,,yes,Koss portaPro,27,no,,,,,1,2020-09-18_08h50.45.006,kura-A2,2020.1.2,MacIntel,60,,,,,,,,,,,,,,"[""space"",""space"",""space"",""space"",""space"",""space"",""space"",""space"",""space"",""space"",""space"",""space"",""space"",""space"",""space"",""space"",""space"",""space""]","[2.1713549999985844,2.937969999969937,3.84041000000434,4.767210000019986,5.554330000013579,6.270380000001751,7.070854999998119,7.9171600000117905,8.737619999970775,9.5213399999775,10.320705000020098,11.100069999985863,11.821805000014137,12.57151999999769,13.387775000010151,14.25516499998048,15.071575000009034,15.852290000009816]",space,0.45011,0.0,21.0,21.0,6.0,1.0,,,
,,,,,,,,,,,block_2/strong_t_72_4.wav,timbre,t,strong,72.0,1.957123463,17.07435702,,,yes,Koss portaPro,27,no,,,,,1,2020-09-18_08h50.45.006,kura-A2,2020.1.2,MacIntel,60,,,,,,,,,,,,,,"[""space"",""space"",""space"",""space"",""space"",""space"",""space"",""space"",""space"",""space"",""space"",""space"",""space"",""space"",""space"",""space"",""space"",""space""]","[2.1203650000388734,2.9538400000310503,3.936825000040699,4.551384999998845,5.2541349999955855,6.070395000046119,6.873250000004191,7.687235000019427,8.436815000022762,9.2204400000046,10.021609999996144,10.853690000018105,11.586845000041649,12.40390999999363,13.170745000010356,13.95405000000028,14.703440000012051,15.453450000029989]",space,0.850165,0.0,22.0,22.0,1.0,1.0,,,
,,,,,,,,,,,block_2/none_t_81_3.wav,timbre,t,none,81.0,2.3234515,21.58667145,,,yes,Koss portaPro,27,no,,,,,1,2020-09-18_08h50.45.006,kura-A2,2020.1.2,MacIntel,60,,,,,,,,,,,,,,"[""space"",""space"",""space"",""space"",""space"",""space"",""space"",""space"",""space"",""space"",""space"",""space""]","[4.166815000004135,5.254365000000689,6.451654999982566,7.554275000002235,8.883915000013076,10.104200000001583,11.404144999978598,12.787669999990612,14.137854999979027,15.689350000000559,17.387474999995902,18.754399999976158]",space,0.3535,0.0,23.0,23.0,10.0,1.0,,,
,,,,,,,,,,,block_2/medium_t_105_4.wav,timbre,t,medium,105.0,1.80685877,13.54300389,,,yes,Koss portaPro,27,no,,,,,1,2020-09-18_08h50.45.006,kura-A2,2020.1.2,MacIntel,60,,,,,,,,,,,,,,"[""space"",""space"",""space"",""space"",""space"",""space"",""space"",""space"",""space"",""space"",""space"",""space"",""space"",""space"",""space"",""space""]","[2.367160000023432,2.947570000018459,3.5499699999927543,4.150785000005271,4.750050000031479,5.383960000006482,6.000770000042394,6.600705000048038,7.233210000034887,7.816640000033658,8.41708500002278,9.066530000010971,9.650840000016615,10.26691500004381,10.86707000003662,11.450494999997318]",space,0.33513,0.0,24.0,24.0,23.0,1.0,,,
,,,,,,,,,,,block_2/medium_t_119_3.wav,timbre,t,medium,119.0,1.894752713,10.65330147,,,yes,Koss portaPro,27,no,,,,,1,2020-09-18_08h50.45.006,kura-A2,2020.1.2,MacIntel,60,,,,,,,,,,,,,,"[""space"",""space"",""space"",""space"",""space"",""space"",""space"",""space"",""space"",""space"",""space"",""space"",""space"",""space"",""space"",""space"",""space"",""space""]","[1.3878399999812245,1.8192599999601953,2.255379999987781,2.6870249999919906,3.104619999998249,3.554069999954663,4.0548800000105985,4.471014999959152,4.937789999996312,5.371164999960456,5.821754999982659,6.257689999998547,6.8735499999602325,7.235010000003967,7.671014999970794,8.074020000000019,8.50750499998685,8.987629999988712]",space,0.401,0.0,25.0,25.0,37.0,1.0,,,
,,,,,,,,,,,block_2/none_t_119_4.wav,timbre,t,none,119.0,2.16972576,11.23222009,,,yes,Koss portaPro,27,no,,,,,1,2020-09-18_08h50.45.006,kura-A2,2020.1.2,MacIntel,60,,,,,,,,,,,,,,"[""space"",""space"",""space"",""space"",""space"",""space"",""space"",""space"",""space"",""space"",""space"",""space""]","[2.00804500002414,2.4707449999987148,3.004194999986794,3.554225000028964,4.004354999982752,4.500635000003967,5.054394999984652,6.022984999988694,6.720855000021402,7.700790000031702,8.271059999999125,9.35459499998251]",space,0.55073,0.0,26.0,26.0,27.0,1.0,,,
,,,,,,,,,,,block_2/weak_t_92_4.wav,timbre,t,weak,92.0,2.338363624,13.8208126,,,yes,Koss portaPro,27,no,,,,,1,2020-09-18_08h50.45.006,kura-A2,2020.1.2,MacIntel,60,,,,,,,,,,,,,,"[""space"",""space"",""space"",""space"",""space"",""space"",""space"",""space"",""space"",""space"",""space"",""space"",""space"",""space"",""space"",""space"",""space"",""space"",""space""]","[1.2164300000295043,1.8167649999959394,2.383640000014566,2.9835000000311993,3.566705000004731,4.096520000020973,4.7336900000227615,5.30040500004543,5.898860000015702,6.517045000044163,7.080000000016298,7.66708500002278,8.20125000004191,8.76699999999255,9.400840000016615,9.950110000034329,10.533830000029411,11.133665000030305,11.686480000033043]",space,0.50082,0.0,27.0,27.0,29.0,1.0,,,
,,,,,,,,,,,block_2/none_t_105_4.wav,timbre,t,none,105.0,1.723889958,15.53967227,,,yes,Koss portaPro,27,no,,,,,1,2020-09-18_08h50.45.006,kura-A2,2020.1.2,MacIntel,60,,,,,,,,,,,,,,"[""space"",""space"",""space"",""space"",""space"",""space"",""space"",""space"",""space"",""space"",""space"",""space"",""space"",""space"",""space"",""space"",""space"",""space""]","[3.8211449999944307,4.270660000038333,4.834410000010394,5.334860000002664,5.871704999997746,6.373090000008233,6.9212850000476465,7.434845000039786,8.021775000030175,8.605580000032205,9.204330000036862,9.754475000023376,10.317150000017136,10.80746999999974,11.334530000051018,11.904045000032056,12.488025000027847,13.290955000033136]",space,0.400605,0.0,28.0,28.0,20.0,1.0,,,
,,,,,,,,,,,block_2/medium_t_92_3.wav,timbre,t,medium,92.0,1.388240232,13.37372776,,,yes,Koss portaPro,27,no,,,,,1,2020-09-18_08h50.45.006,kura-A2,2020.1.2,MacIntel,60,,,,,,,,,,,,,,"[""space"",""space"",""space"",""space"",""space"",""space"",""space"",""space"",""space"",""space"",""space"",""space"",""space"",""space"",""space"",""space"",""space"",""space"",""space""]","[1.3209250000072643,1.9538099999772385,2.5552150000003166,3.1538650000002235,3.7673499999800697,4.354289999988396,4.954429999983404,5.555149999971036,6.187689999991562,6.789229999994859,7.4043499999679625,7.984904999961145,8.571264999976847,9.33400500001153,9.90552500000922,10.517439999966882,11.037659999972675,11.621229999989737,12.250404999998864]",space,1.584185,0.0,29.0,29.0,35.0,1.0,,,
,,,,,,,,,,,block_2/none_t_81_4.wav,timbre,t,none,81.0,1.883383873,17.9242909,,,yes,Koss portaPro,27,no,,,,,1,2020-09-18_08h50.45.006,kura-A2,2020.1.2,MacIntel,60,,,,,,,,,,,,,,"[""space"",""space"",""space"",""space"",""space"",""space"",""space"",""space"",""space"",""space"",""space"",""space"",""space"",""space"",""space"",""space"",""space"",""space"",""space"",""space"",""space"",""space""]","[2.3959799999720417,3.01662499998929,3.650725000014063,4.333035000017844,5.046429999987595,5.800225000013597,6.500839999993332,7.162750000017695,7.816240000014659,8.516360000008717,9.096354999986943,9.76734999998007,10.399540000013076,11.133540000009816,11.783584999968298,12.399589999986347,12.979409999970812,13.616374999983236,14.268344999989495,14.91639500000747,15.536894999968354,16.283019999973476]",space,0.354015,0.0,30.0,30.0,12.0,1.0,,,
,,,,,,,,,,,block_2/strong_t_105_4.wav,timbre,t,strong,105.0,1.910106179,12.02788396,,,yes,Koss portaPro,27,no,,,,,1,2020-09-18_08h50.45.006,kura-A2,2020.1.2,MacIntel,60,,,,,,,,,,,,,,"[""space"",""space"",""space"",""space"",""space"",""space"",""space"",""space"",""space"",""space"",""space"",""space"",""space"",""space"",""space"",""space"",""space"",""space"",""space""]","[1.2508700000471435,1.7697250000201166,2.284390000044368,2.817070000048261,3.284700000018347,3.80013000004692,4.333705000055488,4.802495000010822,5.283504999999423,5.783470000023954,6.28469000000041,6.750330000009853,7.333635000046343,7.784445000055712,8.300675000005867,8.783950000011828,9.283875000022817,9.783700000029057,10.463395000027958]",space,0.633195,0.0,31.0,31.0,18.0,1.0,,,
,,,,,,,,,,,block_2/strong_t_92_4.wav,timbre,t,strong,92.0,1.817525361,14.05856845,,,yes,Koss portaPro,27,no,,,,,1,2020-09-18_08h50.45.006,kura-A2,2020.1.2,MacIntel,60,,,,,,,,,,,,,,"[""space"",""space"",""space"",""space"",""space"",""space"",""space"",""space"",""space"",""space"",""space"",""space"",""space"",""space"",""space"",""space"",""space"",""space""]","[1.7367350000422448,2.3666100000264123,2.963095000013709,3.599965000001248,4.166575000039302,4.829815000004601,5.400030000018887,6.100235000019893,6.762990000017453,7.333745000010822,8.079360000032466,8.665290000033565,9.300185000000056,9.88773499999661,10.583640000026207,11.1503200000152,11.820915000047535,12.499995000020135]",space,0.46743,0.0,32.0,32.0,9.0,1.0,,,
,,,,,,,,,,,block_2/medium_t_81_4.wav,timbre,t,medium,81.0,2.313262111,15.10881767,,,yes,Koss portaPro,27,no,,,,,1,2020-09-18_08h50.45.006,kura-A2,2020.1.2,MacIntel,60,,,,,,,,,,,,,,"[""space"",""space"",""space"",""space"",""space"",""space"",""space"",""space"",""space"",""space"",""space"",""space"",""space"",""space"",""space"",""space"",""space"",""space"",""space""]","[1.1708800000487827,1.8376400000415742,2.5210000000079162,3.171020000008866,3.7917550000129268,4.390415000030771,5.071295000030659,5.671330000041053,6.374855000001844,7.074454999994487,7.738165000046138,8.42094999999972,9.067345000046771,9.73753000004217,10.389744999993127,11.071850000007544,11.72390500002075,12.385775000031572,13.039615000016056]",space,0.38593,0.0,33.0,33.0,2.0,1.0,,,
,,,,,,,,,,,block_2/none_t_119_3.wav,timbre,t,none,119.0,1.207484261,12.32644118,,,yes,Koss portaPro,27,no,,,,,1,2020-09-18_08h50.45.006,kura-A2,2020.1.2,MacIntel,60,,,,,,,,,,,,,,"[""space"",""space"",""space"",""space"",""space"",""space"",""space"",""space"",""space"",""space"",""space"",""space"",""space"",""space""]","[4.450734999962151,4.916789999988396,5.413174999994226,5.885995000018738,6.433665000018664,7.016654999984894,7.63384500000393,8.134725000010803,8.734010000014678,9.217379999987315,9.750869999988936,10.269919999991544,10.833519999985583,11.317485000006855]",space,0.43387,0.0,34.0,34.0,32.0,1.0,,,
,,,,,,,,,,,block_2/weak_t_81_4.wav,timbre,t,weak,81.0,1.138387897,14.33417021,,,yes,Koss portaPro,27,no,,,,,1,2020-09-18_08h50.45.006,kura-A2,2020.1.2,MacIntel,60,,,,,,,,,,,,,,"[""space"",""space"",""space"",""space"",""space"",""space"",""space"",""space"",""space"",""space"",""space"",""space"",""space"",""space"",""space"",""space"",""space"",""space""]","[1.554405000002589,2.154930000018794,2.7677549999789335,3.454489999974612,4.103449999995064,4.787884999997914,5.438045000017155,6.0899699999717996,6.739029999997001,7.371325000014622,8.020925000018906,8.791414999985136,9.46710000000894,10.121314999996684,10.754684999992605,11.507624999969266,12.224114999989979,12.887845000019297]",space,0.367455,0.0,35.0,35.0,0.0,1.0,,,
,,,,,,,,,,,block_2/medium_t_72_3.wav,timbre,t,medium,72.0,1.064285065,17.84451182,,,yes,Koss portaPro,27,no,,,,,1,2020-09-18_08h50.45.006,kura-A2,2020.1.2,MacIntel,60,,,,,,,,,,,,,,"[""space"",""space"",""space"",""space"",""space"",""space"",""space"",""space"",""space"",""space"",""space"",""space"",""space"",""space"",""space"",""space"",""space"",""space""]","[1.6007150000077672,2.417014999955427,3.2836399999796413,4.150474999973085,5.050690000003669,5.986455000005662,6.8007549999747425,7.629879999964032,8.5335999999661,9.35042999999132,10.203609999967739,11.133555000007618,11.988030000007711,12.81800500000827,13.696324999968056,14.533484999963548,15.463034999964293,16.301110000000335]",space,0.55082,0.0,36.0,36.0,31.0,1.0,,,
,,,,,,,,,,,block_2/none_t_105_3.wav,timbre,t,none,105.0,1.906849656,15.72757528,,,yes,Koss portaPro,27,no,,,,,1,2020-09-18_08h50.45.006,kura-A2,2020.1.2,MacIntel,60,,,,,,,,,,,,,,"[""space"",""space"",""space"",""space"",""space"",""space"",""space"",""space"",""space"",""space"",""space"",""space"",""space"",""space"",""space"",""space"",""space""]","[4.833760000008624,5.350390000035986,5.93381000001682,6.496675000002142,7.083590000052936,7.750730000028852,8.331350000051316,8.983895000012126,9.517185000004247,10.1338350000442,10.65067000000272,11.283745000022464,11.833535000041593,12.331440000038128,12.967130000004545,13.15056000003824,13.629480000003241]",space,0.433635,0.0,37.0,37.0,14.0,1.0,,,
,,,,,,,,,,,block_2/none_t_72_3.wav,timbre,t,none,72.0,1.763210745,21.95785927,,,yes,Koss portaPro,27,no,,,,,1,2020-09-18_08h50.45.006,kura-A2,2020.1.2,MacIntel,60,,,,,,,,,,,,,,"[""space"",""space"",""space"",""space"",""space"",""space"",""space"",""space"",""space"",""space"",""space"",""space"",""space"",""space"",""space"",""space"",""space"",""space"",""space"",""space"",""space"",""space"",""space"",""space"",""space"",""space"",""space""]","[6.331350000051316,6.8837100000237115,7.3166199999977835,8.050275000045076,8.418365000048652,8.85052000003634,9.37046000000555,9.866940000036266,10.367035000002943,10.91808500001207,11.417300000030082,11.983865000016522,13.200420000008307,13.636250000039581,14.183490000024904,14.683760000043549,15.220335000019986,15.700465000001714,16.169985000044107,16.69644500000868,17.183895000023767,17.700340000039432,18.200379999994766,18.767450000043027,19.320260000007693,19.833950000000186,20.316909999994095]",space,0.286455,0.0,38.0,38.0,19.0,1.0,,,
,,,,,,,,,,,block_2/medium_t_119_4.wav,timbre,t,medium,119.0,2.1713947,11.99221103,,,yes,Koss portaPro,27,no,,,,,1,2020-09-18_08h50.45.006,kura-A2,2020.1.2,MacIntel,60,,,,,,,,,,,,,,"[""space"",""space"",""space"",""space"",""space"",""space"",""space"",""space"",""space"",""space"",""space"",""space"",""space"",""space"",""space"",""space""]","[2.3368550000013784,2.8005899999989197,3.283685000031255,3.800359999993816,4.25226500001736,4.750930000038352,5.250404999998864,5.768039999995381,6.317085000046063,6.400505000026897,7.334855000022799,7.896650000009686,8.417690000031143,9.000805000017863,9.534365000028629,10.017475000000559]",space,0.349945,0.0,39.0,39.0,30.0,1.0,,,
,,,,,,,,,,,,,,,,,,,,yes,Koss portaPro,27,no,,,,,1,2020-09-18_08h50.45.006,kura-A2,2020.1.2,MacIntel,60,,,,,,,,,,,,,,,,,,,,,,,space,35.87813,
