key_resp.keys,key_resp.rt,practice_taps.keys,practice_taps.rt,keyresp.keys,keyresp.rt,practice_stims_loop.thisRepN,practice_stims_loop.thisTrialN,practice_stims_loop.thisN,practice_stims_loop.thisIndex,practice_stims_loop.ran,sndfile,type,tempo,cond,version,delay,dur,Participant Initials,"If you are a MTurk worker, what is your MTurk worker ID?'",Are you wearing headphones?,What are the headphone make and model?,"How many years of musical training, if any, do you have?",Do you have any hearing problems? Please describe,What is your sex (f/m/decline)?,What is your age?,What is your handedness (R/L/ambi)?,Are you currently in a secure and quiet room without a possible interruption?,session,date,expName,psychopyVersion,OS,frameRate,instructions_prompt.keys,instructions_prompt.rt,block1_taps.keys,block1_taps.rt,key_resp_2.keys,key_resp_2.rt,trials.thisRepN,trials.thisTrialN,trials.thisN,trials.thisIndex,trials.ran,key_resp2.keys,key_resp2.rt,block2_taps.keys,block2_taps.rt,key_resp_3.keys,key_resp_3.rt,trials_2.thisRepN,trials_2.thisTrialN,trials_2.thisN,trials_2.thisIndex,trials_2.ran,key_resp_4.keys,key_resp_4.rt,"If you are not an MTurk worker, please provide your email address"
space,9.59357,"[""space"",""space"",""space"",""space"",""space"",""space"",""space"",""space"",""space"",""space"",""space"",""space"",""space"",""space"",""space"",""space"",""space"",""space""]","[2.069565000001603,2.6406350000033854,3.2320350000009057,3.8525900000022375,4.4150100000006205,4.984725000002072,5.5485850000004575,6.106505000003381,6.690130000002682,7.286175000001094,7.865570000001753,8.420545000000857,9.000150000003487,9.565805000002001,10.189115000001038,10.75199000000066,11.340320000002976,11.900465000002441]",space,1.57669,0.0,0.0,0.0,0.0,1.0,block_1/medium_n_105_3.wav,no,n,medium,105.0,1.683245346,13.36533151,,,Yes,Apple Earbuds,1,None,m,26,L,Yes,1,2020-09-16_13h15.20.738,kura-A2,2020.1.2,MacIntel,60,,,,,,,,,,,,,,,,,,,,,,,,,
,,"[""space"",""space"",""space"",""space"",""space"",""space"",""space"",""space"",""space"",""space"",""space"",""space"",""space"",""space"",""space"",""space"",""space"",""space"",""space""]","[0.5633549999984098,1.4270349999969767,2.2640149999970163,3.052754999996978,3.9788899999985006,4.873359999997774,5.713784999999916,6.537084999999934,7.373234999999113,8.15084499999648,8.958409999999276,9.820434999997815,10.688429999998334,11.53456499999811,12.310324999998556,13.193544999998267,13.969214999997348,14.786519999997836,15.636389999999665]",space,0.678635,0.0,1.0,1.0,2.0,1.0,block_1/weak_n_72_4.wav,no,n,weak,72.0,1.922330121,17.89675189,,,Yes,Apple Earbuds,1,None,m,26,L,Yes,1,2020-09-16_13h15.20.738,kura-A2,2020.1.2,MacIntel,60,,,,,,,,,,,,,,,,,,,,,,,,,
,,"[""space"",""space"",""space"",""space"",""space"",""space"",""space"",""space"",""space"",""space"",""space""]","[2.0846700000001874,2.7171199999975215,3.450809999998455,4.171504999998433,4.861604999998235,5.57350999999835,6.285109999997076,7.04207999999926,7.708564999997179,9.119114999997691,9.81860499999675]",space,0.64206,0.0,2.0,2.0,1.0,1.0,block_2/medium_t_119_4.wav,timbre,t,medium,119.0,2.073396767,11.89421309,,,Yes,Apple Earbuds,1,None,m,26,L,Yes,1,2020-09-16_13h15.20.738,kura-A2,2020.1.2,MacIntel,60,,,,,,,,,,,,,,,,,,,,,,,,,
,,"[""space"",""space"",""space"",""space"",""space"",""space"",""space"",""space"",""space"",""space"",""space"",""space"",""space"",""space"",""space"",""space"",""space"",""space"",""space""]","[1.0417799999995623,1.487955000000511,2.002909999999247,2.51048499999888,2.9915450000007695,3.4901199999985693,4.002024999997957,4.515974999998434,5.0004899999985355,5.502799999998388,6.016994999998133,6.5408299999980954,7.036564999998518,7.534684999998717,8.041069999999308,8.55917000000045,9.021495000000868,9.550859999999375,10.051465000000462]",space,0.668715,0.0,3.0,3.0,3.0,1.0,block_2/strong_t_119_4.wav,timbre,t,strong,119.0,2.380207574,12.24809873,,,Yes,Apple Earbuds,1,None,m,26,L,Yes,1,2020-09-16_13h15.20.738,kura-A2,2020.1.2,MacIntel,60,,,,,,,,,,,,,,,,,,,,,,,,,
,,,,,,,,,,,block_1/medium_n_81_4.wav,no,n,medium,81.0,1.742854158,16.25138024,,,Yes,Apple Earbuds,1,None,m,26,L,Yes,1,2020-09-16_13h15.20.738,kura-A2,2020.1.2,MacIntel,60,space,4.487985,"[""space"",""space"",""space"",""space"",""space"",""space"",""space"",""space"",""space"",""space"",""space"",""space"",""space"",""space"",""space"",""space"",""space"",""space"",""space""]","[0.8021399999997811,1.585849999999482,2.3166149999997288,3.0771199999981036,3.851989999999205,4.589259999997012,5.285029999999097,5.999899999998888,6.671879999998055,7.389874999997119,8.12304999999833,8.900389999998879,9.606149999999616,10.336664999998902,11.125294999998005,11.877414999999019,12.652964999997494,13.384394999997312,14.066514999998617]",space,0.54865,0.0,0.0,0.0,38.0,1.0,,,,,,,,,,,,,,
,,,,,,,,,,,block_1/medium_n_105_4.wav,no,n,medium,105.0,1.402482856,15.80924023,,,Yes,Apple Earbuds,1,None,m,26,L,Yes,1,2020-09-16_13h15.20.738,kura-A2,2020.1.2,MacIntel,60,,,"[""space"",""space""]","[3.8591299999970943,8.739794999997684]",space,0.966505,0.0,1.0,1.0,12.0,1.0,,,,,,,,,,,,,,
,,,,,,,,,,,block_1/strong_n_72_4.wav,no,n,strong,72.0,1.599228342,16.96784512,,,Yes,Apple Earbuds,1,None,m,26,L,Yes,1,2020-09-16_13h15.20.738,kura-A2,2020.1.2,MacIntel,60,,,"[""space"",""space"",""space"",""space"",""space"",""space"",""space"",""space"",""space"",""space"",""space"",""space"",""space"",""space"",""space"",""space"",""space"",""space"",""space"",""space""]","[0.8504800000009709,1.4568550000003597,2.3178850000003877,3.0502850000011676,3.8258500000010827,4.615875000003143,5.406190000001516,6.193865000001097,6.98408500000005,7.775875000002998,8.56163000000015,9.342319999999745,10.183945000000676,10.959415000001172,11.744165000000066,12.517485000000306,13.338105000002543,14.07340000000113,14.870795000002545,15.718195000001288]",space,0.59274,0.0,2.0,2.0,35.0,1.0,,,,,,,,,,,,,,
,,,,,,,,,,,block_1/medium_n_81_3.wav,no,n,medium,81.0,1.199970007,16.72060493,,,Yes,Apple Earbuds,1,None,m,26,L,Yes,1,2020-09-16_13h15.20.738,kura-A2,2020.1.2,MacIntel,60,,,"[""space"",""space"",""space"",""space"",""space"",""space"",""space"",""space"",""space"",""space"",""space"",""space"",""space"",""space"",""space"",""space"",""space"",""space"",""space"",""space""]","[0.2871449999984179,1.0025749999986147,1.6035400000000664,2.190855000000738,2.951564999999391,3.8377399999990303,4.558720000000903,5.375804999999673,6.145019999999931,7.003160000000207,7.850094999997964,8.566944999998668,9.39277999999831,10.241415000000416,11.060344999998051,11.85713499999838,12.6838800000005,13.42641999999978,14.292975000000297,15.108130000000529]",space,0.434515,0.0,3.0,3.0,33.0,1.0,,,,,,,,,,,,,,
,,,,,,,,,,,block_1/strong_n_72_3.wav,no,n,strong,72.0,2.03136762,17.09667374,,,Yes,Apple Earbuds,1,None,m,26,L,Yes,1,2020-09-16_13h15.20.738,kura-A2,2020.1.2,MacIntel,60,,,"[""space"",""space"",""space"",""space"",""space"",""space"",""space"",""space"",""space"",""space"",""space"",""space"",""space"",""space"",""space"",""space"",""space"",""space"",""space"",""space"",""space""]","[0.31036500000118394,0.952965000000404,1.5353800000011688,2.2521600000000035,3.0423200000004726,3.795154999999795,4.536579999999958,5.342089999998279,6.120835000001534,6.880249999998341,7.669965000000957,8.510709999998653,9.242089999999735,10.018905000000814,10.759519999999611,11.527460000001156,12.353315000000293,13.068879999998899,13.791850000001432,14.59175999999934,15.369344999999157]",space,0.520075,0.0,4.0,4.0,32.0,1.0,,,,,,,,,,,,,,
,,,,,,,,,,,block_1/weak_n_72_3.wav,no,n,weak,72.0,1.008682366,16.87657352,,,Yes,Apple Earbuds,1,None,m,26,L,Yes,1,2020-09-16_13h15.20.738,kura-A2,2020.1.2,MacIntel,60,,,"[""space"",""space"",""space"",""space"",""space"",""space"",""space"",""space"",""space"",""space"",""space"",""space"",""space"",""space"",""space"",""space"",""space"",""space"",""space"",""space"",""space""]","[0.3740600000019185,1.358009999999922,2.0510749999994005,2.7832149999994726,3.505830000001879,4.2730350000019826,5.007584999999381,5.82636999999886,6.606905000000552,7.366555000000517,8.167550000001938,8.950434999998834,9.683264999999665,10.450964999999997,11.168480000000272,12.005144999999175,12.784719999999652,13.644230000001698,14.484800000001997,15.253789999998844,16.050985000001674]",space,0.89048,0.0,5.0,5.0,8.0,1.0,,,,,,,,,,,,,,
,,,,,,,,,,,block_1/none_n_105_4.wav,no,n,none,105.0,1.493653366,16.97025201,,,Yes,Apple Earbuds,1,None,m,26,L,Yes,1,2020-09-16_13h15.20.738,kura-A2,2020.1.2,MacIntel,60,,,"[""space"",""space"",""space"",""space"",""space"",""space"",""space"",""space"",""space"",""space"",""space"",""space"",""space"",""space"",""space"",""space"",""space"",""space"",""space""]","[0.30139000000053784,1.137124999997468,2.394399999997404,3.034219999997731,3.8518999999978405,4.838055000000168,5.552864999997837,6.4042499999995925,7.253624999997555,8.103144999997312,9.03407999999763,9.834794999998849,10.636940000000322,11.484764999997424,12.30173499999728,13.137754999999743,13.910694999998668,14.754574999999022,15.619009999998525]",space,0.493365,0.0,6.0,6.0,14.0,1.0,,,,,,,,,,,,,,
,,,,,,,,,,,block_1/strong_n_92_3.wav,no,n,strong,92.0,1.754608557,14.24499404,,,Yes,Apple Earbuds,1,None,m,26,L,Yes,1,2020-09-16_13h15.20.738,kura-A2,2020.1.2,MacIntel,60,,,"[""space"",""space"",""space"",""space"",""space"",""space"",""space"",""space"",""space"",""space"",""space""]","[0.3845849999997881,0.9332299999986731,1.484375,2.051840000000084,2.654965000001539,3.316500000000815,3.886819999999716,4.567119999999704,5.191380000000265,5.834334999999555,6.46933999999959]",space,0.814875,0.0,7.0,7.0,39.0,1.0,,,,,,,,,,,,,,
,,,,,,,,,,,block_1/weak_n_72_4.wav,no,n,weak,72.0,1.441009476,17.41543124,,,Yes,Apple Earbuds,1,None,m,26,L,Yes,1,2020-09-16_13h15.20.738,kura-A2,2020.1.2,MacIntel,60,,,"[""space"",""space"",""space"",""space"",""space"",""space"",""space"",""space"",""space"",""space"",""space"",""space"",""space"",""space"",""space"",""space"",""space"",""space"",""space"",""space""]","[0.21759999999989077,0.8041499999998791,1.643595000001369,2.370155000000466,3.1199100000011413,3.985964999999851,4.833675000001676,5.629584999998713,6.416665000000592,7.252260000001002,8.10018000000116,8.911260000000652,9.71671000000049,10.602385000001902,11.378475000001288,12.231500000001574,13.018240000001185,13.850555000000838,14.701870000000724,15.590889999999376]",space,0.62499,0.0,8.0,8.0,4.0,1.0,,,,,,,,,,,,,,
,,,,,,,,,,,block_1/medium_n_119_4.wav,no,n,medium,119.0,1.261396351,9.568471181,,,Yes,Apple Earbuds,1,None,m,26,L,Yes,1,2020-09-16_13h15.20.738,kura-A2,2020.1.2,MacIntel,60,,,"[""space"",""space"",""space"",""space"",""space"",""space"",""space"",""space"",""space"",""space"",""space"",""space"",""space"",""space"",""space""]","[0.32493999999860534,1.0469349999984843,1.828574999999546,2.590439999999944,3.2525649999988104,3.891919999998265,4.460804999998857,4.935939999999448,5.403764999999169,5.907069999997418,6.342179999999644,6.786925000000338,7.219914999997911,7.711574999997595,8.146339999999327]",space,0.468255,0.0,9.0,9.0,17.0,1.0,,,,,,,,,,,,,,
,,,,,,,,,,,block_1/none_n_72_4.wav,no,n,none,72.0,1.118979514,23.86124709,,,Yes,Apple Earbuds,1,None,m,26,L,Yes,1,2020-09-16_13h15.20.738,kura-A2,2020.1.2,MacIntel,60,,,"[""space"",""space"",""space"",""space"",""space"",""space"",""space"",""space"",""space"",""space"",""space"",""space"",""space"",""space"",""space"",""space"",""space"",""space"",""space"",""space"",""space"",""space"",""space"",""space"",""space"",""space"",""space"",""space"",""space"",""space"",""space""]","[0.29180999999874757,1.0803949999972247,2.5052599999979748,3.286264999998764,4.086554999997986,4.719989999997779,5.45618999999715,6.187904999998864,6.838980000000447,7.479964999998515,8.221139999997774,8.944504999999367,9.6773799999973,10.469934999997292,11.258239999999148,11.877264999999113,12.66965499999776,13.291644999997402,14.043964999997002,14.754945000000475,15.469399999998075,16.155510000000447,16.811764999998445,17.497634999999605,18.170575000000042,18.94626499999856,19.587544999998443,20.286759999998992,21.01984499999884,21.770959999997956,22.387859999998852]",space,3.46701,0.0,10.0,10.0,21.0,1.0,,,,,,,,,,,,,,
,,,,,,,,,,,block_1/weak_n_119_3.wav,no,n,weak,119.0,2.459758036,10.81612992,,,Yes,Apple Earbuds,1,None,m,26,L,Yes,1,2020-09-16_13h15.20.738,kura-A2,2020.1.2,MacIntel,60,,,"[""space"",""space"",""space"",""space"",""space"",""space"",""space"",""space"",""space"",""space"",""space"",""space"",""space"",""space"",""space"",""space"",""space"",""space"",""space""]","[0.2884400000003211,0.973969999999099,1.5366549999999393,2.0007149999983653,2.452774999997928,2.8549149999999486,3.2741949999981443,3.7078049999981886,4.139214999999297,4.5356599999976766,4.95850000000064,5.371224999998901,5.822144999998272,6.24252999999959,6.673259999999516,7.094180000000051,7.540310000000261,8.009014999999692,8.436190000000352]",space,0.60585,0.0,11.0,11.0,37.0,1.0,,,,,,,,,,,,,,
,,,,,,,,,,,block_1/medium_n_119_3.wav,no,n,medium,119.0,1.238363393,11.09976929,,,Yes,Apple Earbuds,1,None,m,26,L,Yes,1,2020-09-16_13h15.20.738,kura-A2,2020.1.2,MacIntel,60,,,"[""space"",""space"",""space"",""space"",""space"",""space"",""space"",""space"",""space"",""space"",""space"",""space"",""space"",""space"",""space"",""space"",""space"",""space""]","[0.25744499999933623,0.9540649999980815,1.8495650000004957,2.3766949999990175,3.1170600000004356,3.8528450000012526,4.431604999997944,4.968144999998913,5.608850000000473,6.217075000000477,6.783319999998582,7.252830000001325,7.734844999999041,8.14983500000011,8.641840000000286,9.108765000000915,9.621025000000373,10.111324999998033]",space,0.591725,0.0,12.0,12.0,22.0,1.0,,,,,,,,,,,,,,
,,,,,,,,,,,block_1/weak_n_81_4.wav,no,n,weak,81.0,2.484743178,17.5438815,,,Yes,Apple Earbuds,1,None,m,26,L,Yes,1,2020-09-16_13h15.20.738,kura-A2,2020.1.2,MacIntel,60,,,"[""space"",""space"",""space"",""space"",""space"",""space"",""space"",""space"",""space"",""space"",""space"",""space"",""space"",""space"",""space"",""space"",""space"",""space"",""space"",""space"",""space""]","[0.18863499999861233,1.1852150000012784,1.9743799999996554,2.719894999998303,3.544210000000021,4.256489999999758,5.056844999999157,5.752544999999429,6.245139999999083,6.86335500000132,7.5249949999997625,8.32282000000123,9.203699999998207,9.98642000000109,10.705890000001148,11.486834999999644,12.17559999999861,12.919815000001108,13.719720000000962,14.52068499999956,15.287110000001064]",space,1.638225,0.0,13.0,13.0,36.0,1.0,,,,,,,,,,,,,,
,,,,,,,,,,,block_1/medium_n_72_3.wav,no,n,medium,72.0,2.102023577,18.17590113,,,Yes,Apple Earbuds,1,None,m,26,L,Yes,1,2020-09-16_13h15.20.738,kura-A2,2020.1.2,MacIntel,60,,,"[""space"",""space"",""space"",""space"",""space"",""space"",""space"",""space"",""space"",""space"",""space"",""space"",""space"",""space"",""space"",""space"",""space"",""space"",""space"",""space""]","[0.31975500000049806,0.9832650000025751,1.7171200000011595,2.4029550000013273,3.1896899999992456,3.9935850000002233,4.883770000000368,5.70436500000136,6.473294999999837,7.317040000001725,8.156429999999148,9.050914999999804,9.841745000001481,10.658780000001514,11.520400000001246,12.268875000001572,13.124794999999665,13.949615000001415,14.723185000002559,15.65497500000123]",space,0.519985,0.0,14.0,14.0,13.0,1.0,,,,,,,,,,,,,,
,,,,,,,,,,,block_1/none_n_105_3.wav,no,n,none,105.0,2.216733946,14.87818519,,,Yes,Apple Earbuds,1,None,m,26,L,Yes,1,2020-09-16_13h15.20.738,kura-A2,2020.1.2,MacIntel,60,,,"[""space"",""space"",""space""]","[0.2577300000011178,0.8440200000003983,12.607384999999283]",space,2.20263,0.0,15.0,15.0,6.0,1.0,,,,,,,,,,,,,,
,,,,,,,,,,,block_1/none_n_92_3.wav,no,n,none,92.0,2.336707073,18.23675242,,,Yes,Apple Earbuds,1,None,m,26,L,Yes,1,2020-09-16_13h15.20.738,kura-A2,2020.1.2,MacIntel,60,,,"[""space"",""space"",""space"",""space"",""space"",""space"",""space"",""space"",""space"",""space"",""space"",""space"",""space"",""space"",""space"",""space"",""space"",""space"",""space"",""space"",""space"",""space"",""space"",""space"",""space"",""space"",""space"",""space"",""space""]","[0.2893899999980931,1.017359999998007,1.7867949999999837,2.437159999997732,2.937289999998086,3.452854999999488,3.9676000000000045,4.507059999999967,5.0015049999964845,5.511599999997998,6.085934999999097,6.630149999997229,7.174479999997914,7.685409999998228,8.201784999997471,8.71813999999722,9.254229999998643,9.790509999998903,10.369264999997597,10.921439999998256,11.468934999997145,11.98564999999877,12.55341999999655,13.036389999997425,13.536189999998896,14.101754999999628,14.718965000000026,15.286029999999357,15.83721499999956]",space,0.387185,0.0,16.0,16.0,25.0,1.0,,,,,,,,,,,,,,
,,,,,,,,,,,block_1/medium_n_92_3.wav,no,n,medium,92.0,1.602440637,13.28810957,,,Yes,Apple Earbuds,1,None,m,26,L,Yes,1,2020-09-16_13h15.20.738,kura-A2,2020.1.2,MacIntel,60,,,"[""space"",""space"",""space"",""space"",""space"",""space"",""space"",""space"",""space"",""space"",""space"",""space"",""space"",""space"",""space"",""space"",""space"",""space"",""space"",""space"",""space""]","[0.27516499999910593,0.7166450000005398,1.1955799999996088,1.6757700000016484,2.2247800000005213,2.7886199999994687,3.443185000000142,4.051579999999376,4.651010000001406,5.207750000001397,5.807095000000174,6.408429999999555,7.024560000001713,7.643270000000484,8.234730000000184,8.842674999999986,9.467990000001066,10.05924500000043,10.685874999999271,11.250380000001371,11.867935000002035]",space,0.351575,0.0,17.0,17.0,2.0,1.0,,,,,,,,,,,,,,
,,,,,,,,,,,block_1/weak_n_92_3.wav,no,n,weak,92.0,1.887522896,14.6307882,,,Yes,Apple Earbuds,1,None,m,26,L,Yes,1,2020-09-16_13h15.20.738,kura-A2,2020.1.2,MacIntel,60,,,"[""space"",""space"",""space"",""space"",""space"",""space"",""space"",""space"",""space"",""space"",""space"",""space"",""space"",""space"",""space"",""space"",""space"",""space"",""space"",""space""]","[0.23558000000059565,0.8391400000000999,1.4873800000023607,1.9721100000024308,2.669030000000987,3.312580000001674,3.941305000000284,4.52868500000119,5.135890000001439,5.75509000000244,6.388390000000186,7.028519999999958,7.686490000000163,8.421005000000207,9.088705000001937,9.735850000000994,10.441539999999804,11.085869999999034,11.711745000000633,12.386655000002179]",space,0.717635,0.0,18.0,18.0,5.0,1.0,,,,,,,,,,,,,,
,,,,,,,,,,,block_1/strong_n_92_4.wav,no,n,strong,92.0,2.276261723,15.98016195,,,Yes,Apple Earbuds,1,None,m,26,L,Yes,1,2020-09-16_13h15.20.738,kura-A2,2020.1.2,MacIntel,60,,,"[""space"",""space"",""space"",""space"",""space"",""space"",""space"",""space"",""space"",""space"",""space"",""space"",""space"",""space"",""space"",""space"",""space"",""space"",""space"",""space"",""space""]","[0.2343000000001325,0.7856749999992871,1.277104999997448,2.0428799999972966,2.718764999997802,3.439489999997136,4.153049999997222,4.8354849999996645,5.5257799999999975,6.203444999999306,6.886484999999141,7.573474999997416,8.353114999998184,9.058984999999723,9.757514999997625,10.452694999999949,11.139294999997276,11.844184999998163,12.55494999999803,13.23734999999948,13.97091000000006]",space,0.419355,0.0,19.0,19.0,34.0,1.0,,,,,,,,,,,,,,
,,,,,,,,,,,block_1/medium_n_72_4.wav,no,n,medium,72.0,1.204769933,15.71334136,,,Yes,Apple Earbuds,1,None,m,26,L,Yes,1,2020-09-16_13h15.20.738,kura-A2,2020.1.2,MacIntel,60,,,"[""space"",""space"",""space"",""space"",""space"",""space"",""space"",""space"",""space"",""space"",""space"",""space"",""space"",""space"",""space"",""space"",""space"",""space"",""space"",""space""]","[0.30244500000105745,0.8671350000003031,1.6279199999989942,2.322510000001728,3.0044049999996787,3.735355000000652,4.4781900000015185,5.250565000001984,5.971884999998906,6.754935000000785,7.561485000001937,8.235049999999262,8.952980000001844,9.6727200000023,10.409374999999216,11.101135000000738,11.868095000001574,12.588130000000035,13.335044999999752,14.084790000000737]",space,0.5517,0.0,20.0,20.0,7.0,1.0,,,,,,,,,,,,,,
,,,,,,,,,,,block_1/none_n_81_3.wav,no,n,none,81.0,1.098648096,17.74277508,,,Yes,Apple Earbuds,1,None,m,26,L,Yes,1,2020-09-16_13h15.20.738,kura-A2,2020.1.2,MacIntel,60,,,"[""space"",""space"",""space"",""space"",""space"",""space"",""space"",""space"",""space"",""space"",""space"",""space"",""space"",""space"",""space"",""space"",""space"",""space"",""space"",""space"",""space"",""space"",""space"",""space"",""space""]","[0.3053650000001653,1.0587649999979476,2.353899999998248,3.0832549999977346,3.7494499999993423,4.54032499999812,5.140709999999672,5.867079999999987,6.752704999998969,7.267359999998007,7.989004999999452,8.42464499999926,9.136504999998579,9.708044999999288,10.30227499999819,10.874854999998206,11.533884999997099,12.166889999996783,12.78347500000018,13.471804999997403,14.094184999998106,14.704399999998714,15.301159999999072,15.976504999998724,16.70113499999934]",space,0.483805,0.0,21.0,21.0,29.0,1.0,,,,,,,,,,,,,,
,,,,,,,,,,,block_1/strong_n_119_3.wav,no,n,strong,119.0,1.213627968,10.9792062,,,Yes,Apple Earbuds,1,None,m,26,L,Yes,1,2020-09-16_13h15.20.738,kura-A2,2020.1.2,MacIntel,60,,,"[""space"",""space"",""space"",""space"",""space"",""space"",""space"",""space"",""space"",""space"",""space"",""space"",""space"",""space"",""space"",""space"",""space"",""space"",""space"",""space"",""space""]","[0.38408999999967364,0.9013500000000931,1.3211750000009488,1.7347799999988638,2.1841650000023947,2.660954999999376,3.1407800000015413,3.6348550000002433,4.120295000000624,4.6007600000011735,5.090700000000652,5.534045000000447,6.033960000000661,6.509089999999674,6.982670000001235,7.453460000000632,7.933854999999312,8.43429499999911,8.902549999998882,9.387370000000374,9.869409999999334]",space,2.208385,0.0,22.0,22.0,16.0,1.0,,,,,,,,,,,,,,
,,,,,,,,,,,block_1/none_n_119_3.wav,no,n,none,119.0,1.932281918,14.89500301,,,Yes,Apple Earbuds,1,None,m,26,L,Yes,1,2020-09-16_13h15.20.738,kura-A2,2020.1.2,MacIntel,60,,,"[""space"",""space"",""space"",""space"",""space"",""space"",""space"",""space"",""space"",""space"",""space"",""space"",""space"",""space"",""space"",""space"",""space"",""space"",""space"",""space"",""space"",""space"",""space"",""space"",""space"",""space"",""space"",""space""]","[0.2742549999966286,0.994539999999688,1.7539849999993748,2.0841049999980896,2.901214999997933,3.4844999999985475,3.7889199999989387,4.31760999999824,4.744539999999688,5.3173049999969635,5.817234999998618,6.507549999998446,6.838369999997667,7.177659999997559,7.551479999998264,7.856999999999971,8.335274999997523,8.725314999999682,9.251109999997425,9.701464999998166,10.107909999998697,10.51837499999965,10.941874999996685,11.358229999998002,11.852524999998423,12.2210699999996,12.510899999997491,12.877494999996998]",space,0.57233,0.0,23.0,23.0,24.0,1.0,,,,,,,,,,,,,,
,,,,,,,,,,,block_1/strong_n_81_4.wav,no,n,strong,81.0,1.727706814,17.69954355,,,Yes,Apple Earbuds,1,None,m,26,L,Yes,1,2020-09-16_13h15.20.738,kura-A2,2020.1.2,MacIntel,60,,,"[""space"",""space"",""space"",""space"",""space"",""space"",""space"",""space"",""space"",""space"",""space"",""space"",""space"",""space"",""space"",""space"",""space"",""space"",""space"",""space"",""space""]","[0.3355250000022352,0.8198100000008708,1.7853950000026089,2.6040649999995367,3.390139999999633,4.1454300000006015,4.926170000002344,5.769104999999399,6.587005000001227,7.386710000002381,8.1871850000025,8.986635000001115,9.853940000000875,10.644039999999222,11.475070000000414,12.237585000002582,13.041994999999588,13.805795000000217,14.62619000000268,15.469550000001618,16.287100000001374]",space,0.60259,0.0,24.0,24.0,1.0,1.0,,,,,,,,,,,,,,
,,,,,,,,,,,block_1/strong_n_105_4.wav,no,n,strong,105.0,1.30585928,13.14087062,,,Yes,Apple Earbuds,1,None,m,26,L,Yes,1,2020-09-16_13h15.20.738,kura-A2,2020.1.2,MacIntel,60,,,"[""space"",""space"",""space"",""space"",""space"",""space"",""space"",""space"",""space"",""space"",""space"",""space"",""space"",""space"",""space"",""space"",""space"",""space"",""space"",""space"",""space""]","[0.28981500000008964,0.9159350000008999,1.383495000001858,1.9245000000009895,2.5094000000026426,3.1035450000016453,3.6874800000005052,4.276880000001142,4.86672499999986,5.434450000000652,6.0268100000030245,6.603210000001127,7.208420000002661,7.783510000001115,8.374045000000592,8.949995000002673,9.567500000001132,10.13445000000138,10.691300000002343,11.258095000001049,11.834810000000289]",space,1.02693,0.0,25.0,25.0,3.0,1.0,,,,,,,,,,,,,,
,,,,,,,,,,,block_1/weak_n_92_4.wav,no,n,weak,92.0,2.208253857,14.29442166,,,Yes,Apple Earbuds,1,None,m,26,L,Yes,1,2020-09-16_13h15.20.738,kura-A2,2020.1.2,MacIntel,60,,,"[""space"",""space"",""space"",""space"",""space"",""space"",""space"",""space"",""space"",""space"",""space"",""space"",""space"",""space"",""space"",""space"",""space""]","[0.23730000000068685,0.7198150000004944,1.3912349999992557,1.9526949999999488,2.6037099999994098,3.201020000000426,3.7728600000009465,4.373859999999695,4.927504999999655,5.586380000000645,6.178704999998445,6.744940000000383,7.29556999999852,7.975125000000844,8.621689999999944,9.219414999999572,9.853175000000192]",space,0.750315,0.0,26.0,26.0,15.0,1.0,,,,,,,,,,,,,,
,,,,,,,,,,,block_1/strong_n_119_4.wav,no,n,strong,119.0,1.980480326,12.048825,,,Yes,Apple Earbuds,1,None,m,26,L,Yes,1,2020-09-16_13h15.20.738,kura-A2,2020.1.2,MacIntel,60,,,"[""space"",""space"",""space"",""space"",""space"",""space"",""space"",""space"",""space"",""space"",""space"",""space"",""space"",""space"",""space"",""space"",""space"",""space"",""space"",""space"",""space""]","[0.3367949999991424,0.8102500000022701,1.219680000001972,1.6071200000005774,2.11935000000085,2.5925700000007055,3.1090949999997974,3.619265000001178,4.127560000000813,4.611030000000028,5.102740000002086,5.588620000002265,6.0916700000016135,6.579175000002579,7.103930000001014,7.619225000002189,8.193770000001564,8.67845999999929,9.16930499999944,9.662684999999328,10.178615000000605]",space,0.683205,0.0,27.0,27.0,23.0,1.0,,,,,,,,,,,,,,
,,,,,,,,,,,block_1/strong_n_81_3.wav,no,n,strong,81.0,1.6043637,15.60930701,,,Yes,Apple Earbuds,1,None,m,26,L,Yes,1,2020-09-16_13h15.20.738,kura-A2,2020.1.2,MacIntel,60,,,"[""space"",""space"",""space"",""space"",""space"",""space"",""space"",""space"",""space"",""space"",""space"",""space"",""space"",""space"",""space"",""space"",""space"",""space"",""space"",""space""]","[0.2769499999994878,0.6679249999980357,1.494920000001116,2.1696349999983795,2.868340000001126,3.5014950000005456,4.1521250000006376,4.852370000000633,5.712364999999636,6.403224999998315,7.091874999998481,7.794304999999554,8.586319999998636,9.28682499999934,10.002410000001191,10.68657499999972,11.446164999997677,12.137954999998556,12.846549999998501,13.518994999998654]",space,0.656195,0.0,28.0,28.0,10.0,1.0,,,,,,,,,,,,,,
,,,,,,,,,,,block_1/weak_n_105_4.wav,no,n,weak,105.0,1.436012468,12.20911904,,,Yes,Apple Earbuds,1,None,m,26,L,Yes,1,2020-09-16_13h15.20.738,kura-A2,2020.1.2,MacIntel,60,,,"[""space"",""space"",""space"",""space"",""space"",""space"",""space"",""space"",""space"",""space"",""space"",""space"",""space"",""space"",""space"",""space"",""space"",""space"",""space"",""space"",""space"",""space""]","[0.20588999999745283,0.6343449999985751,1.136514999998326,1.6749649999983376,2.2249549999978626,2.749359999997978,3.216094999999882,3.666079999998942,4.175820000000385,4.717270000001008,5.23298000000068,5.73716499999864,6.210530000000404,6.722654999997758,7.2200749999974505,7.750164999997651,8.28341999999975,8.776190000000497,9.317109999999957,9.816324999999779,10.306259999997565,10.836124999997992]",space,0.306175,0.0,29.0,29.0,28.0,1.0,,,,,,,,,,,,,,
,,,,,,,,,,,block_1/none_n_72_3.wav,no,n,none,72.0,1.892162994,23.61892036,,,Yes,Apple Earbuds,1,None,m,26,L,Yes,1,2020-09-16_13h15.20.738,kura-A2,2020.1.2,MacIntel,60,,,"[""space"",""space"",""space"",""space"",""space"",""space"",""space"",""space"",""space"",""space"",""space"",""space"",""space"",""space"",""space"",""space"",""space"",""space"",""space"",""space"",""space"",""space"",""space"",""space"",""space"",""space"",""space"",""space"",""space"",""space"",""space"",""space"",""space"",""space"",""space"",""space"",""space"",""space"",""space"",""space"",""space"",""space"",""space"",""space""]","[0.19354000000021188,0.636144999996759,1.2868999999991502,2.7381649999989577,3.320254999998724,3.9200849999979255,4.362159999996948,4.935979999998381,5.493404999997551,6.028054999998744,6.469499999999243,6.713599999999246,6.992214999998396,7.40494499999852,7.837734999997338,8.303834999998799,8.837569999999573,9.319644999999582,9.857119999996826,10.288974999999368,10.741189999996891,11.119894999999815,11.670029999997496,12.045494999998482,12.587185000000318,12.97247499999878,13.538904999997612,14.009614999999144,14.453274999999849,14.919739999997546,15.346129999998084,15.790044999997804,16.220264999999927,16.595214999997552,17.305859999996756,17.724650000000224,18.14140499999837,18.557699999997567,19.11988999999801,19.69681499999922,20.37252499999886,20.854524999998716,21.52565499999764,21.920479999996928]",space,0.503985,0.0,30.0,30.0,18.0,1.0,,,,,,,,,,,,,,
,,,,,,,,,,,block_1/medium_n_92_4.wav,no,n,medium,92.0,1.438882438,14.02917722,,,Yes,Apple Earbuds,1,None,m,26,L,Yes,1,2020-09-16_13h15.20.738,kura-A2,2020.1.2,MacIntel,60,,,"[""space"",""space"",""space"",""space"",""space"",""space"",""space"",""space"",""space"",""space"",""space"",""space"",""space"",""space"",""space"",""space"",""space"",""space"",""space"",""space""]","[0.304834999999116,0.939845000000787,1.4344349999990982,2.1417700000019977,2.72244000000137,3.3555149999991727,3.9588050000020303,4.586299999999028,5.220134999999573,5.8057000000007974,6.453685000000405,7.069804999999178,7.705385000001115,8.286135000002105,9.020365000000197,9.591844999999125,10.25376999999935,10.837400000000457,11.48645500000191,12.163974999999368]",space,0.535675,0.0,31.0,31.0,11.0,1.0,,,,,,,,,,,,,,
,,,,,,,,,,,block_1/weak_n_119_4.wav,no,n,weak,119.0,2.305568033,13.07926418,,,Yes,Apple Earbuds,1,None,m,26,L,Yes,1,2020-09-16_13h15.20.738,kura-A2,2020.1.2,MacIntel,60,,,"[""space"",""space"",""space"",""space"",""space"",""space"",""space"",""space"",""space"",""space"",""space"",""space"",""space"",""space"",""space"",""space"",""space"",""space"",""space"",""space"",""space"",""space"",""space""]","[0.22866500000236556,0.7350299999998242,1.2529749999994237,1.728770000001532,2.35841500000231,2.636945000002015,3.019495000000461,3.553205000000162,4.07439499999964,4.520775000000867,5.08777000000191,5.577530000002412,6.095620000000167,6.636075000002165,6.812665000001289,7.262095000001864,7.77739999999892,8.253169999999955,8.918314999998984,9.26955000000089,9.451724999998873,9.902874999999767,10.623685000002297]",space,0.417825,0.0,32.0,32.0,31.0,1.0,,,,,,,,,,,,,,
,,,,,,,,,,,block_1/weak_n_105_3.wav,no,n,weak,105.0,1.738990723,13.41450093,,,Yes,Apple Earbuds,1,None,m,26,L,Yes,1,2020-09-16_13h15.20.738,kura-A2,2020.1.2,MacIntel,60,,,"[""space"",""space"",""space"",""space""]","[0.2570949999973209,0.9666650000001482,1.4355649999998832,2.1271049999996876]",space,0.78384,0.0,33.0,33.0,27.0,1.0,,,,,,,,,,,,,,
,,,,,,,,,,,block_1/none_n_92_4.wav,no,n,none,92.0,1.296817987,15.18938035,,,Yes,Apple Earbuds,1,None,m,26,L,Yes,1,2020-09-16_13h15.20.738,kura-A2,2020.1.2,MacIntel,60,,,"[""space"",""space"",""space"",""space"",""space"",""space"",""space"",""space"",""space"",""space"",""space"",""space"",""space"",""space"",""space"",""space"",""space"",""space"",""space"",""space"",""space"",""space"",""space"",""space"",""space"",""space"",""space"",""space"",""space"",""space"",""space""]","[0.30473500000152853,0.7528600000005099,1.3618700000006356,1.8892049999994924,2.5030149999984133,3.1426299999983485,3.803090000001248,4.306329999999434,4.75197499999922,4.942500000001132,5.402930000000197,5.936350000000061,6.639979999999923,7.177670000001058,7.357725000001665,7.790355000001114,8.3030800000015,8.87360500000068,9.420689999999013,9.986964999999941,10.156474999999773,10.403214999998454,10.769895000001384,11.320169999999052,11.75487499999872,12.254130000001169,12.422135000000708,12.756795000001148,13.237900000000081,13.642520000001241,14.020124999999098]",space,0.65795,0.0,34.0,34.0,19.0,1.0,,,,,,,,,,,,,,
,,,,,,,,,,,block_1/none_n_119_4.wav,no,n,none,119.0,2.009432028,15.37111003,,,Yes,Apple Earbuds,1,None,m,26,L,Yes,1,2020-09-16_13h15.20.738,kura-A2,2020.1.2,MacIntel,60,,,"[""space"",""space"",""space"",""space"",""space"",""space"",""space"",""space"",""space"",""space"",""space"",""space"",""space"",""space""]","[0.3066099999996368,0.6846349999977974,1.2206699999987904,1.6493649999974878,1.8365949999969189,2.0485849999968195,2.386484999999084,2.616004999999973,2.7838599999995495,2.9564699999973527,3.143564999998489,3.3415249999998196,3.615989999998419,3.958169999998063]",space,0.938665,0.0,35.0,35.0,20.0,1.0,,,,,,,,,,,,,,
,,,,,,,,,,,block_1/medium_n_105_3.wav,no,n,medium,105.0,2.417465983,14.09955215,,,Yes,Apple Earbuds,1,None,m,26,L,Yes,1,2020-09-16_13h15.20.738,kura-A2,2020.1.2,MacIntel,60,,,"[""space"",""space"",""space"",""space"",""space"",""space"",""space"",""space"",""space"",""space"",""space"",""space"",""space"",""space"",""space"",""space"",""space"",""space"",""space"",""space"",""space""]","[0.26947500000107993,0.860290000000532,1.4233949999978677,1.9696599999988393,2.545084999997812,3.105534999998781,3.7206249999981083,4.287925000000541,4.819609999998761,5.384174999999232,5.999994999998194,6.618575000000419,7.13979499999914,7.7292449999986275,8.326709999997547,8.905159999998432,9.474125000000754,10.069289999999455,10.651545000000624,11.26239999999973,11.900924999998097]",space,0.573955,0.0,36.0,36.0,0.0,1.0,,,,,,,,,,,,,,
,,,,,,,,,,,block_1/strong_n_105_3.wav,no,n,strong,105.0,1.156897655,12.38746455,,,Yes,Apple Earbuds,1,None,m,26,L,Yes,1,2020-09-16_13h15.20.738,kura-A2,2020.1.2,MacIntel,60,,,"[""space"",""space"",""space"",""space"",""space"",""space"",""space"",""space"",""space"",""space"",""space"",""space"",""space"",""space"",""space"",""space"",""space"",""space"",""space"",""space""]","[0.23517999999955919,0.6195900000018355,1.1117200000005596,1.6370600000008153,2.2627649999993764,2.80212999999992,3.369740000001798,3.945354999999722,4.54420000000016,5.1122300000023415,5.691715000000727,6.2695999999996275,6.852245000001631,7.4195600000019795,7.978395000001797,8.587084999999092,9.137555000001043,9.70919499999934,10.278925000002232,10.847225000001231]",space,0.46626,0.0,37.0,37.0,9.0,1.0,,,,,,,,,,,,,,
,,,,,,,,,,,block_1/none_n_81_4.wav,no,n,none,81.0,2.242955119,22.19488256,,,Yes,Apple Earbuds,1,None,m,26,L,Yes,1,2020-09-16_13h15.20.738,kura-A2,2020.1.2,MacIntel,60,,,"[""space"",""space"",""space"",""space"",""space"",""space"",""space"",""space"",""space"",""space"",""space"",""space"",""space"",""space"",""space"",""space"",""space"",""space"",""space"",""space"",""space"",""space"",""space"",""space"",""space"",""space"",""space"",""space"",""space"",""space"",""space"",""space"",""space"",""space"",""space"",""space"",""space"",""space"",""space"",""space"",""space"",""space"",""space"",""space"",""space"",""space"",""space"",""space"",""space"",""space"",""space"",""space"",""space"",""space"",""space"",""space"",""space"",""space"",""space"",""space"",""space"",""space"",""space"",""space"",""space"",""space"",""space"",""space"",""space"",""space"",""space"",""space"",""space"",""space"",""space""]","[0.21067500000208383,0.6543250000031549,1.1364150000008522,1.5718050000032235,2.019385000003126,2.3381399999998393,2.60144500000024,2.957040000001143,3.1522949999998673,3.443215000003079,3.602960000000053,3.908415000001696,4.150820000002568,4.468380000002185,4.7253799999997455,4.88720000000103,5.220355000001291,5.403725000000122,5.769670000001497,5.919180000000779,6.2038550000033865,6.485745000001771,6.847120000002064,7.1533200000012584,7.329295000003185,7.686975000000416,7.870525000002203,8.184735000002547,8.361165000002075,8.706920000000537,8.971290000001318,9.252175000001444,9.57626000000164,9.902680000002874,10.085915000003297,10.411815000003116,10.594684999999913,10.956665000001635,11.141970000000583,11.49330000000191,11.659970000000612,11.922850000002654,12.185950000002777,12.45792000000074,12.736375000000407,13.008499999999913,13.153435000000172,13.457375000001775,13.61281500000041,13.887445000000298,14.06183000000226,14.354415000001609,14.51996000000156,14.819735000000946,15.095730000000913,15.396970000001602,15.67125500000111,15.842775000000984,16.10571500000151,16.30345000000318,16.4972250000028,16.68746000000101,16.996310000002268,17.303200000002107,17.64254500000243,17.941505000002508,18.140409999999974,18.420125000000667,18.753805000000284,18.954530000002705,19.20561500000258,19.378110000001357,19.62016500000027,19.854054999999903,20.120679999999993]",space,0.819575,0.0,38.0,38.0,26.0,1.0,,,,,,,,,,,,,,
,,,,,,,,,,,block_1/weak_n_81_3.wav,no,n,weak,81.0,1.412334255,16.47029344,,,Yes,Apple Earbuds,1,None,m,26,L,Yes,1,2020-09-16_13h15.20.738,kura-A2,2020.1.2,MacIntel,60,,,"[""space"",""space"",""space"",""space"",""space"",""space"",""space"",""space"",""space"",""space"",""space"",""space"",""space"",""space"",""space"",""space"",""space"",""space"",""space"",""space"",""space"",""space""]","[0.3087900000026593,0.9403550000023415,1.719945000000621,2.3872699999991482,3.0377900000021327,3.5678000000006023,4.183215000000814,4.809860000001095,5.528005000000121,6.183385000000158,6.919265000000337,7.610515000000191,8.46696000000145,9.111385000000041,9.984299999999962,10.64453499999945,11.400154999999245,12.069825000002197,12.824425000002407,13.632240000002525,14.377090000001658,15.200475000001347]",space,0.441625,0.0,39.0,39.0,30.0,1.0,,,,,,,,,,,,,,
,,,,,,,,,,,block_2/weak_t_105_3.wav,timbre,t,weak,105.0,1.911505731,13.14248079,,,Yes,Apple Earbuds,1,None,m,26,L,Yes,1,2020-09-16_13h15.20.738,kura-A2,2020.1.2,MacIntel,60,,,,,,,,,,,,space,2.30209,"[""space"",""space"",""space"",""space"",""space"",""space"",""space"",""space"",""space"",""space"",""space"",""space"",""space"",""space"",""space"",""space"",""space"",""space"",""space"",""space""]","[0.3082399999984773,0.9432750000014494,1.654950000000099,2.2849349999996775,2.9035249999978987,3.511129999998957,4.1506699999990815,4.701880000000415,5.270759999999427,5.8210350000008475,6.3845149999979185,6.902760000000853,7.518039999999019,8.078529999998864,8.652494999998453,9.201600000000326,9.707405000001131,10.22447000000102,10.751960000001532,11.35289499999999]",space,0.28482,0.0,0.0,0.0,4.0,1.0,,,
,,,,,,,,,,,block_2/weak_t_119_4.wav,timbre,t,weak,119.0,2.497661912,13.1066415,,,Yes,Apple Earbuds,1,None,m,26,L,Yes,1,2020-09-16_13h15.20.738,kura-A2,2020.1.2,MacIntel,60,,,,,,,,,,,,,,"[""space"",""space"",""space"",""space"",""space"",""space"",""space"",""space"",""space"",""space"",""space"",""space"",""space"",""space"",""space"",""space"",""space"",""space"",""space"",""space"",""space""]","[0.2238099999995029,0.6835549999996147,1.19472999999914,1.6601849999968863,2.1345249999977796,2.683659999998781,3.2337699999989127,3.783274999997957,4.307019999996555,4.821844999998575,5.360964999999851,5.918064999998023,6.4088749999973516,6.90052999999898,7.438234999997803,8.004244999999969,8.535299999999438,9.016234999999028,9.534059999998135,10.067074999999022,10.517454999997426]",space,0.283205,0.0,1.0,1.0,11.0,1.0,,,
,,,,,,,,,,,block_2/medium_t_81_4.wav,timbre,t,medium,81.0,2.313262111,15.10881767,,,Yes,Apple Earbuds,1,None,m,26,L,Yes,1,2020-09-16_13h15.20.738,kura-A2,2020.1.2,MacIntel,60,,,,,,,,,,,,,,"[""space"",""space"",""space"",""space"",""space"",""space"",""space"",""space"",""space"",""space"",""space"",""space"",""space"",""space"",""space"",""space"",""space"",""space"",""space"",""space""]","[0.22238500000094064,0.7675500000005968,1.2660150000010617,1.8509049999993294,2.5512300000010555,3.1585450000021638,3.8263150000021824,4.48482499999966,5.09982500000126,5.73360999999943,6.367180000001099,7.0171699999992825,7.732530000001248,8.416734999998994,9.065455000000043,9.734215000000518,10.396290000000704,11.03486500000156,11.70126000000164,12.340179999999236]",space,0.41741,0.0,2.0,2.0,2.0,1.0,,,
,,,,,,,,,,,block_2/strong_t_119_4.wav,timbre,t,strong,119.0,1.529717424,11.39760858,,,Yes,Apple Earbuds,1,None,m,26,L,Yes,1,2020-09-16_13h15.20.738,kura-A2,2020.1.2,MacIntel,60,,,,,,,,,,,,,,"[""space"",""space"",""space"",""space"",""space"",""space"",""space"",""space"",""space"",""space"",""space"",""space"",""space"",""space"",""space"",""space"",""space"",""space"",""space"",""space""]","[0.29081999999834807,0.6861749999989115,1.057204999997225,1.4859550000001036,1.973519999999553,2.455470000000787,2.97074000000066,3.479009999999107,3.9905149999976857,4.503249999997934,5.010659999999916,5.51242500000069,5.963949999997681,6.45450499999788,6.970349999999598,7.504189999999767,8.028409999998985,8.536089999997785,9.054219999998054,9.536254999999073]",space,0.377255,0.0,3.0,3.0,39.0,1.0,,,
,,,,,,,,,,,block_2/none_t_105_3.wav,timbre,t,none,105.0,1.906849656,15.72757528,,,Yes,Apple Earbuds,1,None,m,26,L,Yes,1,2020-09-16_13h15.20.738,kura-A2,2020.1.2,MacIntel,60,,,,,,,,,,,,,,"[""space"",""space"",""space"",""space"",""space"",""space"",""space"",""space"",""space"",""space"",""space"",""space"",""space"",""space"",""space"",""space"",""space"",""space"",""space"",""space"",""space"",""space"",""space"",""space"",""space"",""space"",""space"",""space""]","[0.26651500000309625,0.7163800000017773,1.2834250000014435,1.799840000003428,2.267625000000521,2.7505000000020345,3.3569050000006655,3.9189250000018774,4.3881550000006655,4.809705000003419,5.367400000003045,5.886115000001155,6.387270000003014,6.869805000002202,7.324195000001168,7.808420000001433,8.340755000001195,8.857080000001815,9.334375000002296,9.818470000002094,10.318830000000276,10.750540000001024,11.255795000001058,11.770035000001485,12.21852500000034,12.674280000003023,13.119975000001546,13.572970000001192]",space,0.417175,0.0,4.0,4.0,14.0,1.0,,,
,,,,,,,,,,,block_2/medium_t_72_3.wav,timbre,t,medium,72.0,1.064285065,17.84451182,,,Yes,Apple Earbuds,1,None,m,26,L,Yes,1,2020-09-16_13h15.20.738,kura-A2,2020.1.2,MacIntel,60,,,,,,,,,,,,,,"[""space"",""space"",""space"",""space"",""space"",""space"",""space"",""space"",""space"",""space"",""space"",""space"",""space"",""space"",""space"",""space"",""space"",""space"",""space"",""space""]","[0.23357999999632284,0.7352749999988646,1.4026149999990594,2.234259999997448,3.1583099999988917,3.9693549999973357,4.8249899999972286,5.686049999996499,6.700459999999907,7.669364999997811,8.533944999999107,9.409584999997492,10.27444999999716,11.118349999996894,11.984134999998673,12.802469999998607,13.659364999999525,14.500889999999231,15.367314999999394,16.218369999998572]",space,0.333095,0.0,5.0,5.0,31.0,1.0,,,
,,,,,,,,,,,block_2/none_t_81_4.wav,timbre,t,none,81.0,1.883383873,17.9242909,,,Yes,Apple Earbuds,1,None,m,26,L,Yes,1,2020-09-16_13h15.20.738,kura-A2,2020.1.2,MacIntel,60,,,,,,,,,,,,,,"[""space"",""space"",""space"",""space"",""space"",""space"",""space"",""space"",""space"",""space"",""space"",""space"",""space"",""space"",""space"",""space"",""space"",""space"",""space"",""space"",""space"",""space"",""space"",""space"",""space"",""space"",""space"",""space"",""space"",""space""]","[0.1893099999979313,0.7856099999989965,1.3375599999999395,1.8362049999996088,2.359629999999015,2.853224999998929,3.410529999997266,4.036729999999807,4.603409999999826,5.153674999997861,5.659840000000258,6.175250000000233,6.685944999997446,7.259184999998979,7.819869999999355,8.359624999997322,8.878749999999854,9.403379999999743,9.927889999999024,10.479974999998262,11.037664999999947,11.619759999997768,12.138049999997861,12.686705000000075,13.237825000000157,13.80364499999996,14.272799999998824,14.803195000000414,15.341684999999416,15.87148999999772]",space,0.374685,0.0,6.0,6.0,12.0,1.0,,,
,,,,,,,,,,,block_2/none_t_72_3.wav,timbre,t,none,72.0,1.763210745,21.95785927,,,Yes,Apple Earbuds,1,None,m,26,L,Yes,1,2020-09-16_13h15.20.738,kura-A2,2020.1.2,MacIntel,60,,,,,,,,,,,,,,"[""space"",""space"",""space"",""space"",""space"",""space"",""space"",""space"",""space"",""space"",""space"",""space"",""space"",""space"",""space"",""space"",""space"",""space"",""space"",""space"",""space"",""space"",""space"",""space"",""space"",""space""]","[0.18759000000159176,0.8684499999982336,1.6257799999985991,2.4856800000017074,3.2757800000000543,4.055785000000583,4.8852799999987155,5.685825000000591,6.470405000000028,7.188545000001,7.929445000001806,8.686069999999859,9.410104999999135,10.142315000001076,10.869190000001367,11.653900000001272,12.420225000001778,13.12202500000069,13.93924999999956,14.719034999998371,15.707370000000196,16.444475000000352,17.322544999999195,18.19185999999911,18.94023000000027,19.738669999998933]",space,3.249715,0.0,7.0,7.0,19.0,1.0,,,
,,,,,,,,,,,block_2/strong_t_105_3.wav,timbre,t,strong,105.0,1.973938856,13.50654657,,,Yes,Apple Earbuds,1,None,m,26,L,Yes,1,2020-09-16_13h15.20.738,kura-A2,2020.1.2,MacIntel,60,,,,,,,,,,,,,,"[""space"",""space"",""space"",""space"",""space"",""space"",""space"",""space"",""space"",""space"",""space"",""space"",""space"",""space"",""space"",""space"",""space"",""space"",""space"",""space"",""space""]","[0.2560300000003508,0.7504550000012387,1.2430449999991424,1.7713350000011587,2.4002800000016578,2.9709000000000287,3.570395000002236,4.155285000000504,4.7373750000004975,5.340889999999376,5.921990000002552,6.500115000002552,7.092420000000857,7.667465000002153,8.250635000000216,8.843220000002361,9.434215000000904,10.009584999999674,10.592254999999454,11.15013499999975,11.743130000002338]",space,0.43314,0.0,8.0,8.0,21.0,1.0,,,
,,,,,,,,,,,block_2/medium_t_81_3.wav,timbre,t,medium,81.0,1.280563259,13.87394194,,,Yes,Apple Earbuds,1,None,m,26,L,Yes,1,2020-09-16_13h15.20.738,kura-A2,2020.1.2,MacIntel,60,,,,,,,,,,,,,,"[""space"",""space"",""space"",""space"",""space"",""space"",""space"",""space"",""space"",""space"",""space"",""space"",""space"",""space"",""space"",""space"",""space"",""space"",""space"",""space"",""space""]","[0.30966500000067754,0.802029999998922,1.352790000000823,1.9842600000009725,2.617995000000519,3.1850850000009814,3.808979999997973,4.43445499999882,5.092894999998066,5.693129999999655,6.317009999998845,7.050139999999374,7.716335000000981,8.335025000000314,8.967789999998786,9.584249999999884,10.221419999998034,10.884294999999838,11.523965000000317,12.201454999998532,12.834275000001071]",space,0.455035,0.0,9.0,9.0,8.0,1.0,,,
,,,,,,,,,,,block_2/strong_t_119_3.wav,timbre,t,strong,119.0,2.177542179,13.00520658,,,Yes,Apple Earbuds,1,None,m,26,L,Yes,1,2020-09-16_13h15.20.738,kura-A2,2020.1.2,MacIntel,60,,,,,,,,,,,,,,"[""space"",""space"",""space"",""space"",""space"",""space"",""space"",""space"",""space"",""space"",""space"",""space"",""space"",""space"",""space"",""space"",""space"",""space"",""space"",""space""]","[0.582684999997582,1.073645000000397,1.5829200000007404,2.1167349999996077,2.674960000000283,3.221994999999879,3.72157999999763,4.320349999998143,4.888559999999416,5.43347999999969,5.984019999999873,6.537284999998519,7.126239999997779,7.672135000000708,8.233984999998938,8.784014999997453,9.35943000000043,9.908054999999877,10.453405000000203,11.016544999998587]",space,0.40103,0.0,10.0,10.0,28.0,1.0,,,
,,,,,,,,,,,block_2/medium_t_72_4.wav,timbre,t,medium,72.0,1.912133969,19.94959429,,,Yes,Apple Earbuds,1,None,m,26,L,Yes,1,2020-09-16_13h15.20.738,kura-A2,2020.1.2,MacIntel,60,,,,,,,,,,,,,,"[""space"",""space"",""space"",""space"",""space"",""space"",""space"",""space"",""space"",""space"",""space"",""space"",""space"",""space"",""space"",""space"",""space"",""space"",""space"",""space"",""space"",""space"",""space"",""space"",""space"",""space"",""space"",""space""]","[0.4405850000002829,0.9204800000006799,1.5752000000029511,2.1746700000005603,2.7524499999999534,3.3859100000008766,4.035445000001346,4.686385000000655,5.3779300000023795,6.024380000002566,6.60309000000052,7.235790000002453,7.979945000002772,8.610155000002123,9.335620000001654,10.026455000002898,10.75363500000094,11.476174999999785,12.119495000002644,12.642020000002958,13.228025000000343,13.820620000002236,14.302670000000944,15.027225000001636,15.752254999999423,16.303250000000844,17.120334999999614,17.921464999999444]",space,0.72754,0.0,11.0,11.0,36.0,1.0,,,
,,,,,,,,,,,block_2/none_t_105_4.wav,timbre,t,none,105.0,1.723889958,15.53967227,,,Yes,Apple Earbuds,1,None,m,26,L,Yes,1,2020-09-16_13h15.20.738,kura-A2,2020.1.2,MacIntel,60,,,,,,,,,,,,,,"[""space"",""space"",""space"",""space"",""space"",""space"",""space"",""space"",""space"",""space"",""space"",""space"",""space"",""space"",""space"",""space"",""space"",""space"",""space"",""space"",""space"",""space"",""space"",""space"",""space"",""space"",""space"",""space""]","[0.2036399999999503,0.7167999999985568,1.266674999999168,1.8003399999981866,2.376134999999067,2.8362499999968804,3.384624999999005,3.8504749999995056,4.324849999997468,4.7670099999998,5.321959999997716,5.8179249999996046,6.290294999999105,6.785075000000006,7.268029999999499,7.7667949999997745,8.258285000000114,8.736904999997932,9.254144999999198,9.734669999998232,10.190479999997706,10.67122499999823,11.168524999997544,11.63366499999779,12.158294999997679,12.650415000000294,13.185034999998834,13.683929999999236]",space,0.50079,0.0,12.0,12.0,20.0,1.0,,,
,,,,,,,,,,,block_2/strong_t_81_4.wav,timbre,t,strong,81.0,1.059530738,15.41717246,,,Yes,Apple Earbuds,1,None,m,26,L,Yes,1,2020-09-16_13h15.20.738,kura-A2,2020.1.2,MacIntel,60,,,,,,,,,,,,,,"[""space"",""space"",""space"",""space"",""space"",""space"",""space"",""space"",""space"",""space"",""space"",""space"",""space"",""space"",""space"",""space"",""space"",""space"",""space"",""space""]","[0.3365699999994831,0.7995249999983116,1.600020000001905,2.3244200000008277,3.0366350000003877,3.723985000000539,4.455920000000333,5.186405000000377,5.942674999998417,6.667379999998957,7.409035000000586,8.13497500000085,8.870334999999614,9.592035000001488,10.275799999999435,10.986000000000786,12.054309999999532,12.505465000002005,13.23584000000119,13.900580000001355]",space,0.28489,0.0,13.0,13.0,34.0,1.0,,,
,,,,,,,,,,,block_2/medium_t_119_3.wav,timbre,t,medium,119.0,1.894752713,10.65330147,,,Yes,Apple Earbuds,1,None,m,26,L,Yes,1,2020-09-16_13h15.20.738,kura-A2,2020.1.2,MacIntel,60,,,,,,,,,,,,,,"[""space"",""space"",""space"",""space"",""space"",""space"",""space"",""space"",""space"",""space"",""space"",""space"",""space"",""space"",""space"",""space"",""space"",""space"",""space"",""space""]","[0.21005000000150176,0.6402950000010605,1.155805000002374,1.6840750000010303,2.165885000002163,2.6000200000016775,3.0162249999993946,3.484280000000581,3.93465500000093,4.382570000001351,4.817010000002483,5.284610000002431,5.73298000000068,6.131670000002487,6.600200000000996,7.082835000001069,7.536280000000261,7.98899000000165,8.449449999999842,8.935420000001614]",space,0.258045,0.0,14.0,14.0,37.0,1.0,,,
,,,,,,,,,,,block_2/none_t_92_4.wav,timbre,t,none,92.0,1.414044957,16.25508804,,,Yes,Apple Earbuds,1,None,m,26,L,Yes,1,2020-09-16_13h15.20.738,kura-A2,2020.1.2,MacIntel,60,,,,,,,,,,,,,,"[""space"",""space"",""space"",""space"",""space"",""space"",""space"",""space"",""space"",""space"",""space"",""space"",""space"",""space"",""space"",""space"",""space"",""space"",""space"",""space"",""space"",""space"",""space"",""space"",""space"",""space"",""space"",""space"",""space""]","[0.2181849999979022,0.6172799999985727,1.137380000000121,1.7075550000008661,2.234414999999217,2.767455000001064,3.289795000000595,3.8523349999995844,4.354784999999538,4.8728249999985565,5.368299999998271,5.8913549999997485,6.4040749999985565,6.925435000001016,7.48385000000053,7.98609999999826,8.517704999998386,9.024004999999534,9.533465000000206,10.03401500000109,10.518274999998539,11.038154999998369,11.52838999999949,12.03643000000011,12.506665000000794,13.051269999999931,13.567459999998391,14.093909999999596,14.603445000000875]",space,0.59075,0.0,15.0,15.0,22.0,1.0,,,
,,,,,,,,,,,block_2/weak_t_81_4.wav,timbre,t,weak,81.0,1.138387897,14.33417021,,,Yes,Apple Earbuds,1,None,m,26,L,Yes,1,2020-09-16_13h15.20.738,kura-A2,2020.1.2,MacIntel,60,,,,,,,,,,,,,,"[""space"",""space"",""space"",""space"",""space"",""space"",""space"",""space"",""space"",""space"",""space"",""space"",""space"",""space"",""space"",""space"",""space"",""space"",""space"",""space""]","[0.2723550000009709,0.7332300000016403,1.4213750000017171,2.094199999999546,2.691370000000461,3.316405000001396,3.968445000002248,4.624309999999241,5.356500000001688,5.9602799999993294,6.616495000002033,7.273369999998977,7.954089999999269,8.586765000000014,9.276379999999563,10.017319999999017,10.728664999998728,11.354309999998577,12.060480000000098,12.733110000001034]",space,0.354075,0.0,16.0,16.0,0.0,1.0,,,
,,,,,,,,,,,block_2/strong_t_105_4.wav,timbre,t,strong,105.0,1.910106179,12.02788396,,,Yes,Apple Earbuds,1,None,m,26,L,Yes,1,2020-09-16_13h15.20.738,kura-A2,2020.1.2,MacIntel,60,,,,,,,,,,,,,,"[""space"",""space"",""space"",""space"",""space"",""space"",""space"",""space"",""space"",""space"",""space"",""space"",""space"",""space"",""space"",""space"",""space"",""space"",""space"",""space"",""space""]","[0.46754999999734537,0.9720349999988684,1.3669200000003912,1.8002749999977823,2.28916499999832,2.7865749999982654,3.2839749999984633,3.7672099999981583,4.26679499999932,4.775279999997792,5.283429999999498,5.783064999999624,6.299974999998312,6.817885000000388,7.289890000000014,7.8002400000004855,8.283660000000964,8.786270000000513,9.283644999999524,9.766709999999875,10.287254999999504]",space,0.28689,0.0,17.0,17.0,18.0,1.0,,,
,,,,,,,,,,,block_2/strong_t_92_3.wav,timbre,t,strong,92.0,2.058598996,15.10526566,,,Yes,Apple Earbuds,1,None,m,26,L,Yes,1,2020-09-16_13h15.20.738,kura-A2,2020.1.2,MacIntel,60,,,,,,,,,,,,,,"[""space"",""space"",""space"",""space"",""space"",""space"",""space"",""space"",""space"",""space"",""space"",""space"",""space"",""space"",""space"",""space"",""space"",""space"",""space"",""space""]","[0.1840799999988576,0.633109999998851,1.3831149999966783,2.023734999998851,2.6696649999976216,3.3525749999971595,3.9837749999969674,4.639179999998305,5.301239999997051,6.009169999997312,6.650444999999081,7.311474999998609,7.986604999998235,8.640674999998737,9.32122999999774,10.012165000000095,10.63691999999719,11.318194999999832,11.954724999999598,12.619694999997591]",space,0.30048,0.0,18.0,18.0,3.0,1.0,,,
,,,,,,,,,,,block_2/weak_t_92_4.wav,timbre,t,weak,92.0,2.338363624,13.8208126,,,Yes,Apple Earbuds,1,None,m,26,L,Yes,1,2020-09-16_13h15.20.738,kura-A2,2020.1.2,MacIntel,60,,,,,,,,,,,,,,"[""space"",""space"",""space"",""space"",""space"",""space"",""space"",""space"",""space"",""space"",""space"",""space"",""space"",""space"",""space"",""space"",""space"",""space"",""space"",""space""]","[0.18630499999926542,0.657549999999901,1.255750000000262,1.791574999999284,2.3772199999984878,2.923210000000836,3.522979999997915,4.078494999997929,4.66964999999982,5.205934999998135,5.8192849999977625,6.425064999999449,7.031489999997575,7.58748999999807,8.176429999999527,8.755809999998746,9.33717500000057,9.906169999998383,10.509729999997944,11.090000000000146]",space,0.69205,0.0,19.0,19.0,29.0,1.0,,,
,,,,,,,,,,,block_2/strong_t_72_4.wav,timbre,t,strong,72.0,1.957123463,17.07435702,,,Yes,Apple Earbuds,1,None,m,26,L,Yes,1,2020-09-16_13h15.20.738,kura-A2,2020.1.2,MacIntel,60,,,,,,,,,,,,,,"[""space"",""space"",""space"",""space"",""space"",""space"",""space"",""space"",""space"",""space"",""space"",""space"",""space"",""space"",""space"",""space"",""space"",""space"",""space"",""space""]","[0.5719949999984237,1.141844999998284,2.2290150000007998,2.937460000000783,3.7350899999983085,4.488444999999047,5.211544999998296,6.025579999997717,6.836439999998902,7.627550000001065,8.402604999999312,9.177625000000262,9.987890000000334,10.779084999998304,11.493579999998474,12.310310000000754,13.090355000000272,13.902344999998604,14.687089999999444,15.458044999999402]",space,0.47064,0.0,20.0,20.0,1.0,1.0,,,
,,,,,,,,,,,block_2/weak_t_81_3.wav,timbre,t,weak,81.0,1.745235196,18.01484971,,,Yes,Apple Earbuds,1,None,m,26,L,Yes,1,2020-09-16_13h15.20.738,kura-A2,2020.1.2,MacIntel,60,,,,,,,,,,,,,,"[""space"",""space"",""space"",""space"",""space"",""space"",""space"",""space"",""space"",""space"",""space"",""space"",""space"",""space"",""space"",""space"",""space"",""space"",""space"",""space"",""space"",""space"",""space"",""space"",""space"",""space"",""space""]","[0.30161999999836553,0.670044999998936,1.162369999998191,1.7665500000002794,2.3338699999985693,3.083165000000008,3.634285000000091,4.283339999998361,4.908080000001064,5.401659999999538,6.083810000000085,6.734309999999823,7.3605549999992945,7.953870000001416,8.534250000000839,9.122980000000098,9.817459999998391,10.417379999998957,11.050114999998186,11.650574999999662,12.192729999998846,12.784524999999348,13.46797499999957,14.117269999998825,14.734075000000303,15.355680000000575,16.059144999999262]",space,0.670525,0.0,21.0,21.0,6.0,1.0,,,
,,,,,,,,,,,block_2/weak_t_72_3.wav,timbre,t,weak,72.0,1.543417886,17.01208002,,,Yes,Apple Earbuds,1,None,m,26,L,Yes,1,2020-09-16_13h15.20.738,kura-A2,2020.1.2,MacIntel,60,,,,,,,,,,,,,,"[""space"",""space"",""space"",""space"",""space"",""space"",""space"",""space"",""space"",""space"",""space"",""space"",""space"",""space"",""space"",""space"",""space"",""space"",""space"",""space"",""space"",""space"",""space"",""space""]","[0.2157599999991362,0.6700399999972433,1.2538899999999558,1.936794999997801,2.66673499999888,3.3829599999990023,4.1004549999997835,4.814784999998665,5.468319999999949,6.083489999997255,6.706964999997581,7.325744999998051,7.98630999999682,8.66590499999802,9.240539999998873,9.916249999998627,10.551909999998088,11.274964999996882,11.927519999997457,12.548374999998487,13.184269999997923,13.901074999997945,14.600224999998318,15.323209999998653]",space,0.416945,0.0,22.0,22.0,26.0,1.0,,,
,,,,,,,,,,,block_2/none_t_92_3.wav,timbre,t,none,92.0,1.328085357,13.39815338,,,Yes,Apple Earbuds,1,None,m,26,L,Yes,1,2020-09-16_13h15.20.738,kura-A2,2020.1.2,MacIntel,60,,,,,,,,,,,,,,"[""space"",""space"",""space"",""space"",""space"",""space"",""space"",""space"",""space"",""space"",""space"",""space"",""space"",""space"",""space"",""space"",""space"",""space"",""space"",""space"",""space"",""space"",""space"",""space"",""space"",""space"",""space"",""space""]","[0.2504399999997986,0.8168799999984913,1.2595250000013039,1.7348700000002282,2.2014300000009825,2.623329999998532,3.070110000000568,3.537110000001121,3.91849000000002,4.3287049999999,4.773890000000392,5.242464999999356,5.7010200000006535,6.122934999999416,6.542405000000144,6.987560000001622,7.4510200000006535,7.9020500000005995,8.270674999999983,8.736235000000306,9.153715000000375,9.568354999999428,9.95229499999914,10.384415000000672,10.802335000000312,11.186699999998382,11.63503000000128,12.121855000001233]",space,0.47246,0.0,23.0,23.0,17.0,1.0,,,
,,,,,,,,,,,block_2/medium_t_92_4.wav,timbre,t,medium,92.0,1.599417172,14.59601581,,,Yes,Apple Earbuds,1,None,m,26,L,Yes,1,2020-09-16_13h15.20.738,kura-A2,2020.1.2,MacIntel,60,,,,,,,,,,,,,,"[""space"",""space"",""space"",""space"",""space"",""space"",""space"",""space"",""space"",""space"",""space"",""space"",""space"",""space"",""space"",""space"",""space"",""space"",""space"",""space""]","[0.29170000000158325,0.7001749999981257,1.2196100000001024,1.8907150000013644,2.5179749999986143,3.1702350000011847,3.8335650000008172,4.451144999999087,5.1390749999991385,5.850425000000541,6.500319999999192,7.1173799999996845,7.7913100000005215,8.468834999999672,9.091394999999693,9.80594999999812,10.556229999998322,11.152304999999842,11.793020000000979,12.403855000000476]",space,3.01682,0.0,24.0,24.0,25.0,1.0,,,
,,,,,,,,,,,block_2/medium_t_92_3.wav,timbre,t,medium,92.0,1.388240232,13.37372776,,,Yes,Apple Earbuds,1,None,m,26,L,Yes,1,2020-09-16_13h15.20.738,kura-A2,2020.1.2,MacIntel,60,,,,,,,,,,,,,,"[""space"",""space"",""space"",""space"",""space"",""space"",""space"",""space"",""space"",""space"",""space"",""space"",""space"",""space"",""space"",""space"",""space"",""space"",""space"",""space""]","[0.23470000000043,0.722935000001371,1.3371699999986504,1.9337599999996655,2.5028100000015456,3.0720599999983733,3.6724250000004304,4.3003449999994245,4.922999999998638,5.516484999999648,6.049965000001748,6.667560000001231,7.308300000000372,7.9012099999997645,8.522335000001249,9.108865000001742,9.700400000001082,10.272810000001982,10.88858999999843,11.516599999998789]",space,0.51961,0.0,25.0,25.0,35.0,1.0,,,
,,,,,,,,,,,block_2/none_t_119_4.wav,timbre,t,none,119.0,2.16972576,11.23222009,,,Yes,Apple Earbuds,1,None,m,26,L,Yes,1,2020-09-16_13h15.20.738,kura-A2,2020.1.2,MacIntel,60,,,,,,,,,,,,,,"[""space"",""space"",""space"",""space"",""space"",""space"",""space"",""space"",""space"",""space"",""space"",""space"",""space"",""space"",""space"",""space"",""space"",""space"",""space"",""space""]","[0.19316999999864493,0.6503999999986263,1.2022949999991397,1.741425000000163,2.21903499999803,2.7022499999984575,3.185659999998961,3.667439999997441,4.13779499999896,4.578209999999672,4.975124999997206,5.45115000000078,5.934844999999768,6.435079999999289,6.903360000000248,7.369479999997566,7.859844999999041,8.328099999998813,8.834520000000339,9.325999999997293]",space,0.68405,0.0,26.0,26.0,27.0,1.0,,,
,,,,,,,,,,,block_2/weak_t_119_3.wav,timbre,t,weak,119.0,2.134308914,11.54587354,,,Yes,Apple Earbuds,1,None,m,26,L,Yes,1,2020-09-16_13h15.20.738,kura-A2,2020.1.2,MacIntel,60,,,,,,,,,,,,,,"[""space"",""space"",""space"",""space"",""space"",""space"",""space"",""space"",""space"",""space"",""space"",""space"",""space"",""space"",""space"",""space"",""space"",""space"",""space"",""space""]","[0.16727999999784515,0.6179300000003423,1.1590099999991708,1.7020300000003772,2.218029999999999,2.771659999998519,3.2697799999989456,3.7674299999998766,4.354745000000548,4.884679999999207,5.373609999998735,5.875229999997828,6.351579999998648,6.852390000000014,7.3237000000008265,7.7673350000004575,8.217860000000883,8.671584999999823,9.12650500000018,9.601605000000063]",space,0.420845,0.0,27.0,27.0,13.0,1.0,,,
,,,,,,,,,,,block_2/weak_t_105_4.wav,timbre,t,weak,105.0,1.205192231,12.73516956,,,Yes,Apple Earbuds,1,None,m,26,L,Yes,1,2020-09-16_13h15.20.738,kura-A2,2020.1.2,MacIntel,60,,,,,,,,,,,,,,"[""space"",""space"",""space"",""space"",""space"",""space"",""space"",""space"",""space"",""space"",""space"",""space"",""space"",""space"",""space"",""space"",""space"",""space"",""space"",""space"",""space""]","[0.2520299999996496,0.8075800000005984,1.4040050000003248,1.9840150000018184,2.552715000001399,3.1656199999997625,3.699425000002293,4.2052050000020245,4.7191600000005565,5.271950000002107,5.799764999999752,6.386320000001433,6.999940000001516,7.586670000000595,8.189539999999397,8.741220000000112,9.284775000000081,9.850474999999278,10.400134999999864,10.974604999999201,11.53643999999963]",space,0.575215,0.0,28.0,28.0,7.0,1.0,,,
,,,,,,,,,,,block_2/weak_t_92_3.wav,timbre,t,weak,92.0,1.995389518,17.35720358,,,Yes,Apple Earbuds,1,None,m,26,L,Yes,1,2020-09-16_13h15.20.738,kura-A2,2020.1.2,MacIntel,60,,,,,,,,,,,,,,"[""space"",""space"",""space"",""space"",""space"",""space"",""space"",""space"",""space"",""space"",""space"",""space"",""space"",""space"",""space"",""space"",""space"",""space"",""space"",""space"",""space"",""space""]","[0.1728800000018964,0.8023949999987963,1.5346900000004098,2.2105550000014773,3.0618199999989884,3.8446100000001024,4.619845000001078,5.370565000001079,6.22300499999983,6.9768100000003415,7.741695000000618,8.486519999998563,9.217420000000857,9.884044999998878,10.584600000001956,11.251510000001872,11.868330000001151,12.541564999999764,13.150854999999865,13.917614999998477,14.657480000001442,15.392690000000584]",space,0.31608,0.0,29.0,29.0,38.0,1.0,,,
,,,,,,,,,,,block_2/strong_t_72_3.wav,timbre,t,strong,72.0,1.757165856,18.23458082,,,Yes,Apple Earbuds,1,None,m,26,L,Yes,1,2020-09-16_13h15.20.738,kura-A2,2020.1.2,MacIntel,60,,,,,,,,,,,,,,"[""space"",""space"",""space"",""space"",""space"",""space"",""space"",""space"",""space"",""space"",""space"",""space"",""space"",""space"",""space"",""space"",""space"",""space"",""space"",""space"",""space""]","[0.22369999999864376,0.7001749999981257,1.7333599999983562,2.6212549999982,3.416959999998653,4.2245549999970535,5.072259999996959,5.933514999996987,6.774139999997715,7.6019649999980174,8.409459999998944,9.243719999998575,10.135930000000144,11.01056499999686,11.821564999998373,12.653304999999818,13.507014999999228,14.334530000000086,15.160399999997026,16.018684999999323,16.986479999999574]",space,0.450985,0.0,30.0,30.0,5.0,1.0,,,
,,,,,,,,,,,block_2/none_t_81_3.wav,timbre,t,none,81.0,2.3234515,21.58667145,,,Yes,Apple Earbuds,1,None,m,26,L,Yes,1,2020-09-16_13h15.20.738,kura-A2,2020.1.2,MacIntel,60,,,,,,,,,,,,,,"[""space"",""space"",""space"",""space"",""space"",""space"",""space"",""space"",""space"",""space"",""space"",""space"",""space"",""space"",""space"",""space"",""space"",""space"",""space"",""space"",""space"",""space"",""space"",""space"",""space"",""space"",""space"",""space"",""space"",""space"",""space"",""space"",""space"",""space"",""space"",""space"",""space"",""space""]","[0.20119999999974425,0.6185299999999643,1.2091399999992518,1.8231649999981983,2.36816500000009,2.87042999999926,3.451154999999062,4.058304999998882,4.602044999999862,5.120349999997643,5.685509999999567,6.218124999999645,6.751454999998032,7.267369999997982,7.784969999997202,8.30401999999981,8.785234999999602,9.272004999999126,9.751994999998715,10.222630000000436,10.719724999999244,11.228759999998601,11.744574999997212,12.218759999999975,12.723114999997279,13.235704999999143,13.718294999999216,14.219040000000177,14.717689999997901,15.253404999999702,15.776239999999461,16.269209999998566,16.74000500000011,17.218444999998837,17.69530999999938,18.1850500000005,18.668249999999034,19.18537499999752]",space,0.56694,0.0,31.0,31.0,10.0,1.0,,,
,,,,,,,,,,,block_2/weak_t_72_4.wav,timbre,t,weak,72.0,1.41938316,17.89516547,,,Yes,Apple Earbuds,1,None,m,26,L,Yes,1,2020-09-16_13h15.20.738,kura-A2,2020.1.2,MacIntel,60,,,,,,,,,,,,,,"[""space"",""space"",""space"",""space"",""space"",""space"",""space"",""space"",""space"",""space"",""space"",""space"",""space"",""space"",""space"",""space"",""space"",""space"",""space"",""space"",""space"",""space"",""space""]","[0.2261450000005425,0.7862700000007408,1.4953700000005483,2.353820000000269,3.1185399999994843,3.6426700000010896,4.277944999998226,4.969030000000203,5.694954999999027,6.362919999999576,7.036919999998645,7.76077499999883,8.388829999999643,9.075990000001411,9.695999999999913,10.486174999998184,11.353449999998702,12.062470000000758,12.803854999998293,13.671109999999317,14.470564999999624,15.270189999999047,16.095205000001442]",space,0.35806,0.0,32.0,32.0,33.0,1.0,,,
,,,,,,,,,,,block_2/none_t_119_3.wav,timbre,t,none,119.0,1.207484261,12.32644118,,,Yes,Apple Earbuds,1,None,m,26,L,Yes,1,2020-09-16_13h15.20.738,kura-A2,2020.1.2,MacIntel,60,,,,,,,,,,,,,,"[""space"",""space"",""space"",""space"",""space"",""space"",""space"",""space"",""space"",""space"",""space"",""space"",""space"",""space"",""space"",""space"",""space"",""space"",""space"",""space"",""space"",""space"",""space"",""space"",""space""]","[0.25318999999944936,0.7261450000005425,1.184769999999844,1.7113099999987753,2.218110000001616,2.6220350000003236,3.085930000001099,3.535954999999376,4.0031550000021525,4.440030000001798,4.87279000000126,5.295750000001135,5.777044999999134,6.206855000000587,6.713309999999183,7.155600000002096,7.623380000000907,8.071555000002263,8.573544999999285,9.008034999998927,9.440849999999045,9.85886500000197,10.327750000000606,10.804015000001527,11.279829999999492]",space,0.55718,0.0,33.0,33.0,32.0,1.0,,,
,,,,,,,,,,,block_2/medium_t_119_4.wav,timbre,t,medium,119.0,2.1713947,11.99221103,,,Yes,Apple Earbuds,1,None,m,26,L,Yes,1,2020-09-16_13h15.20.738,kura-A2,2020.1.2,MacIntel,60,,,,,,,,,,,,,,"[""space"",""space"",""space"",""space"",""space"",""space"",""space"",""space"",""space"",""space"",""space"",""space"",""space"",""space"",""space"",""space"",""space"",""space""]","[0.1835449999998673,0.8649899999982154,1.572294999998121,2.285954999999376,2.8425099999988106,3.4353399999999965,4.000434999998106,4.556564999998955,5.088629999998375,5.716154999998253,6.311084999997547,6.832994999997027,7.334709999999177,7.835204999999405,8.40342999999848,8.909099999997125,9.48373999999967,9.96722999999838]",space,0.383285,0.0,34.0,34.0,30.0,1.0,,,
,,,,,,,,,,,block_2/medium_t_105_4.wav,timbre,t,medium,105.0,1.80685877,13.54300389,,,Yes,Apple Earbuds,1,None,m,26,L,Yes,1,2020-09-16_13h15.20.738,kura-A2,2020.1.2,MacIntel,60,,,,,,,,,,,,,,"[""space"",""space"",""space"",""space"",""space"",""space"",""space"",""space"",""space"",""space"",""space"",""space"",""space"",""space"",""space"",""space"",""space"",""space"",""space"",""space"",""space""]","[0.18438500000047497,0.6124550000022282,1.119164999999839,1.659954999998945,2.3101500000011583,2.917905000002065,3.468675000000303,4.0361550000015995,4.626200000002427,5.234739999999874,5.835630000001402,6.40176000000065,7.018899999999121,7.603735000000825,8.218575000002602,8.844049999999697,9.494000000002416,10.10193000000072,10.668920000000071,11.25307000000248,11.854350000001432]",space,0.60726,0.0,35.0,35.0,23.0,1.0,,,
,,,,,,,,,,,block_2/medium_t_105_3.wav,timbre,t,medium,105.0,1.319167427,12.09599282,,,Yes,Apple Earbuds,1,None,m,26,L,Yes,1,2020-09-16_13h15.20.738,kura-A2,2020.1.2,MacIntel,60,,,,,,,,,,,,,,"[""space"",""space"",""space"",""space"",""space"",""space"",""space"",""space"",""space"",""space"",""space"",""space"",""space"",""space"",""space"",""space"",""space"",""space"",""space"",""space"",""space""]","[0.24994499999957043,0.6737800000009884,1.222525000001042,1.7406899999987218,2.2678049999994982,2.776975000000675,3.2695549999989453,3.8016349999998056,4.317660000000615,4.836169999998447,5.323954999999842,5.901655000001483,6.427035000000615,6.984015000001818,7.553840000000491,8.1051750000006,8.633839999998372,9.190520000000106,9.735974999999598,10.284705000002077,10.867014999999583]",space,0.41485,0.0,36.0,36.0,16.0,1.0,,,
,,,,,,,,,,,block_2/strong_t_81_3.wav,timbre,t,strong,81.0,1.276002308,16.49137646,,,Yes,Apple Earbuds,1,None,m,26,L,Yes,1,2020-09-16_13h15.20.738,kura-A2,2020.1.2,MacIntel,60,,,,,,,,,,,,,,"[""space"",""space"",""space"",""space"",""space"",""space"",""space"",""space"",""space"",""space"",""space"",""space"",""space"",""space"",""space"",""space"",""space"",""space"",""space"",""space""]","[0.303260000000364,0.7586449999978413,1.6342399999991812,2.369374999998172,3.135979999998881,3.9178599999975177,4.674489999997377,5.441779999997152,6.185339999999769,6.97556999999847,7.783649999997579,8.5287050000004,9.319629999997915,10.059074999997392,10.833494999998493,11.591389999997546,12.36736999999971,13.10232499999961,13.940464999999449,14.726684999997588]",space,0.450455,0.0,37.0,37.0,24.0,1.0,,,
,,,,,,,,,,,block_2/strong_t_92_4.wav,timbre,t,strong,92.0,1.817525361,14.05856845,,,Yes,Apple Earbuds,1,None,m,26,L,Yes,1,2020-09-16_13h15.20.738,kura-A2,2020.1.2,MacIntel,60,,,,,,,,,,,,,,"[""space"",""space"",""space"",""space"",""space"",""space"",""space"",""space"",""space"",""space"",""space"",""space"",""space"",""space"",""space"",""space"",""space"",""space"",""space"",""space""]","[0.6190050000004703,1.234775000000809,1.832419999999047,2.3673950000011246,2.9844450000018696,3.590299999999843,4.221410000001924,4.85051999999996,5.51672999999937,6.088175000000774,6.71704999999929,7.366050000000541,8.037195000000793,8.6772349999992,9.300630000001547,9.925940000000992,10.569120000000112,11.186795000001439,11.831924999998591,12.46739499999967]",space,1.43701,0.0,38.0,38.0,9.0,1.0,,,
,,,,,,,,,,,block_2/none_t_72_4.wav,timbre,t,none,72.0,1.053800106,24.75334659,,,Yes,Apple Earbuds,1,None,m,26,L,Yes,1,2020-09-16_13h15.20.738,kura-A2,2020.1.2,MacIntel,60,,,,,,,,,,,,,,"[""space"",""space"",""space"",""space"",""space"",""space"",""space"",""space"",""space"",""space"",""space"",""space"",""space"",""space"",""space"",""space"",""space"",""space"",""space"",""space"",""space"",""space"",""space"",""space"",""space"",""space"",""space"",""space"",""space"",""space"",""space"",""space"",""space"",""space"",""space"",""space"",""space"",""space"",""space"",""space"",""space"",""space"",""space""]","[0.19983000000138418,0.650324999998702,1.1349000000009255,1.710029999998369,2.2692449999995006,2.7936399999998685,3.360580000000482,3.9224099999992177,4.485714999998891,5.05060500000036,5.662590000000137,6.253825000000006,6.85198500000115,7.442910000001575,8.035374999999476,8.609229999998206,9.218584999998711,9.802759999998443,10.369750000001659,10.94455999999991,11.507730000001175,12.054944999999861,12.609134999998787,13.208184999999503,13.790004999998928,14.351944999998523,14.901115000000573,15.42815999999948,15.977364999998827,16.51957499999844,17.045249999999214,17.61008999999831,18.15481500000169,18.690865000000485,19.219570000001113,19.73431999999957,20.268639999998413,20.760959999999614,21.303374999999505,21.861509999998816,22.40217499999926,22.919860000002018,23.487310000000434]",space,0.65581,0.0,39.0,39.0,15.0,1.0,,,
,,,,,,,,,,,,,,,,,,,,Yes,Apple Earbuds,1,None,m,26,L,Yes,1,2020-09-16_13h15.20.738,kura-A2,2020.1.2,MacIntel,60,,,,,,,,,,,,,,,,,,,,,,,space,34.909565,
