key_resp.keys,key_resp.rt,practice_taps.keys,practice_taps.rt,keyresp.keys,keyresp.rt,practice_stims_loop.thisRepN,practice_stims_loop.thisTrialN,practice_stims_loop.thisN,practice_stims_loop.thisIndex,practice_stims_loop.ran,sndfile,type,tempo,cond,version,delay,dur,Participant Initials,"If you are a MTurk worker, what is your MTurk worker ID?","If you are not an MTurk worker, please provide your email address",Are you wearing headphones?,What are the headphone make and model?,"How many years of musical training, if any, do you have?",Do you have any hearing problems? Please describe,What is your sex (f/m/decline)?,What is your age?,What is your handedness (R/L/ambi)?,Are you currently in a secure and quiet room without a possible interruption?,session,date,expName,psychopyVersion,OS,frameRate,instructions_prompt.keys,instructions_prompt.rt,block1_taps.keys,block1_taps.rt,key_resp_2.keys,key_resp_2.rt,trials.thisRepN,trials.thisTrialN,trials.thisN,trials.thisIndex,trials.ran,key_resp2.keys,key_resp2.rt,block2_taps.keys,block2_taps.rt,key_resp_3.keys,key_resp_3.rt,trials_2.thisRepN,trials_2.thisTrialN,trials_2.thisN,trials_2.thisIndex,trials_2.ran,key_resp_4.keys,key_resp_4.rt
space,25.615,"[""space"",""space"",""space"",""space"",""space"",""space"",""space"",""space"",""space"",""space"",""space"",""space"",""space"",""space"",""space"",""space"",""space"",""space"",""space"",""space"",""space"",""space"",""space"",""space"",""space"",""space"",""space"",""space"",""space"",""space"",""space"",""space"",""space"",""space"",""space"",""space"",""space"",""space"",""space""]","[4.242999999999995,5.022999999999996,5.775999999999982,6.972999999999985,8.076999999999998,8.875,9.242999999999995,9.430999999999983,9.893,10.117999999999995,10.293999999999983,10.82899999999998,11.099999999999994,11.326999999999998,12.145999999999987,12.34699999999998,13.145999999999987,13.347999999999985,13.512999999999977,14.34699999999998,14.546999999999997,14.730999999999995,15.181999999999988,15.36499999999998,15.547999999999973,16.502999999999986,16.686999999999983,16.88299999999998,17.38899999999998,17.583999999999975,17.75,18.301999999999992,18.484999999999985,18.669999999999987,18.887,19.43599999999998,19.64099999999999,19.801999999999992,19.988]",space,1.644,0.0,0.0,0.0,3.0,1.0,block_2/weak_n_72_2.wav,no,n,weak,72.0,1.63372301,21.59472074,,,,Yes,Insignia Model:NS-CAHBTOE01 ,1,No,Male,61,Right,Yes,1,2020-10-05_08h31.10.554,kura-B1,2020.1.2,Win32,60,,,,,,,,,,,,,,,,,,,,,,,,
,,"[""space"",""space"",""space"",""space"",""space"",""space"",""space"",""space"",""space"",""space"",""space"",""space"",""space"",""space"",""space"",""space"",""space"",""space"",""space"",""space""]","[1.1090000000000089,2.0919999999999845,2.569999999999993,3.2220000000000084,3.8549999999999898,4.556000000000012,5.293000000000006,5.956999999999994,6.5589999999999975,7.227000000000004,8.049000000000007,8.661000000000001,9.260999999999996,9.877999999999986,10.51400000000001,11.162000000000006,11.832999999999998,12.631,13.198000000000008,13.881]",space,1.554,0.0,1.0,1.0,2.0,1.0,block_1/weak_t_92_1.wav,timbre,t,weak,92.0,2.207238706,15.60342918,,,,Yes,Insignia Model:NS-CAHBTOE01 ,1,No,Male,61,Right,Yes,1,2020-10-05_08h31.10.554,kura-B1,2020.1.2,Win32,60,,,,,,,,,,,,,,,,,,,,,,,,
,,"[""space"",""space"",""space"",""space"",""space"",""space"",""space"",""space"",""space"",""space"",""space"",""space"",""space"",""space"",""space"",""space"",""space"",""space"",""space"",""space"",""space""]","[0.8009999999999877,1.502999999999986,2.0609999999999786,2.6539999999999964,3.3880000000000052,4.139999999999986,4.909999999999997,5.673000000000002,6.474999999999994,7.206999999999994,7.959000000000003,8.70999999999998,9.463999999999999,10.199999999999989,10.962999999999994,11.728999999999985,12.462999999999994,13.24799999999999,13.99799999999999,14.734999999999985,15.438999999999993]",space,1.219,0.0,2.0,2.0,1.0,1.0,block_2/strong_n_81_1.wav,no,n,strong,81.0,1.854905178,16.81653783,,,,Yes,Insignia Model:NS-CAHBTOE01 ,1,No,Male,61,Right,Yes,1,2020-10-05_08h31.10.554,kura-B1,2020.1.2,Win32,60,,,,,,,,,,,,,,,,,,,,,,,,
,,"[""space"",""space"",""space"",""space"",""space"",""space"",""space"",""space"",""space"",""space"",""space"",""space"",""space"",""space"",""space"",""space"",""space"",""space"",""space"",""space""]","[1.2069999999999936,1.7509999999999764,2.3349999999999795,3.0369999999999777,3.5369999999999777,4.192000000000007,5.005999999999972,5.72199999999998,6.341000000000008,6.959000000000003,7.646999999999991,8.293000000000006,9,9.62700000000001,10.350999999999999,10.911999999999978,11.545000000000016,12.149999999999977,12.817999999999984,13.480000000000018]",space,1.242,0.0,3.0,3.0,0.0,1.0,block_1/medium_t_92_2.wav,timbre,t,medium,92.0,1.17246814,14.21682188,,,,Yes,Insignia Model:NS-CAHBTOE01 ,1,No,Male,61,Right,Yes,1,2020-10-05_08h31.10.554,kura-B1,2020.1.2,Win32,60,,,,,,,,,,,,,,,,,,,,,,,,
,,,,,,,,,,,block_1/weak_t_72_2.wav,timbre,t,weak,72.0,1.186310873,16.45742198,,,,Yes,Insignia Model:NS-CAHBTOE01 ,1,No,Male,61,Right,Yes,1,2020-10-05_08h31.10.554,kura-B1,2020.1.2,Win32,60,space,5.381,"[""space"",""space"",""space"",""space"",""space"",""space"",""space"",""space"",""space"",""space"",""space"",""space"",""space"",""space"",""space"",""space"",""space"",""space"",""space"",""space"",""space"",""space"",""space"",""space"",""space"",""space"",""space"",""space"",""space"",""space"",""space"",""space"",""space"",""space"",""space"",""space"",""space"",""space"",""space"",""space""]","[0.5079999999999814,0.9189999999999827,1.358000000000004,2.075999999999965,2.836999999999989,3.020999999999958,3.4209999999999923,3.97199999999998,4.187999999999988,4.521999999999991,5.288999999999987,5.528999999999996,6.0569999999999595,6.389999999999986,6.923999999999978,7.092999999999961,7.579000000000008,7.745999999999981,7.914999999999964,8.575999999999965,8.74799999999999,8.926999999999964,9.26400000000001,9.425999999999988,9.993999999999971,10.177999999999997,10.361999999999966,10.829000000000008,10.995000000000005,11.699999999999989,11.902999999999963,12.067000000000007,12.486999999999966,12.65100000000001,13.214999999999975,13.798999999999978,13.979999999999961,14.786000000000001,14.981999999999971,15.524000000000001]",space,1.533,0.0,0.0,0.0,25.0,1.0,,,,,,,,,,,,,
,,,,,,,,,,,block_1/strong_t_92_1.wav,timbre,t,strong,92.0,1.394968876,12.52589858,,,,Yes,Insignia Model:NS-CAHBTOE01 ,1,No,Male,61,Right,Yes,1,2020-10-05_08h31.10.554,kura-B1,2020.1.2,Win32,60,,,"[""space"",""space"",""space"",""space"",""space"",""space"",""space"",""space"",""space"",""space"",""space"",""space"",""space"",""space"",""space"",""space"",""space"",""space"",""space"",""space""]","[0.7379999999999995,1.353999999999985,1.7869999999999777,2.326000000000022,2.9119999999999777,3.473000000000013,4.038999999999987,4.673999999999978,5.213000000000022,5.824000000000012,6.3589999999999804,6.975000000000023,7.541999999999973,8.11099999999999,8.725999999999999,9.230000000000018,9.815999999999974,10.399999999999977,11.052999999999997,11.581000000000017]",space,1.185,0.0,1.0,1.0,1.0,1.0,,,,,,,,,,,,,
,,,,,,,,,,,block_1/weak_t_105_1.wav,timbre,t,weak,105.0,1.816913882,14.30793429,,,,Yes,Insignia Model:NS-CAHBTOE01 ,1,No,Male,61,Right,Yes,1,2020-10-05_08h31.10.554,kura-B1,2020.1.2,Win32,60,,,"[""space"",""space"",""space"",""space"",""space"",""space"",""space"",""space"",""space"",""space"",""space"",""space"",""space"",""space"",""space"",""space"",""space"",""space"",""space"",""space"",""space"",""space"",""space"",""space""]","[0.5230000000000246,1.0360000000000014,1.5889999999999986,2.158999999999992,2.336999999999989,2.504000000000019,2.8210000000000264,2.9710000000000036,3.4780000000000086,4.0260000000000105,4.206999999999994,4.6580000000000155,5.2760000000000105,5.93100000000004,6.598000000000013,7.241000000000042,7.927000000000021,8.509999999999991,9.04400000000004,9.78000000000003,10.53000000000003,11.033000000000015,11.665999999999997,12.331000000000017]",space,2.67,0.0,2.0,2.0,0.0,1.0,,,,,,,,,,,,,
,,,,,,,,,,,block_1/medium_t_105_1.wav,timbre,t,medium,105.0,2.180706288,14.37050221,,,,Yes,Insignia Model:NS-CAHBTOE01 ,1,No,Male,61,Right,Yes,1,2020-10-05_08h31.10.554,kura-B1,2020.1.2,Win32,60,,,"[""space"",""space"",""space"",""space"",""space"",""space"",""space"",""space"",""space"",""space"",""space"",""space"",""space"",""space"",""space"",""space"",""space"",""space"",""space"",""space"",""space"",""space"",""space"",""space"",""space"",""space"",""space"",""space""]","[0.4900000000000091,1.134999999999991,1.625,2.2200000000000273,2.791999999999973,3.252999999999986,3.791999999999973,4.593000000000018,4.956000000000017,5.593000000000018,6.139999999999986,6.740000000000009,7.430000000000007,7.5919999999999845,8.041999999999973,8.644000000000005,8.843999999999994,9.343999999999994,9.514999999999986,9.982000000000028,10.163000000000011,10.331999999999994,10.61099999999999,11.211999999999989,11.386000000000024,11.579000000000008,11.870000000000005,12.531000000000006]",space,0.774,0.0,3.0,3.0,16.0,1.0,,,,,,,,,,,,,
,,,,,,,,,,,block_1/strong_t_72_2.wav,timbre,t,strong,72.0,2.307367753,17.72600721,,,,Yes,Insignia Model:NS-CAHBTOE01 ,1,No,Male,61,Right,Yes,1,2020-10-05_08h31.10.554,kura-B1,2020.1.2,Win32,60,,,"[""space"",""space"",""space"",""space"",""space"",""space"",""space"",""space"",""space"",""space"",""space"",""space"",""space"",""space"",""space"",""space"",""space"",""space"",""space"",""space""]","[0.8209999999999695,1.5529999999999973,2.4209999999999923,3.241999999999962,4.055000000000007,4.854999999999961,5.6229999999999905,6.440999999999974,7.228000000000009,8.044999999999959,8.800000000000011,9.658999999999992,10.411000000000001,11.18199999999996,12.044999999999959,12.779999999999973,13.920999999999992,14.282999999999959,15.081999999999994,15.914999999999964]",space,9.144,0.0,4.0,4.0,6.0,1.0,,,,,,,,,,,,,
,,,,,,,,,,,block_1/strong_t_105_1.wav,timbre,t,strong,105.0,1.984276879,14.42695262,,,,Yes,Insignia Model:NS-CAHBTOE01 ,1,No,Male,61,Right,Yes,1,2020-10-05_08h31.10.554,kura-B1,2020.1.2,Win32,60,,,"[""space"",""space"",""space"",""space"",""space"",""space"",""space"",""space"",""space"",""space"",""space"",""space"",""space"",""space"",""space"",""space"",""space"",""space"",""space"",""space""]","[0.8010000000000446,1.367999999999995,1.8690000000000282,2.5400000000000205,3.1860000000000355,3.8570000000000277,4.5090000000000146,5.124000000000024,5.7900000000000205,6.474000000000046,7.079000000000008,7.6580000000000155,8.325000000000045,8.925000000000011,9.626000000000033,10.245000000000005,10.861000000000047,11.562000000000012,12.196000000000026,12.863]",space,5.947,0.0,5.0,5.0,20.0,1.0,,,,,,,,,,,,,
,,,,,,,,,,,block_1/strong_t_81_2.wav,timbre,t,strong,81.0,1.680376519,15.8366577,,,,Yes,Insignia Model:NS-CAHBTOE01 ,1,No,Male,61,Right,Yes,1,2020-10-05_08h31.10.554,kura-B1,2020.1.2,Win32,60,,,"[""space"",""space"",""space"",""space"",""space"",""space"",""space"",""space"",""space"",""space"",""space"",""space"",""space"",""space"",""space"",""space"",""space"",""space"",""space"",""space"",""space""]","[0.3509999999999991,0.95799999999997,1.6399999999999864,2.3209999999999695,3.026999999999987,3.8249999999999886,4.555000000000007,5.260999999999967,6.007000000000005,6.692000000000007,7.361999999999966,8.10899999999998,8.90100000000001,9.62700000000001,10.313999999999965,11.000999999999976,11.736999999999966,12.466999999999985,13.182000000000016,13.914999999999964,14.632999999999981]",space,1.053,0.0,6.0,6.0,26.0,1.0,,,,,,,,,,,,,
,,,,,,,,,,,block_1/medium_t_92_2.wav,timbre,t,medium,92.0,2.140863801,15.18521754,,,,Yes,Insignia Model:NS-CAHBTOE01 ,1,No,Male,61,Right,Yes,1,2020-10-05_08h31.10.554,kura-B1,2020.1.2,Win32,60,,,"[""space"",""space"",""space"",""space"",""space"",""space"",""space"",""space"",""space"",""space"",""space"",""space"",""space"",""space"",""space"",""space"",""space"",""space"",""space"",""space"",""space"",""space"",""space"",""space"",""space"",""space"",""space"",""space""]","[0.4049999999999727,1.0600000000000023,1.2409999999999854,1.670000000000016,1.8199999999999932,2.375,2.4429999999999836,3.0249999999999773,3.1890000000000214,3.5879999999999654,3.7420000000000186,4.175000000000011,4.337999999999965,4.995999999999981,5.161999999999978,5.661999999999978,6.341000000000008,6.9950000000000045,7.6440000000000055,8.291999999999973,8.959000000000003,9.677999999999997,10.444999999999993,10.961000000000013,11.564000000000021,12.166999999999973,12.851999999999975,13.480999999999995]",space,0.774,0.0,7.0,7.0,32.0,1.0,,,,,,,,,,,,,
,,,,,,,,,,,block_1/medium_t_119_2.wav,timbre,t,medium,119.0,1.102065643,12.01802936,,,,Yes,Insignia Model:NS-CAHBTOE01 ,1,No,Male,61,Right,Yes,1,2020-10-05_08h31.10.554,kura-B1,2020.1.2,Win32,60,,,"[""space"",""space"",""space"",""space"",""space"",""space"",""space"",""space"",""space"",""space"",""space"",""space"",""space"",""space"",""space"",""space"",""space"",""space"",""space"",""space""]","[0.7169999999999845,1.98599999999999,2.63900000000001,3.2029999999999745,3.757000000000005,4.373999999999967,4.973000000000013,5.507999999999981,5.772999999999968,6.088999999999999,6.69399999999996,6.979999999999961,7.324999999999989,7.796999999999969,8.329000000000008,8.808999999999969,9.245999999999981,9.765999999999963,10.310999999999979,10.84499999999997]",space,0.802,0.0,8.0,8.0,38.0,1.0,,,,,,,,,,,,,
,,,,,,,,,,,block_1/medium_t_119_1.wav,timbre,t,medium,119.0,1.91338692,12.93819418,,,,Yes,Insignia Model:NS-CAHBTOE01 ,1,No,Male,61,Right,Yes,1,2020-10-05_08h31.10.554,kura-B1,2020.1.2,Win32,60,,,"[""space"",""space"",""space"",""space"",""space"",""space"",""space"",""space"",""space"",""space"",""space"",""space"",""space"",""space"",""space"",""space"",""space"",""space""]","[1.218999999999994,2.0570000000000164,2.8209999999999695,3.3039999999999736,3.86099999999999,4.4879999999999995,4.942000000000007,5.589999999999975,6.096000000000004,6.6410000000000196,7.192999999999984,7.725999999999999,8.692999999999984,9.262999999999977,9.810999999999979,10.34499999999997,10.879000000000019,11.399000000000001]",space,0.818,0.0,9.0,9.0,34.0,1.0,,,,,,,,,,,,,
,,,,,,,,,,,block_1/none_t_92_2.wav,timbre,t,none,92.0,1.89077586,18.43372371,,,,Yes,Insignia Model:NS-CAHBTOE01 ,1,No,Male,61,Right,Yes,1,2020-10-05_08h31.10.554,kura-B1,2020.1.2,Win32,60,,,"[""space"",""space"",""space"",""space"",""space"",""space"",""space"",""space"",""space"",""space"",""space"",""space"",""space"",""space"",""space"",""space"",""space"",""space"",""space"",""space"",""space"",""space"",""space"",""space"",""space"",""space"",""space"",""space"",""space"",""space"",""space"",""space"",""space"",""space"",""space"",""space""]","[0.6230000000000473,1.2930000000000064,1.79200000000003,2.757000000000005,3.5060000000000286,3.9890000000000327,4.407000000000039,5.057000000000016,5.744000000000028,6.0260000000000105,6.8840000000000146,7.444000000000017,7.9150000000000205,8.79400000000004,9.44500000000005,9.649000000000001,10.02800000000002,10.52800000000002,10.700000000000045,11.18100000000004,11.362000000000023,11.918000000000006,12.097000000000037,12.253000000000043,12.670000000000016,12.848000000000013,13.185000000000002,13.334000000000003,13.855000000000018,14.50200000000001,14.674000000000035,15.251000000000033,15.450000000000045,16.035000000000025,16.206000000000017,16.89100000000002]",space,0.719,0.0,10.0,10.0,18.0,1.0,,,,,,,,,,,,,
,,,,,,,,,,,block_1/medium_t_81_1.wav,timbre,t,medium,81.0,2.382699777,16.54165669,,,,Yes,Insignia Model:NS-CAHBTOE01 ,1,No,Male,61,Right,Yes,1,2020-10-05_08h31.10.554,kura-B1,2020.1.2,Win32,60,,,"[""space"",""space"",""space"",""space"",""space"",""space"",""space"",""space"",""space"",""space"",""space"",""space"",""space"",""space"",""space"",""space"",""space"",""space"",""space""]","[0.7529999999999859,1.3530000000000086,2.0219999999999914,2.788000000000011,3.540999999999997,4.262999999999977,5.022999999999968,5.774000000000001,6.680999999999983,7.265999999999963,8.044999999999959,8.776999999999987,9.478000000000009,10.233000000000004,10.961999999999989,11.699000000000012,12.462999999999965,13.218999999999994,13.882000000000005]",space,1.119,0.0,11.0,11.0,4.0,1.0,,,,,,,,,,,,,
,,,,,,,,,,,block_1/weak_t_72_1.wav,timbre,t,weak,72.0,1.20875322,18.28390061,,,,Yes,Insignia Model:NS-CAHBTOE01 ,1,No,Male,61,Right,Yes,1,2020-10-05_08h31.10.554,kura-B1,2020.1.2,Win32,60,,,"[""space"",""space"",""space"",""space"",""space"",""space"",""space"",""space"",""space"",""space"",""space"",""space"",""space"",""space"",""space"",""space"",""space"",""space"",""space"",""space"",""space"",""space"",""space"",""space"",""space"",""space"",""space"",""space""]","[0.7189999999999372,1.467999999999961,2.23599999999999,2.9879999999999427,3.838999999999942,4.822999999999979,5.772999999999911,6.573999999999955,7.223999999999933,7.908999999999992,8.430999999999926,9.045999999999935,9.77699999999993,10.765999999999963,11.580999999999904,12.128999999999905,12.59699999999998,13.346000000000004,14.038999999999987,14.231999999999971,14.788999999999987,14.986999999999966,15.14799999999991,15.636999999999944,16.13900000000001,16.507999999999925,16.72499999999991,17.485000000000014]",space,0.891,0.0,12.0,12.0,29.0,1.0,,,,,,,,,,,,,
,,,,,,,,,,,block_1/medium_t_92_1.wav,timbre,t,medium,92.0,2.038979261,15.74360511,,,,Yes,Insignia Model:NS-CAHBTOE01 ,1,No,Male,61,Right,Yes,1,2020-10-05_08h31.10.554,kura-B1,2020.1.2,Win32,60,,,"[""space"",""space"",""space"",""space"",""space"",""space"",""space"",""space"",""space"",""space"",""space"",""space"",""space"",""space"",""space"",""space"",""space"",""space"",""space"",""space""]","[0.5679999999999836,1.4879999999999427,2.1369999999999436,2.8199999999999363,3.575999999999908,4.274999999999977,5.079999999999927,5.740000000000009,6.473999999999933,7.156999999999925,7.807999999999993,8.576999999999998,9.260999999999967,9.926999999999907,10.627999999999929,11.378999999999905,12.05099999999993,12.728999999999928,13.447999999999979,14.097999999999956]",space,0.802,0.0,13.0,13.0,36.0,1.0,,,,,,,,,,,,,
,,,,,,,,,,,block_1/weak_t_119_1.wav,timbre,t,weak,119.0,1.96015814,12.2695459,,,,Yes,Insignia Model:NS-CAHBTOE01 ,1,No,Male,61,Right,Yes,1,2020-10-05_08h31.10.554,kura-B1,2020.1.2,Win32,60,,,"[""space"",""space"",""space"",""space"",""space"",""space"",""space"",""space"",""space"",""space"",""space"",""space"",""space"",""space"",""space"",""space"",""space"",""space"",""space"",""space"",""space""]","[0.5679999999999836,1.4689999999999372,2.286999999999921,3.269999999999982,3.658999999999992,4.058999999999969,4.570999999999913,4.891999999999939,5.287999999999897,5.722999999999956,6.122999999999934,6.639999999999986,7.079999999999927,7.546999999999912,8.057999999999993,8.681999999999903,9.126999999999953,9.509999999999991,9.843999999999937,10.180999999999926,10.611999999999966]",space,0.952,0.0,14.0,14.0,12.0,1.0,,,,,,,,,,,,,
,,,,,,,,,,,block_1/medium_t_72_1.wav,timbre,t,medium,72.0,1.564818535,18.8498072,,,,Yes,Insignia Model:NS-CAHBTOE01 ,1,No,Male,61,Right,Yes,1,2020-10-05_08h31.10.554,kura-B1,2020.1.2,Win32,60,,,"[""space"",""space"",""space"",""space"",""space"",""space"",""space"",""space"",""space"",""space"",""space"",""space"",""space"",""space"",""space"",""space"",""space"",""space"",""space"",""space""]","[0.8230000000000928,1.9260000000000446,2.7210000000000036,3.538000000000011,4.55600000000004,5.573000000000093,6.442999999999984,7.263000000000034,8.11099999999999,9.01400000000001,9.878000000000043,10.716999999999985,11.565000000000055,12.400000000000091,13.388000000000034,14.315000000000055,15.149000000000001,16.009000000000015,16.88600000000008,17.73700000000008]",space,1.286,0.0,15.0,15.0,24.0,1.0,,,,,,,,,,,,,
,,,,,,,,,,,block_1/strong_t_81_1.wav,timbre,t,strong,81.0,1.303718429,15.55909258,,,,Yes,Insignia Model:NS-CAHBTOE01 ,1,No,Male,61,Right,Yes,1,2020-10-05_08h31.10.554,kura-B1,2020.1.2,Win32,60,,,"[""space"",""space"",""space"",""space"",""space"",""space"",""space"",""space"",""space"",""space"",""space"",""space"",""space"",""space"",""space"",""space"",""space"",""space"",""space"",""space""]","[0.8859999999999673,1.8059999999999263,2.5189999999998918,3.252999999999929,4.011999999999944,4.77699999999993,5.489999999999895,6.209999999999923,6.86099999999999,7.626999999999953,8.327999999999975,9.01299999999992,9.74499999999989,10.444999999999936,11.178999999999974,11.852999999999952,12.597999999999956,13.386999999999944,14.06499999999994,14.781999999999925]",space,1.319,0.0,16.0,16.0,30.0,1.0,,,,,,,,,,,,,
,,,,,,,,,,,block_1/none_t_92_1.wav,timbre,t,none,92.0,2.134114385,14.96545225,,,,Yes,Insignia Model:NS-CAHBTOE01 ,1,No,Male,61,Right,Yes,1,2020-10-05_08h31.10.554,kura-B1,2020.1.2,Win32,60,,,"[""space"",""space"",""space"",""space"",""space"",""space"",""space"",""space"",""space"",""space"",""space"",""space"",""space"",""space"",""space"",""space"",""space"",""space"",""space"",""space"",""space"",""space"",""space"",""space"",""space"",""space"",""space"",""space"",""space"",""space"",""space"",""space"",""space"",""space"",""space""]","[0.73599999999999,1.5260000000000673,2.1440000000000055,3.0710000000000264,3.644999999999982,4.0610000000000355,4.224000000000046,4.55600000000004,4.807000000000016,5.264999999999986,5.458000000000084,5.958000000000084,6.609000000000037,7.125,7.293000000000006,7.627000000000066,7.798000000000002,8.177000000000021,8.34800000000007,8.697000000000003,8.86099999999999,9.286000000000058,9.451000000000022,9.801000000000045,9.966999999999985,10.329000000000065,10.513000000000034,11.09800000000007,11.267000000000053,11.629999999999995,11.812999999999988,12.297000000000025,12.464000000000055,12.882000000000062,13.065000000000055]",space,0.968,0.0,17.0,17.0,15.0,1.0,,,,,,,,,,,,,
,,,,,,,,,,,block_1/weak_t_81_1.wav,timbre,t,weak,81.0,1.734429931,16.79973605,,,,Yes,Insignia Model:NS-CAHBTOE01 ,1,No,Male,61,Right,Yes,1,2020-10-05_08h31.10.554,kura-B1,2020.1.2,Win32,60,,,"[""space"",""space"",""space"",""space"",""space"",""space"",""space"",""space"",""space"",""space"",""space"",""space"",""space"",""space"",""space"",""space"",""space"",""space"",""space""]","[0.9190000000000964,1.8070000000000164,2.491000000000099,3.1690000000000964,3.8190000000000737,4.571000000000026,5.38900000000001,6.289000000000101,7.108000000000061,7.925000000000068,8.595000000000027,9.31000000000006,10.177000000000021,10.883000000000038,11.597000000000094,12.363000000000056,13.246000000000095,14.018000000000029,14.881000000000085]",space,0.535,0.0,18.0,18.0,8.0,1.0,,,,,,,,,,,,,
,,,,,,,,,,,block_1/weak_t_81_2.wav,timbre,t,weak,81.0,1.961200407,15.36428431,,,,Yes,Insignia Model:NS-CAHBTOE01 ,1,No,Male,61,Right,Yes,1,2020-10-05_08h31.10.554,kura-B1,2020.1.2,Win32,60,,,"[""space"",""space"",""space"",""space"",""space"",""space"",""space"",""space"",""space"",""space"",""space"",""space"",""space"",""space"",""space"",""space"",""space"",""space"",""space"",""space"",""space"",""space"",""space"",""space"",""space"",""space"",""space"",""space"",""space"",""space"",""space"",""space""]","[0.5520000000000209,1.3870000000000573,2.1219999999999573,2.7380000000000564,3.4039999999999964,4.055000000000064,4.706999999999994,4.907000000000039,5.490000000000009,5.673999999999978,6.293000000000006,6.4909999999999854,7.073999999999955,7.241999999999962,7.7590000000000146,7.932999999999993,8.527000000000044,9.014999999999986,9.19399999999996,9.744000000000028,9.913999999999987,10.394000000000005,10.562999999999988,11.080000000000041,11.279999999999973,11.781000000000063,11.954000000000065,12.464000000000055,12.648000000000025,13.168000000000006,13.364000000000033,13.847999999999956]",space,0.556,0.0,19.0,19.0,5.0,1.0,,,,,,,,,,,,,
,,,,,,,,,,,block_1/medium_t_72_2.wav,timbre,t,medium,72.0,1.374562099,18.5083943,,,,Yes,Insignia Model:NS-CAHBTOE01 ,1,No,Male,61,Right,Yes,1,2020-10-05_08h31.10.554,kura-B1,2020.1.2,Win32,60,,,"[""space"",""space"",""space"",""space"",""space"",""space"",""space"",""space"",""space"",""space"",""space"",""space"",""space"",""space"",""space"",""space"",""space"",""space"",""space""]","[0.8220000000000027,1.6879999999999882,2.5529999999999973,3.4459999999999127,4.38900000000001,5.305999999999926,6.140999999999963,7.041999999999916,7.932999999999993,8.826000000000022,9.650999999999954,10.535999999999945,11.416999999999916,12.363999999999919,13.154999999999973,14.048000000000002,14.948999999999955,15.903999999999996,16.701999999999998]",space,0.718,0.0,20.0,20.0,28.0,1.0,,,,,,,,,,,,,
,,,,,,,,,,,block_1/strong_t_119_2.wav,timbre,t,strong,119.0,2.38266194,11.99749187,,,,Yes,Insignia Model:NS-CAHBTOE01 ,1,No,Male,61,Right,Yes,1,2020-10-05_08h31.10.554,kura-B1,2020.1.2,Win32,60,,,"[""space"",""space"",""space"",""space"",""space"",""space"",""space"",""space"",""space"",""space"",""space"",""space"",""space"",""space"",""space"",""space"",""space"",""space"",""space"",""space""]","[0.5679999999999836,1.134999999999991,1.6860000000000355,2.1720000000000255,2.6760000000000446,3.157000000000039,3.671000000000049,4.154999999999973,4.661000000000058,5.123000000000047,5.610000000000014,6.065000000000055,6.557000000000016,7.076000000000022,7.595000000000027,8.062999999999988,8.525999999999954,9.027000000000044,9.509999999999991,9.978000000000065]",space,0.884,0.0,21.0,21.0,31.0,1.0,,,,,,,,,,,,,
,,,,,,,,,,,block_1/weak_t_92_2.wav,timbre,t,weak,92.0,1.028761509,16.1946572,,,,Yes,Insignia Model:NS-CAHBTOE01 ,1,No,Male,61,Right,Yes,1,2020-10-05_08h31.10.554,kura-B1,2020.1.2,Win32,60,,,"[""space"",""space"",""space"",""space"",""space"",""space"",""space"",""space"",""space"",""space"",""space"",""space"",""space"",""space"",""space"",""space"",""space"",""space"",""space"",""space"",""space"",""space"",""space"",""space"",""space"",""space"",""space""]","[0.7689999999998918,1.002999999999929,1.5189999999998918,1.7089999999999463,2.3029999999999973,2.502999999999929,3.0379999999998972,3.2049999999999272,3.377999999999929,3.8719999999999573,4.038999999999987,4.639999999999986,4.793999999999983,5.406999999999925,6.139999999999986,6.974999999999909,7.764999999999986,8.592999999999961,9.362999999999943,10.093999999999937,10.947999999999979,11.715999999999894,12.463999999999942,13.246999999999957,14.120999999999981,14.851999999999975,15.598999999999933]",space,1.408,0.0,22.0,22.0,37.0,1.0,,,,,,,,,,,,,
,,,,,,,,,,,block_1/medium_t_81_2.wav,timbre,t,medium,81.0,1.849325936,17.01676358,,,,Yes,Insignia Model:NS-CAHBTOE01 ,1,No,Male,61,Right,Yes,1,2020-10-05_08h31.10.554,kura-B1,2020.1.2,Win32,60,,,"[""space"",""space"",""space"",""space"",""space"",""space"",""space"",""space"",""space"",""space"",""space"",""space"",""space"",""space"",""space"",""space"",""space"",""space"",""space"",""space"",""space""]","[0.5529999999999973,1.336999999999989,1.5539999999999736,2.1909999999999172,2.3729999999999336,3.05499999999995,3.8549999999999045,4.656999999999925,5.5079999999999245,6.157999999999902,6.962999999999965,7.763999999999896,8.549999999999955,9.283999999999992,10.077999999999975,10.918999999999983,11.733999999999924,12.580999999999904,13.370999999999981,14.1339999999999,14.916999999999916]",space,0.856,0.0,23.0,23.0,7.0,1.0,,,,,,,,,,,,,
,,,,,,,,,,,block_1/medium_t_105_2.wav,timbre,t,medium,105.0,2.138064486,12.91584226,,,,Yes,Insignia Model:NS-CAHBTOE01 ,1,No,Male,61,Right,Yes,1,2020-10-05_08h31.10.554,kura-B1,2020.1.2,Win32,60,,,"[""space"",""space"",""space"",""space"",""space"",""space"",""space"",""space"",""space"",""space"",""space"",""space"",""space"",""space"",""space"",""space"",""space"",""space"",""space"",""space""]","[0.4519999999999982,1.2700000000000955,1.7240000000000464,2.174000000000092,2.7760000000000673,3.310000000000059,3.8570000000000846,4.442000000000007,4.961000000000013,5.530000000000086,6.1299999999999955,6.708000000000084,7.230000000000018,7.778999999999996,8.349000000000046,8.943000000000097,9.54600000000005,10.062000000000012,10.628000000000043,11.214000000000055]",space,1.135,0.0,24.0,24.0,19.0,1.0,,,,,,,,,,,,,
,,,,,,,,,,,block_1/none_t_72_1.wav,timbre,t,none,72.0,2.370838854,21.3551926,,,,Yes,Insignia Model:NS-CAHBTOE01 ,1,No,Male,61,Right,Yes,1,2020-10-05_08h31.10.554,kura-B1,2020.1.2,Win32,60,,,"[""space"",""space"",""space"",""space"",""space"",""space"",""space"",""space"",""space"",""space"",""space"",""space"",""space"",""space"",""space"",""space"",""space"",""space"",""space"",""space"",""space"",""space"",""space"",""space"",""space"",""space"",""space"",""space"",""space"",""space"",""space"",""space"",""space"",""space"",""space"",""space"",""space"",""space"",""space"",""space"",""space"",""space"",""space"",""space"",""space"",""space"",""space"",""space"",""space"",""space"",""space"",""space"",""space"",""space"",""space"",""space"",""space"",""space"",""space"",""space"",""space"",""space"",""space"",""space"",""space"",""space"",""space"",""space"",""space"",""space"",""space"",""space"",""space"",""space"",""space"",""space"",""space"",""space"",""space""]","[0.6679999999998927,1.586999999999989,2.1909999999999172,3.0779999999999745,3.436999999999898,3.671999999999912,3.870999999999981,4.086999999999989,4.337999999999965,4.522999999999911,4.858999999999924,5.045999999999935,5.222999999999956,5.773999999999887,5.942999999999984,6.3559999999999945,6.495999999999981,6.689999999999941,7.2579999999999245,7.441999999999894,7.858999999999924,8.041999999999916,8.214999999999918,8.809999999999945,8.982999999999947,9.479999999999905,9.66199999999992,9.894999999999982,10.361999999999966,10.527999999999906,11.000999999999976,11.16199999999992,11.333999999999946,11.49499999999989,11.8839999999999,12.062999999999988,12.219999999999914,12.600999999999999,12.779999999999973,12.930999999999926,13.08299999999997,13.513999999999896,13.681999999999903,13.821999999999889,13.963999999999942,14.115999999999985,14.282999999999902,14.420999999999935,14.580999999999904,14.731999999999971,14.881999999999948,15.033999999999992,15.190999999999917,15.348999999999933,15.5,15.653999999999996,15.806999999999903,15.966999999999985,16.132999999999925,16.2829999999999,16.43399999999997,16.573999999999955,16.733999999999924,16.88799999999992,17.051999999999907,17.200999999999908,17.355999999999995,17.500999999999976,17.63499999999999,17.809999999999945,17.955999999999904,18.219999999999914,18.375999999999976,18.54099999999994,18.70399999999995,18.86999999999989,19.03699999999992,19.190999999999917,19.353999999999928]",space,0.586,0.0,25.0,25.0,23.0,1.0,,,,,,,,,,,,,
,,,,,,,,,,,block_1/strong_t_92_2.wav,timbre,t,strong,92.0,1.228007131,14.47607969,,,,Yes,Insignia Model:NS-CAHBTOE01 ,1,No,Male,61,Right,Yes,1,2020-10-05_08h31.10.554,kura-B1,2020.1.2,Win32,60,,,"[""space"",""space"",""space"",""space"",""space"",""space"",""space"",""space"",""space"",""space"",""space"",""space"",""space"",""space"",""space"",""space"",""space"",""space"",""space"",""space""]","[0.6850000000000591,1.539000000000101,2.187000000000012,2.854000000000042,3.5550000000000637,4.272000000000048,4.923000000000002,5.607000000000085,6.241000000000099,6.958000000000084,7.630000000000109,8.277000000000044,8.910000000000082,9.576000000000022,10.295000000000073,10.978000000000065,11.718000000000075,12.330000000000041,12.988000000000056,13.715000000000032]",space,1.068,0.0,26.0,26.0,3.0,1.0,,,,,,,,,,,,,
,,,,,,,,,,,block_1/none_t_81_2.wav,timbre,t,none,81.0,1.650015351,20.40348474,,,,Yes,Insignia Model:NS-CAHBTOE01 ,1,No,Male,61,Right,Yes,1,2020-10-05_08h31.10.554,kura-B1,2020.1.2,Win32,60,,,"[""space"",""space"",""space"",""space"",""space"",""space"",""space"",""space"",""space"",""space"",""space"",""space"",""space"",""space"",""space"",""space"",""space"",""space"",""space"",""space"",""space"",""space"",""space"",""space"",""space"",""space"",""space"",""space"",""space"",""space"",""space"",""space"",""space"",""space"",""space"",""space"",""space"",""space"",""space"",""space"",""space"",""space"",""space"",""space"",""space"",""space"",""space"",""space"",""space"",""space"",""space"",""space"",""space"",""space"",""space"",""space"",""space"",""space"",""space"",""space"",""space"",""space"",""space"",""space"",""space"",""space"",""space"",""space"",""space"",""space"",""space"",""space"",""space"",""space"",""space"",""space"",""space"",""space"",""space"",""space"",""space"",""space"",""space"",""space"",""space"",""space"",""space"",""space"",""space"",""space"",""space"",""space"",""space"",""space"",""space"",""space"",""space"",""space"",""space"",""space"",""space"",""space"",""space"",""space"",""space"",""space"",""space"",""space""]","[0.4919999999999618,0.8690000000000282,1.3029999999999973,1.5199999999999818,1.6900000000000546,1.875,2.0919999999999845,2.257000000000062,2.419999999999959,2.5550000000000637,2.8419999999999845,3.038000000000011,3.2380000000000564,3.4060000000000628,3.7899999999999636,3.9429999999999836,4.090000000000032,4.539999999999964,4.690000000000055,4.840000000000032,5.023000000000025,5.390999999999963,5.539999999999964,5.691000000000031,5.841000000000008,5.990000000000009,6.140999999999963,6.29200000000003,6.45900000000006,6.581000000000017,6.729000000000042,7.274999999999977,7.484000000000037,7.663000000000011,7.826000000000022,7.9809999999999945,8.130999999999972,8.293000000000006,8.460000000000036,8.610000000000014,8.813999999999965,8.975999999999999,9.125999999999976,9.268000000000029,9.399999999999977,9.547000000000025,9.701999999999998,9.869000000000028,10.017000000000053,10.164999999999964,10.329000000000065,10.461999999999989,10.619000000000028,10.767000000000053,10.894999999999982,11.044999999999959,11.196000000000026,11.345000000000027,11.485000000000014,11.630999999999972,11.784999999999968,11.93500000000006,12.081000000000017,12.216999999999985,12.380999999999972,12.531000000000063,12.68100000000004,12.831000000000017,12.980000000000018,13.134000000000015,13.287000000000035,13.43100000000004,13.581000000000017,13.735000000000014,13.887000000000057,14.023000000000025,14.182999999999993,14.299999999999955,14.438999999999965,14.58299999999997,14.733000000000061,14.883000000000038,15.019000000000005,15.288999999999987,15.451000000000022,15.616999999999962,15.783999999999992,15.93500000000006,16.072000000000003,16.225000000000023,16.384000000000015,16.534999999999968,16.687999999999988,16.822000000000003,16.985000000000014,17.152000000000044,17.31899999999996,17.470000000000027,17.635999999999967,17.791000000000054,17.951999999999998,18.120000000000005,18.286000000000058,18.436000000000035,18.537000000000035,18.70500000000004,18.87099999999998,19.052999999999997]",space,0.959,0.0,27.0,27.0,10.0,1.0,,,,,,,,,,,,,
,,,,,,,,,,,block_1/none_t_72_2.wav,timbre,t,none,72.0,1.436515358,19.69406638,,,,Yes,Insignia Model:NS-CAHBTOE01 ,1,No,Male,61,Right,Yes,1,2020-10-05_08h31.10.554,kura-B1,2020.1.2,Win32,60,,,"[""space"",""space"",""space"",""space"",""space"",""space"",""space"",""space"",""space"",""space"",""space"",""space"",""space"",""space"",""space"",""space"",""space"",""space"",""space"",""space"",""space"",""space"",""space"",""space"",""space"",""space"",""space"",""space"",""space"",""space"",""space"",""space"",""space"",""space"",""space"",""space"",""space""]","[0.56899999999996,1.177000000000021,1.836999999999989,2.038000000000011,2.6090000000000373,3.461999999999989,4.096000000000004,4.625999999999976,5.374000000000024,6.2450000000000045,7.078999999999951,8.061000000000035,8.996999999999957,9.317000000000007,9.596000000000004,9.946000000000026,10.447000000000003,11.129999999999995,11.480999999999995,11.647000000000048,12.137000000000057,12.331999999999994,12.782000000000039,13.331999999999994,13.773000000000025,13.951000000000022,14.120999999999981,14.581999999999994,15.201999999999998,15.406000000000063,15.751999999999953,16.225000000000023,16.436000000000035,17.201999999999998,17.770999999999958,17.95900000000006,18.120000000000005]",space,0.589,0.0,28.0,28.0,21.0,1.0,,,,,,,,,,,,,
,,,,,,,,,,,block_1/none_t_105_1.wav,timbre,t,none,105.0,1.828771861,15.95090338,,,,Yes,Insignia Model:NS-CAHBTOE01 ,1,No,Male,61,Right,Yes,1,2020-10-05_08h31.10.554,kura-B1,2020.1.2,Win32,60,,,"[""space"",""space"",""space"",""space"",""space"",""space"",""space"",""space"",""space"",""space"",""space"",""space"",""space"",""space"",""space"",""space"",""space"",""space"",""space"",""space"",""space"",""space"",""space"",""space"",""space"",""space"",""space"",""space"",""space"",""space"",""space"",""space"",""space"",""space"",""space"",""space"",""space"",""space"",""space""]","[0.8509999999999991,1.4689999999999372,2.04099999999994,2.29099999999994,2.856999999999971,3.407000000000039,4.44399999999996,4.925999999999931,5.126999999999953,5.437999999999988,6.011999999999944,6.572999999999979,6.807000000000016,7.2409999999999854,7.697000000000003,8.359000000000037,8.525999999999954,8.92599999999993,9.097999999999956,9.259000000000015,9.410999999999945,9.581000000000017,10.144000000000005,10.326999999999998,10.716000000000008,10.910999999999945,11.085000000000036,11.25,11.812000000000012,11.978999999999928,12.465000000000032,12.629999999999995,12.795999999999935,13.047000000000025,13.230000000000018,13.630999999999972,14.130999999999972,14.303999999999974,14.454999999999927]",space,0.602,0.0,29.0,29.0,17.0,1.0,,,,,,,,,,,,,
,,,,,,,,,,,block_1/weak_t_119_2.wav,timbre,t,weak,119.0,1.131621257,11.40046479,,,,Yes,Insignia Model:NS-CAHBTOE01 ,1,No,Male,61,Right,Yes,1,2020-10-05_08h31.10.554,kura-B1,2020.1.2,Win32,60,,,"[""space"",""space"",""space"",""space"",""space"",""space"",""space"",""space"",""space"",""space"",""space"",""space"",""space"",""space"",""space"",""space"",""space"",""space"",""space"",""space"",""space"",""space"",""space"",""space"",""space"",""space"",""space""]","[0.5580000000001064,1.2220000000000937,1.636000000000081,1.7930000000000064,1.9700000000000273,2.104000000000042,2.605000000000018,2.7730000000000246,3.122000000000071,3.2910000000000537,3.688000000000102,3.855000000000018,4.238000000000056,4.4220000000000255,4.763000000000034,5.107000000000085,5.55600000000004,6.024000000000001,6.479000000000042,6.94500000000005,7.475999999999999,7.982000000000085,8.527000000000044,9.013000000000034,9.561000000000035,10.096000000000004,10.551000000000045]",space,0.719,0.0,30.0,30.0,13.0,1.0,,,,,,,,,,,,,
,,,,,,,,,,,block_1/weak_t_105_2.wav,timbre,t,weak,105.0,2.298632362,16.24153486,,,,Yes,Insignia Model:NS-CAHBTOE01 ,1,No,Male,61,Right,Yes,1,2020-10-05_08h31.10.554,kura-B1,2020.1.2,Win32,60,,,"[""space"",""space"",""space"",""space"",""space"",""space"",""space"",""space"",""space"",""space"",""space"",""space"",""space"",""space"",""space"",""space"",""space"",""space"",""space"",""space"",""space"",""space""]","[0.5879999999999654,1.2520000000000664,1.9540000000000646,2.52800000000002,3.27800000000002,3.9260000000000446,4.706999999999994,5.4780000000000655,6.243000000000052,6.427999999999997,6.831000000000017,7.026000000000067,7.430000000000064,7.878000000000043,8.375999999999976,9.076999999999998,9.884000000000015,10.498000000000047,11.245999999999981,11.880999999999972,12.952999999999975,13.889999999999986]",space,0.735,0.0,31.0,31.0,2.0,1.0,,,,,,,,,,,,,
,,,,,,,,,,,block_1/none_t_81_1.wav,timbre,t,none,81.0,1.412848736,15.74926597,,,,Yes,Insignia Model:NS-CAHBTOE01 ,1,No,Male,61,Right,Yes,1,2020-10-05_08h31.10.554,kura-B1,2020.1.2,Win32,60,,,"[""space"",""space"",""space"",""space"",""space"",""space"",""space"",""space"",""space"",""space"",""space"",""space"",""space"",""space"",""space"",""space"",""space"",""space"",""space"",""space"",""space"",""space"",""space"",""space"",""space"",""space"",""space"",""space"",""space"",""space"",""space"",""space"",""space"",""space"",""space"",""space"",""space"",""space"",""space"",""space"",""space"",""space"",""space"",""space"",""space""]","[0.5209999999999582,1.22199999999998,1.7039999999999509,2.238999999999919,2.7590000000000146,2.9549999999999272,3.1219999999999573,3.5960000000000036,3.7939999999999827,4.105000000000018,4.379000000000019,4.573999999999955,4.9249999999999545,5.1059999999999945,5.26299999999992,5.639999999999986,5.826999999999998,6.01299999999992,6.308999999999969,6.4909999999999854,7.060999999999922,7.560999999999922,7.725999999999999,7.908999999999992,8.398000000000025,8.565999999999917,8.76400000000001,9.163000000000011,9.342999999999961,9.81499999999994,9.980000000000018,10.146999999999935,10.511999999999944,10.80099999999993,11.163000000000011,11.480000000000018,11.663999999999987,11.964999999999918,12.216999999999985,12.752999999999929,12.935999999999922,13.31499999999994,13.648000000000025,14.302000000000021,14.499000000000024]",space,0.953,0.0,32.0,32.0,11.0,1.0,,,,,,,,,,,,,
,,,,,,,,,,,block_1/none_t_119_1.wav,timbre,t,none,119.0,1.970403652,15.3319456,,,,Yes,Insignia Model:NS-CAHBTOE01 ,1,No,Male,61,Right,Yes,1,2020-10-05_08h31.10.554,kura-B1,2020.1.2,Win32,60,,,"[""space"",""space"",""space"",""space"",""space"",""space"",""space"",""space"",""space"",""space"",""space"",""space"",""space"",""space"",""space"",""space"",""space"",""space"",""space"",""space"",""space"",""space"",""space"",""space"",""space"",""space"",""space"",""space"",""space"",""space"",""space"",""space"",""space"",""space"",""space"",""space"",""space"",""space"",""space"",""space"",""space"",""space"",""space"",""space"",""space"",""space"",""space"",""space"",""space"",""space"",""space"",""space"",""space"",""space"",""space"",""space"",""space""]","[0.58400000000006,0.9500000000000455,1.2350000000000136,1.6850000000000591,1.9380000000001019,2.2060000000000173,2.5030000000000427,2.8370000000001028,3.1200000000000045,3.5060000000000855,4.246000000000095,4.608000000000061,4.94500000000005,5.128000000000043,5.273000000000025,5.525000000000091,5.79200000000003,5.990000000000009,6.340000000000032,6.513000000000034,6.759999999999991,6.924000000000092,7.062000000000012,7.215000000000032,7.365000000000009,7.525000000000091,7.677000000000021,7.841000000000008,7.991000000000099,8.125,8.275000000000091,8.427000000000021,8.693000000000097,8.850000000000023,9.009000000000015,9.158999999999992,9.313000000000102,9.578000000000088,9.733000000000061,10.064000000000078,10.22700000000009,10.384999999999991,10.52800000000002,10.864000000000033,11.061000000000035,11.245000000000005,11.432000000000016,11.766000000000076,11.96300000000008,12.120000000000005,12.286000000000058,12.649000000000001,12.85200000000009,13.030000000000086,13.215000000000032,13.565000000000055,13.819000000000074]",space,0.001,0.0,33.0,33.0,39.0,1.0,,,,,,,,,,,,,
,,,,,,,,,,,block_1/none_t_105_2.wav,timbre,t,none,105.0,1.938353853,15.01835385,,,,Yes,Insignia Model:NS-CAHBTOE01 ,1,No,Male,61,Right,Yes,1,2020-10-05_08h31.10.554,kura-B1,2020.1.2,Win32,60,,,"[""space"",""space"",""space"",""space"",""space"",""space"",""space"",""space"",""space"",""space"",""space"",""space"",""space"",""space"",""space"",""space"",""space"",""space"",""space"",""space"",""space"",""space"",""space"",""space"",""space"",""space"",""space"",""space"",""space"",""space"",""space"",""space"",""space"",""space"",""space"",""space"",""space"",""space"",""space"",""space"",""space"",""space"",""space"",""space"",""space""]","[0.6400000000001,0.9020000000000437,1.1020000000000891,1.268000000000029,1.66700000000003,1.8430000000000746,2.1590000000001055,2.47300000000007,2.6240000000000236,2.9360000000000355,3.119000000000028,3.4200000000000728,3.6400000000001,3.975999999999999,4.171000000000049,4.544000000000096,4.939000000000078,5.1720000000000255,5.606000000000108,5.823000000000093,6.22300000000007,6.47300000000007,6.660000000000082,6.849000000000046,7.308000000000106,7.474000000000046,7.9090000000001055,8.061000000000035,8.2650000000001,8.478000000000065,8.97700000000009,9.22700000000009,9.617000000000075,10.068000000000097,10.644000000000005,10.845000000000027,11.135000000000105,11.568000000000097,11.746000000000095,12.080000000000041,12.295000000000073,12.545000000000073,12.769000000000005,13.151000000000067,13.347000000000094]",space,1.769,0.0,34.0,34.0,14.0,1.0,,,,,,,,,,,,,
,,,,,,,,,,,block_1/weak_t_92_1.wav,timbre,t,weak,92.0,1.851617747,15.24780822,,,,Yes,Insignia Model:NS-CAHBTOE01 ,1,No,Male,61,Right,Yes,1,2020-10-05_08h31.10.554,kura-B1,2020.1.2,Win32,60,,,"[""space"",""space"",""space"",""space"",""space"",""space"",""space"",""space"",""space"",""space"",""space"",""space"",""space"",""space"",""space"",""space"",""space"",""space"",""space"",""space""]","[0.6430000000000291,1.1580000000000155,1.9389999999999645,2.5579999999999927,3.1949999999999363,3.9039999999999964,4.6059999999999945,5.307000000000016,5.961000000000013,6.558999999999969,7.213999999999942,7.893000000000029,8.643000000000029,9.283000000000015,9.910999999999945,10.543999999999983,11.229000000000042,11.913000000000011,12.600000000000023,13.216999999999985]",space,0.636,0.0,35.0,35.0,33.0,1.0,,,,,,,,,,,,,
,,,,,,,,,,,block_1/strong_t_119_1.wav,timbre,t,strong,119.0,2.009888221,11.97709911,,,,Yes,Insignia Model:NS-CAHBTOE01 ,1,No,Male,61,Right,Yes,1,2020-10-05_08h31.10.554,kura-B1,2020.1.2,Win32,60,,,"[""space"",""space"",""space"",""space"",""space"",""space"",""space"",""space"",""space"",""space"",""space"",""space"",""space"",""space"",""space"",""space"",""space"",""space"",""space"",""space"",""space""]","[0.5860000000000127,0.97199999999998,1.3260000000000218,1.8079999999999927,2.2760000000000673,2.8220000000000027,3.338000000000079,3.8390000000000555,4.322999999999979,4.822999999999979,5.328000000000088,5.826999999999998,6.34699999999998,6.843000000000075,7.346000000000004,7.846000000000004,8.344000000000051,8.860000000000014,9.349000000000046,9.844000000000051,10.353000000000065]",space,1.07,0.0,36.0,36.0,27.0,1.0,,,,,,,,,,,,,
,,,,,,,,,,,block_1/strong_t_105_2.wav,timbre,t,strong,105.0,1.268100708,12.09472202,,,,Yes,Insignia Model:NS-CAHBTOE01 ,1,No,Male,61,Right,Yes,1,2020-10-05_08h31.10.554,kura-B1,2020.1.2,Win32,60,,,"[""space"",""space"",""space"",""space"",""space"",""space"",""space"",""space"",""space"",""space"",""space"",""space"",""space"",""space"",""space"",""space"",""space"",""space"",""space"",""space""]","[0.5199999999999818,1.1700000000000728,1.8079999999999927,2.3870000000000573,2.94399999999996,3.508000000000038,4.058999999999969,4.6059999999999945,5.173999999999978,5.690000000000055,6.258000000000038,6.8419999999999845,7.326999999999998,7.875,8.433999999999969,9.012000000000057,9.509999999999991,10.111999999999966,10.678999999999974,11.252000000000066]",space,0.985,0.0,37.0,37.0,22.0,1.0,,,,,,,,,,,,,
,,,,,,,,,,,block_1/none_t_119_2.wav,timbre,t,none,119.0,1.154672461,11.7267813,,,,Yes,Insignia Model:NS-CAHBTOE01 ,1,No,Male,61,Right,Yes,1,2020-10-05_08h31.10.554,kura-B1,2020.1.2,Win32,60,,,"[""space"",""space"",""space"",""space"",""space"",""space"",""space"",""space"",""space"",""space"",""space"",""space"",""space"",""space"",""space"",""space"",""space"",""space"",""space"",""space"",""space"",""space"",""space"",""space"",""space"",""space"",""space"",""space"",""space"",""space""]","[0.875,1.65300000000002,1.8769999999999527,2.504000000000019,2.7229999999999563,3.086999999999989,3.288000000000011,3.63799999999992,4.05499999999995,4.238999999999919,4.746999999999957,4.940999999999917,5.125999999999976,5.490000000000009,5.678999999999974,6.025999999999954,6.607999999999947,6.761999999999944,7.2409999999999854,7.54099999999994,7.861999999999966,8.192000000000007,8.626999999999953,8.826999999999998,9.232999999999947,9.427000000000021,9.802000000000021,9.977999999999952,10.16199999999992,10.544999999999959]",space,1.305,0.0,38.0,38.0,35.0,1.0,,,,,,,,,,,,,
,,,,,,,,,,,block_1/strong_t_72_1.wav,timbre,t,strong,72.0,2.410899129,18.9853209,,,,Yes,Insignia Model:NS-CAHBTOE01 ,1,No,Male,61,Right,Yes,1,2020-10-05_08h31.10.554,kura-B1,2020.1.2,Win32,60,,,"[""space"",""space"",""space"",""space"",""space"",""space"",""space"",""space"",""space"",""space"",""space"",""space"",""space"",""space"",""space"",""space"",""space"",""space"",""space"",""space""]","[1.20900000000006,2.258000000000038,3.086999999999989,3.9220000000000255,4.788999999999987,5.572999999999979,6.390999999999963,7.114000000000033,8.182000000000016,8.933999999999969,9.696000000000026,10.513000000000034,11.349000000000046,12.130999999999972,13.003000000000043,13.869000000000028,14.649000000000001,15.466000000000008,16.33400000000006,17.119000000000028]",space,0.851,0.0,39.0,39.0,9.0,1.0,,,,,,,,,,,,,
,,,,,,,,,,,block_2/medium_n_81_2.wav,no,n,medium,81.0,1.533387433,15.23592712,,,,Yes,Insignia Model:NS-CAHBTOE01 ,1,No,Male,61,Right,Yes,1,2020-10-05_08h31.10.554,kura-B1,2020.1.2,Win32,60,,,,,,,,,,,,space,33.083,"[""space"",""space"",""space"",""space"",""space"",""space"",""space"",""space"",""space"",""space"",""space"",""space"",""space"",""space"",""space"",""space"",""space"",""space"",""space""]","[0.7350000000001273,1.553000000000111,2.255000000000109,2.9880000000000564,3.6590000000001055,4.379000000000133,5.1400000000001,5.725000000000136,6.442999999999984,7.259999999999991,7.91599999999994,8.562000000000126,9.295000000000073,10.011999999999944,10.663000000000011,11.384000000000015,12.080000000000155,12.769000000000005,13.463999999999942]",space,0.916,0.0,0.0,0.0,34.0,1.0,,
,,,,,,,,,,,block_2/none_n_72_2.wav,no,n,none,72.0,1.244195676,23.89829998,,,,Yes,Insignia Model:NS-CAHBTOE01 ,1,No,Male,61,Right,Yes,1,2020-10-05_08h31.10.554,kura-B1,2020.1.2,Win32,60,,,,,,,,,,,,,,"[""space"",""space"",""space"",""space"",""space"",""space"",""space"",""space"",""space"",""space"",""space"",""space"",""space"",""space"",""space"",""space"",""space"",""space"",""space"",""space"",""space"",""space"",""space"",""space"",""space"",""space"",""space"",""space"",""space"",""space"",""space"",""space"",""space"",""space"",""space"",""space"",""space"",""space"",""space"",""space"",""space"",""space"",""space"",""space"",""space"",""space"",""space"",""space"",""space"",""space"",""space"",""space"",""space"",""space"",""space"",""space"",""space"",""space"",""space"",""space"",""space"",""space"",""space"",""space"",""space"",""space"",""space"",""space""]","[0.7180000000000746,1.2180000000000746,1.759999999999991,2.7029999999999745,3.0260000000000673,3.8099999999999454,4.025000000000091,4.428000000000111,4.623000000000047,5.358999999999924,5.544000000000096,6.324000000000069,6.923000000000002,7.557999999999993,7.758000000000038,8.192000000000007,8.476000000000113,8.792999999999893,8.960000000000036,9.126999999999953,9.358999999999924,9.714999999999918,9.911000000000058,10.43100000000004,10.614000000000033,10.817000000000007,11.027000000000044,11.317000000000007,11.498000000000047,11.928000000000111,12.363000000000056,12.547000000000025,12.704999999999927,13.036000000000058,13.430000000000064,13.788000000000011,13.951000000000022,14.163999999999987,14.464999999999918,14.682999999999993,15.182000000000016,15.36999999999989,15.532999999999902,15.81899999999996,16.133000000000038,16.299999999999955,16.66599999999994,16.84999999999991,17.017000000000053,17.18399999999997,17.371000000000095,17.718000000000075,17.989000000000033,18.47499999999991,18.92100000000005,19.144000000000005,19.287000000000035,20.075000000000045,20.294000000000096,20.47199999999998,20.661000000000058,21.077999999999975,21.355000000000018,21.659000000000106,21.837999999999965,22.256000000000085,22.439000000000078,22.811999999999898]",space,0.836,0.0,1.0,1.0,16.0,1.0,,
,,,,,,,,,,,block_2/medium_n_105_1.wav,no,n,medium,105.0,1.976395362,15.17435455,,,,Yes,Insignia Model:NS-CAHBTOE01 ,1,No,Male,61,Right,Yes,1,2020-10-05_08h31.10.554,kura-B1,2020.1.2,Win32,60,,,,,,,,,,,,,,"[""space"",""space"",""space"",""space"",""space"",""space"",""space"",""space"",""space"",""space"",""space"",""space"",""space"",""space"",""space"",""space"",""space"",""space"",""space"",""space"",""space"",""space""]","[0.6239999999997963,1.2559999999998581,1.502999999999929,1.9099999999998545,2.1079999999999472,2.5699999999999363,3.1059999999999945,3.7719999999999345,4.38799999999992,5.026999999999816,5.608999999999924,6.1469999999999345,6.807999999999993,7.357999999999947,7.981999999999971,8.680999999999813,9.476999999999862,10.211999999999989,10.898999999999887,11.527999999999793,12.21699999999987,12.987999999999829]",space,0.769,0.0,2.0,2.0,7.0,1.0,,
,,,,,,,,,,,block_2/medium_n_92_1.wav,no,n,medium,92.0,1.88300721,17.00042218,,,,Yes,Insignia Model:NS-CAHBTOE01 ,1,No,Male,61,Right,Yes,1,2020-10-05_08h31.10.554,kura-B1,2020.1.2,Win32,60,,,,,,,,,,,,,,"[""space"",""space"",""space"",""space"",""space"",""space"",""space"",""space"",""space"",""space"",""space"",""space"",""space"",""space"",""space"",""space"",""space"",""space"",""space"",""space"",""space"",""space"",""space"",""space"",""space"",""space"",""space"",""space"",""space"",""space"",""space"",""space"",""space"",""space"",""space"",""space""]","[1.0699999999999363,1.4369999999998981,2.1420000000000528,2.9090000000001055,3.0879999999999654,3.772999999999911,3.9400000000000546,4.589999999999918,4.7409999999999854,5.260999999999967,5.423999999999978,6.089999999999918,6.241999999999962,6.842000000000098,6.9939999999999145,7.582000000000107,7.742999999999938,8.394000000000005,8.545000000000073,9.176999999999907,9.347999999999956,9.926999999999907,10.11200000000008,10.761999999999944,10.932999999999993,11.582000000000107,11.76299999999992,12.386999999999944,12.549999999999955,13.134999999999991,13.31899999999996,13.482999999999947,13.964999999999918,14.13799999999992,14.771999999999935,14.94900000000007]",space,0.8,0.0,3.0,3.0,5.0,1.0,,
,,,,,,,,,,,block_2/medium_n_92_2.wav,no,n,medium,92.0,1.042358962,12.57945647,,,,Yes,Insignia Model:NS-CAHBTOE01 ,1,No,Male,61,Right,Yes,1,2020-10-05_08h31.10.554,kura-B1,2020.1.2,Win32,60,,,,,,,,,,,,,,"[""space"",""space"",""space"",""space"",""space"",""space"",""space"",""space"",""space"",""space"",""space"",""space"",""space"",""space"",""space"",""space"",""space"",""space"",""space"",""space"",""space"",""space""]","[0.6179999999999382,1.134999999999991,1.6699999999998454,2.270999999999958,2.836999999999989,3.4579999999998563,4.028999999999996,4.673000000000002,5.155999999999949,5.7970000000000255,6.430999999999813,7.04099999999994,7.582999999999856,8.242999999999938,8.913000000000011,9.476999999999862,10.161999999999807,10.327999999999975,10.761999999999944,10.91599999999994,11.366999999999962,11.980000000000018]",space,0.655,0.0,4.0,4.0,1.0,1.0,,
,,,,,,,,,,,block_2/weak_n_105_1.wav,no,n,weak,105.0,2.307975641,12.32461963,,,,Yes,Insignia Model:NS-CAHBTOE01 ,1,No,Male,61,Right,Yes,1,2020-10-05_08h31.10.554,kura-B1,2020.1.2,Win32,60,,,,,,,,,,,,,,"[""space"",""space"",""space"",""space"",""space"",""space"",""space"",""space"",""space"",""space"",""space"",""space"",""space"",""space"",""space"",""space"",""space"",""space"",""space"",""space"",""space""]","[0.6029999999998381,1.224999999999909,1.6699999999998454,2.0909999999998945,2.5429999999998927,3.060999999999922,3.5549999999998363,4.038999999999987,4.489000000000033,4.923000000000002,5.439999999999827,5.973999999999933,6.45699999999988,6.8940000000000055,7.375999999999976,7.844000000000051,8.376999999999953,8.875999999999976,9.327999999999975,9.827999999999975,10.332999999999856]",space,0.774,0.0,5.0,5.0,27.0,1.0,,
,,,,,,,,,,,block_2/none_n_92_1.wav,no,n,none,92.0,1.273053946,17.86126256,,,,Yes,Insignia Model:NS-CAHBTOE01 ,1,No,Male,61,Right,Yes,1,2020-10-05_08h31.10.554,kura-B1,2020.1.2,Win32,60,,,,,,,,,,,,,,"[""space"",""space"",""space"",""space"",""space"",""space"",""space"",""space"",""space"",""space"",""space"",""space"",""space"",""space"",""space"",""space"",""space"",""space"",""space"",""space"",""space"",""space"",""space"",""space"",""space"",""space"",""space"",""space"",""space"",""space"",""space"",""space"",""space"",""space"",""space"",""space"",""space"",""space"",""space"",""space"",""space"",""space"",""space"",""space"",""space"",""space"",""space"",""space"",""space"",""space"",""space"",""space"",""space"",""space"",""space"",""space"",""space"",""space"",""space"",""space"",""space"",""space"",""space"",""space"",""space"",""space""]","[0.6740000000002055,1.268000000000029,1.4380000000001019,1.7380000000000564,2.2530000000001564,2.4190000000000964,2.7040000000001783,2.8580000000001746,3.3220000000001164,3.6210000000000946,3.824000000000069,3.9780000000000655,4.272000000000162,4.456000000000131,4.6059999999999945,4.888000000000147,5.040000000000191,5.442000000000007,5.6059999999999945,5.960000000000036,6.12700000000018,6.440000000000055,6.596000000000004,6.758000000000038,6.97400000000016,7.164000000000215,7.357000000000198,7.541000000000167,7.948000000000093,8.108000000000175,8.393000000000029,8.542000000000144,8.692000000000007,8.95900000000006,9.393000000000029,9.54300000000012,9.79300000000012,9.976000000000113,10.200000000000045,10.37700000000018,10.711000000000013,10.878000000000156,11.195000000000164,11.345000000000027,11.498000000000047,11.831000000000131,12.148000000000138,12.44600000000014,12.614000000000033,12.94600000000014,13.164000000000215,13.354000000000042,13.631000000000085,13.815000000000055,13.980999999999995,14.230000000000018,14.485000000000127,14.75,15.28300000000013,15.466000000000122,15.605000000000018,15.934000000000196,16.086000000000013,16.451999999999998,16.58900000000017,16.889000000000124]",space,0.836,0.0,6.0,6.0,20.0,1.0,,
,,,,,,,,,,,block_2/medium_n_119_1.wav,no,n,medium,119.0,1.010172499,10.57697522,,,,Yes,Insignia Model:NS-CAHBTOE01 ,1,No,Male,61,Right,Yes,1,2020-10-05_08h31.10.554,kura-B1,2020.1.2,Win32,60,,,,,,,,,,,,,,"[""space"",""space"",""space"",""space"",""space"",""space"",""space"",""space"",""space"",""space"",""space"",""space"",""space"",""space"",""space"",""space"",""space"",""space"",""space""]","[0.6020000000000891,1.1739999999999782,1.6400000000001,2.036000000000058,2.4729999999999563,2.953999999999951,3.438000000000102,3.939000000000078,4.389000000000124,4.942999999999984,5.405999999999949,5.94399999999996,6.378000000000156,6.929000000000087,7.391000000000076,7.892000000000053,8.392000000000053,8.897000000000162,9.428000000000111]",space,0.936,0.0,7.0,7.0,24.0,1.0,,
,,,,,,,,,,,block_2/strong_n_92_1.wav,no,n,strong,92.0,2.132496366,14.62065963,,,,Yes,Insignia Model:NS-CAHBTOE01 ,1,No,Male,61,Right,Yes,1,2020-10-05_08h31.10.554,kura-B1,2020.1.2,Win32,60,,,,,,,,,,,,,,"[""space"",""space"",""space"",""space"",""space"",""space"",""space"",""space"",""space"",""space"",""space"",""space"",""space"",""space"",""space"",""space"",""space"",""space"",""space"",""space""]","[1.0679999999999836,1.7539999999999054,2.436999999999898,3.036999999999807,3.6389999999998963,4.276999999999816,4.906999999999925,5.5759999999997945,6.125,6.724999999999909,7.360999999999876,7.995999999999867,8.558999999999969,9.208999999999833,9.8449999999998,10.448999999999842,11.061999999999898,11.648999999999887,12.312999999999874,12.913999999999987]",space,0.774,0.0,8.0,8.0,37.0,1.0,,
,,,,,,,,,,,block_2/weak_n_92_1.wav,no,n,weak,92.0,1.493156661,15.23787321,,,,Yes,Insignia Model:NS-CAHBTOE01 ,1,No,Male,61,Right,Yes,1,2020-10-05_08h31.10.554,kura-B1,2020.1.2,Win32,60,,,,,,,,,,,,,,"[""space"",""space"",""space"",""space"",""space"",""space"",""space"",""space"",""space"",""space"",""space"",""space"",""space"",""space"",""space"",""space"",""space"",""space"",""space"",""space"",""space"",""space"",""space"",""space"",""space"",""space"",""space"",""space"",""space"",""space"",""space"",""space"",""space"",""space"",""space"",""space"",""space"",""space"",""space""]","[0.6920000000000073,1.1210000000000946,1.3109999999999218,1.65300000000002,2.2870000000000346,2.4600000000000364,2.9750000000001364,3.1390000000001237,3.588999999999942,4.155999999999949,4.357999999999947,4.8250000000000455,5.4780000000000655,5.648000000000138,6.179000000000087,6.345000000000027,6.908000000000129,7.059999999999945,7.54300000000012,7.699000000000069,8.179000000000087,8.326000000000022,8.784000000000106,8.932000000000016,9.482999999999947,9.651000000000067,10.13000000000011,10.295000000000073,10.814000000000078,10.964999999999918,11.479000000000042,11.65300000000002,12.219000000000051,12.366999999999962,12.81899999999996,12.963999999999942,13.452999999999975,13.632000000000062,13.788000000000011]",space,1.52,0.0,9.0,9.0,2.0,1.0,,
,,,,,,,,,,,block_2/weak_n_92_2.wav,no,n,weak,92.0,1.908793764,14.14589127,,,,Yes,Insignia Model:NS-CAHBTOE01 ,1,No,Male,61,Right,Yes,1,2020-10-05_08h31.10.554,kura-B1,2020.1.2,Win32,60,,,,,,,,,,,,,,"[""space"",""space"",""space"",""space"",""space"",""space"",""space"",""space"",""space"",""space"",""space"",""space"",""space"",""space"",""space"",""space"",""space"",""space"",""space"",""space"",""space""]","[0.7019999999999982,1.0850000000000364,1.7550000000001091,2.286000000000058,2.8880000000001473,3.520000000000209,4.1720000000000255,4.745000000000118,5.445000000000164,5.923000000000002,6.5090000000000146,7.142000000000053,7.698000000000093,8.382000000000062,8.966000000000122,9.578000000000202,10.267000000000053,10.78300000000013,11.398000000000138,12.063000000000102,12.680000000000064]",space,0.92,0.0,10.0,10.0,6.0,1.0,,
,,,,,,,,,,,block_2/none_n_81_1.wav,no,n,none,81.0,1.160099605,17.42268464,,,,Yes,Insignia Model:NS-CAHBTOE01 ,1,No,Male,61,Right,Yes,1,2020-10-05_08h31.10.554,kura-B1,2020.1.2,Win32,60,,,,,,,,,,,,,,"[""space"",""space"",""space"",""space"",""space"",""space"",""space"",""space"",""space"",""space"",""space"",""space"",""space"",""space"",""space"",""space"",""space"",""space"",""space"",""space"",""space"",""space"",""space"",""space"",""space"",""space"",""space"",""space"",""space"",""space"",""space"",""space"",""space"",""space"",""space"",""space"",""space"",""space"",""space"",""space"",""space"",""space"",""space"",""space"",""space"",""space"",""space"",""space"",""space"",""space"",""space"",""space"",""space""]","[0.8369999999999891,1.3859999999999673,1.9369999999998981,2.203999999999951,2.6039999999998145,2.772999999999911,2.9449999999999363,3.140999999999849,3.47199999999998,3.6219999999998436,3.9889999999998054,4.144999999999982,4.321999999999889,4.660999999999831,5.111999999999853,5.288999999999987,5.529999999999973,5.70699999999988,6.043999999999869,6.192999999999984,6.362999999999829,6.6909999999998035,7.158999999999878,7.375999999999976,7.625999999999976,7.94399999999996,8.265999999999849,8.91099999999983,9.426999999999907,9.764999999999873,9.961000000000013,10.27800000000002,10.433999999999969,10.917999999999893,11.084999999999809,11.51299999999992,11.679999999999836,12.196999999999889,12.349999999999909,12.730999999999995,12.920999999999822,13.347999999999956,13.514999999999873,13.968999999999824,14.531999999999925,14.856999999999971,15.020999999999958,15.317000000000007,15.468999999999824,15.839999999999918,16.036999999999807,16.18399999999997,16.60199999999986]",space,0.57,0.0,11.0,11.0,29.0,1.0,,
,,,,,,,,,,,block_2/strong_n_105_1.wav,no,n,strong,105.0,1.056930825,14.45525282,,,,Yes,Insignia Model:NS-CAHBTOE01 ,1,No,Male,61,Right,Yes,1,2020-10-05_08h31.10.554,kura-B1,2020.1.2,Win32,60,,,,,,,,,,,,,,"[""space"",""space"",""space"",""space"",""space"",""space"",""space"",""space"",""space"",""space"",""space"",""space"",""space"",""space"",""space"",""space"",""space"",""space"",""space"",""space"",""space""]","[0.7839999999998781,1.2080000000000837,1.6679999999998927,2.3099999999999454,3.0370000000000346,3.7049999999999272,4.388999999999896,5.059999999999945,5.757000000000062,6.397999999999911,7.161000000000058,7.808999999999969,8.442000000000007,9.164999999999964,9.844000000000051,10.548000000000002,11.211999999999989,11.86200000000008,12.567999999999984,13.212999999999965,13.914999999999964]",space,1.47,0.0,12.0,12.0,13.0,1.0,,
,,,,,,,,,,,block_2/none_n_119_2.wav,no,n,none,119.0,2.143940737,13.70121965,,,,Yes,Insignia Model:NS-CAHBTOE01 ,1,No,Male,61,Right,Yes,1,2020-10-05_08h31.10.554,kura-B1,2020.1.2,Win32,60,,,,,,,,,,,,,,"[""space"",""space"",""space"",""space"",""space"",""space"",""space"",""space"",""space"",""space"",""space"",""space"",""space"",""space"",""space"",""space"",""space"",""space"",""space"",""space"",""space"",""space"",""space"",""space"",""space"",""space"",""space"",""space"",""space"",""space"",""space"",""space"",""space"",""space"",""space"",""space"",""space"",""space"",""space"",""space"",""space"",""space"",""space"",""space"",""space"",""space"",""space""]","[0.6739999999999782,1.1019999999998618,1.2690000000000055,1.640999999999849,1.81899999999996,1.9939999999999145,2.1849999999999454,2.7200000000000273,2.875,3.186999999999898,3.63799999999992,3.8049999999998363,3.961999999999989,4.13799999999992,4.454999999999927,4.605000000000018,4.753999999999905,4.904999999999973,5.058999999999969,5.3940000000000055,5.554999999999836,5.705999999999904,6.124000000000024,6.295999999999822,6.572999999999865,6.740000000000009,7.124000000000024,7.289999999999964,7.54099999999994,7.874000000000024,8.024999999999864,8.182000000000016,8.374000000000024,8.875999999999976,9.028999999999996,9.212999999999965,9.659999999999854,9.826000000000022,9.996999999999844,10.215999999999894,10.626999999999953,10.794999999999845,10.965999999999894,11.194999999999936,11.377999999999929,11.67899999999986,12.778999999999996]",space,0.752,0.0,13.0,13.0,25.0,1.0,,
,,,,,,,,,,,block_2/weak_n_119_1.wav,no,n,weak,119.0,2.394125333,11.70850175,,,,Yes,Insignia Model:NS-CAHBTOE01 ,1,No,Male,61,Right,Yes,1,2020-10-05_08h31.10.554,kura-B1,2020.1.2,Win32,60,,,,,,,,,,,,,,"[""space"",""space"",""space"",""space"",""space"",""space"",""space"",""space"",""space"",""space"",""space"",""space"",""space"",""space"",""space"",""space"",""space"",""space"",""space"",""space""]","[0.6889999999998508,1.0360000000000582,1.2179999999998472,1.8019999999999072,2.354000000000042,2.870999999999867,3.270999999999958,3.7739999999998872,4.291999999999916,4.811999999999898,5.344000000000051,5.841999999999871,6.260999999999967,6.711000000000013,7.195999999999913,7.70900000000006,8.210000000000036,8.725999999999885,9.176999999999907,9.694999999999936]",space,0.485,0.0,14.0,14.0,38.0,1.0,,
,,,,,,,,,,,block_2/strong_n_81_1.wav,no,n,strong,81.0,1.085814619,16.04744727,,,,Yes,Insignia Model:NS-CAHBTOE01 ,1,No,Male,61,Right,Yes,1,2020-10-05_08h31.10.554,kura-B1,2020.1.2,Win32,60,,,,,,,,,,,,,,"[""space"",""space"",""space"",""space"",""space"",""space"",""space"",""space"",""space"",""space"",""space"",""space"",""space"",""space"",""space"",""space"",""space"",""space"",""space"",""space"",""space""]","[0.8009999999999309,1.3689999999999145,1.81899999999996,2.5370000000000346,3.3539999999998145,4.13799999999992,4.908999999999878,5.657999999999902,6.407999999999902,7.173999999999978,7.974999999999909,8.708999999999833,9.445999999999913,10.13299999999981,10.91599999999994,11.629999999999882,12.36999999999989,13.164999999999964,13.933999999999969,14.630999999999858,15.455999999999904]",space,1.551,0.0,15.0,15.0,12.0,1.0,,
,,,,,,,,,,,block_2/none_n_72_1.wav,no,n,none,72.0,2.425336639,22.99082417,,,,Yes,Insignia Model:NS-CAHBTOE01 ,1,No,Male,61,Right,Yes,1,2020-10-05_08h31.10.554,kura-B1,2020.1.2,Win32,60,,,,,,,,,,,,,,"[""space"",""space"",""space"",""space"",""space"",""space"",""space"",""space"",""space"",""space"",""space"",""space"",""space"",""space"",""space"",""space"",""space"",""space"",""space"",""space"",""space"",""space"",""space"",""space"",""space"",""space"",""space"",""space"",""space"",""space"",""space"",""space"",""space"",""space"",""space"",""space"",""space"",""space"",""space"",""space"",""space"",""space"",""space"",""space"",""space"",""space"",""space"",""space"",""space"",""space"",""space"",""space"",""space"",""space"",""space"",""space"",""space"",""space"",""space"",""space"",""space"",""space"",""space"",""space"",""space"",""space"",""space"",""space"",""space"",""space"",""space"",""space"",""space"",""space"",""space"",""space"",""space"",""space"",""space"",""space""]","[0.5030000000001564,0.9550000000001546,1.15300000000002,1.3090000000001965,1.8540000000000418,2.344000000000051,2.5030000000001564,3.1080000000001746,3.288000000000011,3.4550000000001546,3.6059999999999945,3.788000000000011,4.055000000000064,4.226000000000113,4.407000000000153,4.773000000000138,4.990000000000009,5.176000000000158,5.382000000000062,5.557000000000016,5.942999999999984,6.12700000000018,6.448000000000093,6.59699999999998,6.7590000000000146,7.042000000000144,7.342000000000098,7.662000000000035,7.992000000000189,8.143000000000029,8.294000000000096,8.527000000000044,9.031000000000176,9.194000000000187,9.33400000000006,9.711999999999989,9.863000000000056,10.195000000000164,10.348000000000184,10.495000000000118,10.663999999999987,11.00500000000011,11.163000000000011,11.585000000000036,11.771000000000186,12.298000000000002,12.469000000000051,12.864000000000033,13.023000000000138,13.615999999999985,13.781000000000176,14.235000000000127,14.399000000000115,14.782000000000153,14.950000000000045,15.253000000000156,15.416000000000167,15.58400000000006,16.01800000000003,16.184000000000196,16.519999999999982,16.687000000000126,16.854000000000042,17.258000000000038,17.437000000000126,17.618000000000166,17.891000000000076,18.057999999999993,18.47199999999998,18.638000000000147,18.78800000000001,19.111000000000104,19.269999999999982,19.423000000000002,19.57100000000014,19.961000000000013,20.111000000000104,20.274000000000115,20.54600000000005,20.739000000000033]",space,1.238,0.0,16.0,16.0,18.0,1.0,,
,,,,,,,,,,,block_2/strong_n_72_2.wav,no,n,strong,72.0,2.258938628,19.59540121,,,,Yes,Insignia Model:NS-CAHBTOE01 ,1,No,Male,61,Right,Yes,1,2020-10-05_08h31.10.554,kura-B1,2020.1.2,Win32,60,,,,,,,,,,,,,,"[""space"",""space"",""space"",""space"",""space"",""space"",""space"",""space"",""space"",""space"",""space"",""space"",""space"",""space"",""space"",""space"",""space"",""space"",""space"",""space""]","[1.1019999999998618,1.6749999999999545,2.6749999999999545,3.5549999999998363,4.439999999999827,5.3969999999999345,6.263999999999896,7.17899999999986,8.047000000000025,8.960000000000036,9.878999999999905,10.628999999999905,11.569999999999936,12.463999999999942,13.414999999999964,14.184999999999945,15.217999999999847,16.001999999999953,16.835000000000036,17.81899999999996]",space,1.005,0.0,17.0,17.0,30.0,1.0,,
,,,,,,,,,,,block_2/strong_n_105_2.wav,no,n,strong,105.0,1.030135556,14.17553238,,,,Yes,Insignia Model:NS-CAHBTOE01 ,1,No,Male,61,Right,Yes,1,2020-10-05_08h31.10.554,kura-B1,2020.1.2,Win32,60,,,,,,,,,,,,,,"[""space"",""space"",""space"",""space"",""space"",""space"",""space"",""space"",""space"",""space"",""space"",""space"",""space"",""space"",""space"",""space"",""space"",""space"",""space"",""space"",""space""]","[0.7899999999999636,1.1859999999999218,1.6900000000000546,2.308999999999969,2.9880000000000564,3.660000000000082,4.355000000000018,5.009999999999991,5.6590000000001055,6.292000000000144,7,7.675999999999931,8.325000000000045,8.992999999999938,9.644000000000005,10.303000000000111,10.961000000000013,11.629000000000133,12.280999999999949,12.932000000000016,13.603000000000065]",space,1.853,0.0,18.0,18.0,9.0,1.0,,
,,,,,,,,,,,block_2/weak_n_72_2.wav,no,n,weak,72.0,1.8411197,21.80211743,,,,Yes,Insignia Model:NS-CAHBTOE01 ,1,No,Male,61,Right,Yes,1,2020-10-05_08h31.10.554,kura-B1,2020.1.2,Win32,60,,,,,,,,,,,,,,"[""space"",""space"",""space"",""space"",""space"",""space"",""space"",""space"",""space"",""space"",""space"",""space"",""space"",""space"",""space"",""space"",""space"",""space"",""space"",""space"",""space"",""space"",""space"",""space"",""space"",""space"",""space"",""space"",""space"",""space"",""space"",""space"",""space"",""space"",""space"",""space"",""space"",""space"",""space"",""space"",""space"",""space"",""space"",""space"",""space"",""space"",""space"",""space"",""space"",""space"",""space"",""space"",""space"",""space"",""space"",""space"",""space"",""space"",""space"",""space"",""space""]","[0.6359999999999673,1.2360000000001037,1.4039999999999964,1.7029999999999745,1.8890000000001237,2.15300000000002,2.673999999999978,2.8379999999999654,3.0270000000000437,3.22199999999998,3.9710000000000036,4.139000000000124,4.690000000000055,4.857999999999947,5.089999999999918,5.923000000000002,6.125,6.341000000000122,6.958000000000084,7.130000000000109,7.8940000000000055,8.093000000000075,8.242999999999938,8.559999999999945,9.111000000000104,9.266000000000076,9.428000000000111,9.601000000000113,10.144000000000005,10.298999999999978,10.44399999999996,10.644999999999982,11.313000000000102,11.461999999999989,11.597999999999956,12.249000000000024,12.414999999999964,12.564000000000078,13.213999999999942,13.382000000000062,13.548000000000002,14.16599999999994,14.315000000000055,14.472999999999956,15.13799999999992,15.299999999999955,15.439000000000078,15.603000000000065,16.40300000000002,16.567999999999984,16.72700000000009,17.355000000000018,17.526000000000067,17.685999999999922,18.37200000000007,18.52500000000009,18.673000000000002,19.37000000000012,19.519999999999982,19.67100000000005,19.812000000000126]",space,0.541,0.0,19.0,19.0,11.0,1.0,,
,,,,,,,,,,,block_2/medium_n_119_2.wav,no,n,medium,119.0,2.453413839,11.51042064,,,,Yes,Insignia Model:NS-CAHBTOE01 ,1,No,Male,61,Right,Yes,1,2020-10-05_08h31.10.554,kura-B1,2020.1.2,Win32,60,,,,,,,,,,,,,,"[""space"",""space"",""space"",""space"",""space"",""space"",""space"",""space"",""space"",""space"",""space"",""space"",""space"",""space"",""space"",""space"",""space"",""space"",""space"",""space"",""space"",""space"",""space"",""space"",""space"",""space""]","[0.8520000000000891,1.219000000000051,1.5030000000001564,1.79099999999994,2.2530000000001564,2.73700000000008,3.270999999999958,3.5750000000000455,3.855000000000018,4.270999999999958,4.538000000000011,4.822000000000116,5.072000000000116,5.394999999999982,5.739000000000033,6.064000000000078,6.2590000000000146,6.740000000000009,6.923999999999978,7.173999999999978,7.357999999999947,7.6749999999999545,8.063000000000102,8.491999999999962,8.910000000000082,9.346000000000004]",space,1.086,0.0,20.0,20.0,21.0,1.0,,
,,,,,,,,,,,block_2/none_n_105_1.wav,no,n,none,105.0,1.731065446,15.85351443,,,,Yes,Insignia Model:NS-CAHBTOE01 ,1,No,Male,61,Right,Yes,1,2020-10-05_08h31.10.554,kura-B1,2020.1.2,Win32,60,,,,,,,,,,,,,,"[""space"",""space"",""space"",""space"",""space"",""space"",""space"",""space"",""space"",""space"",""space"",""space"",""space"",""space"",""space"",""space"",""space"",""space"",""space"",""space"",""space"",""space"",""space"",""space"",""space"",""space"",""space"",""space"",""space"",""space"",""space"",""space"",""space"",""space"",""space"",""space"",""space""]","[0.6529999999997926,1.1529999999997926,1.3589999999999236,1.5579999999999927,1.9739999999999327,2.1699999999998454,2.3539999999998145,2.5269999999998163,2.7210000000000036,2.925999999999931,3.2210000000000036,3.5219999999999345,3.987999999999829,4.170999999999822,4.341999999999871,4.689999999999827,4.977999999999838,5.460999999999785,5.856999999999971,6.0909999999998945,6.507999999999811,6.864999999999782,7.658999999999878,7.995999999999867,8.642999999999802,8.875999999999976,9.126999999999953,9.610999999999876,10.127999999999929,10.460999999999785,11.029999999999973,11.430999999999813,11.995999999999867,12.697999999999865,13.24799999999982,13.93899999999985,14.473999999999933]",space,0.702,0.0,21.0,21.0,0.0,1.0,,
,,,,,,,,,,,block_2/strong_n_81_2.wav,no,n,strong,81.0,1.892264478,17.05494022,,,,Yes,Insignia Model:NS-CAHBTOE01 ,1,No,Male,61,Right,Yes,1,2020-10-05_08h31.10.554,kura-B1,2020.1.2,Win32,60,,,,,,,,,,,,,,"[""space"",""space"",""space"",""space"",""space"",""space"",""space"",""space"",""space"",""space"",""space"",""space"",""space"",""space"",""space"",""space"",""space"",""space"",""space"",""space""]","[0.9070000000001528,1.4700000000000273,1.9539999999999509,2.7080000000000837,3.6079999999999472,4.3559999999999945,5.861000000000104,6.613000000000056,7.392000000000053,8.096000000000004,8.878000000000156,9.582000000000107,10.396999999999935,11.145999999999958,11.814000000000078,12.652000000000044,13.414999999999964,14.104000000000042,14.905999999999949,15.688000000000102]",space,1.157,0.0,22.0,22.0,8.0,1.0,,
,,,,,,,,,,,block_2/medium_n_105_2.wav,no,n,medium,105.0,1.832509907,11.95341694,,,,Yes,Insignia Model:NS-CAHBTOE01 ,1,No,Male,61,Right,Yes,1,2020-10-05_08h31.10.554,kura-B1,2020.1.2,Win32,60,,,,,,,,,,,,,,"[""space"",""space"",""space"",""space"",""space"",""space"",""space"",""space"",""space"",""space"",""space"",""space"",""space"",""space"",""space"",""space"",""space"",""space"",""space"",""space"",""space"",""space"",""space"",""space""]","[0.6349999999999909,1.1059999999999945,1.2860000000000582,1.7229999999999563,1.8759999999999764,2.269999999999982,2.4199999999998454,2.7210000000000036,2.894999999999982,3.140999999999849,3.6879999999998745,4.122000000000071,4.625,5.190000000000055,5.690000000000055,6.214999999999918,6.7309999999999945,7.163000000000011,7.7590000000000146,8.277000000000044,8.780999999999949,9.480999999999995,9.995999999999867,10.483999999999924]",space,0.818,0.0,23.0,23.0,3.0,1.0,,
,,,,,,,,,,,block_2/strong_n_72_1.wav,no,n,strong,72.0,1.979367889,17.70027492,,,,Yes,Insignia Model:NS-CAHBTOE01 ,1,No,Male,61,Right,Yes,1,2020-10-05_08h31.10.554,kura-B1,2020.1.2,Win32,60,,,,,,,,,,,,,,"[""space"",""space"",""space"",""space"",""space"",""space"",""space"",""space"",""space"",""space"",""space"",""space"",""space"",""space"",""space"",""space"",""space"",""space"",""space"",""space"",""space""]","[0.4230000000000018,0.83400000000006,1.7210000000000036,2.48700000000008,3.387000000000171,4.1720000000000255,4.940000000000055,5.725000000000136,6.557000000000016,7.4090000000001055,8.226000000000113,9.0150000000001,9.810000000000173,10.61200000000008,11.430000000000064,12.254000000000133,13.104000000000042,13.886000000000195,14.649000000000115,15.467000000000098,16.350000000000136]",space,2.104,0.0,24.0,24.0,33.0,1.0,,
,,,,,,,,,,,block_2/medium_n_72_1.wav,no,n,medium,72.0,2.306836655,18.27731285,,,,Yes,Insignia Model:NS-CAHBTOE01 ,1,No,Male,61,Right,Yes,1,2020-10-05_08h31.10.554,kura-B1,2020.1.2,Win32,60,,,,,,,,,,,,,,"[""space"",""space"",""space"",""space"",""space"",""space"",""space"",""space"",""space"",""space"",""space"",""space"",""space"",""space"",""space"",""space"",""space"",""space"",""space"",""space"",""space"",""space"",""space"",""space"",""space"",""space"",""space"",""space"",""space"",""space"",""space"",""space"",""space"",""space"",""space"",""space"",""space"",""space"",""space"",""space"",""space"",""space"",""space"",""space"",""space"",""space"",""space"",""space"",""space""]","[0.7000000000000455,1.1020000000000891,1.3690000000001419,1.98700000000008,2.1520000000000437,2.7889999999999873,2.953999999999951,3.5550000000000637,3.7200000000000273,4.3530000000000655,4.526000000000067,4.688000000000102,5.173000000000002,5.338999999999942,5.5060000000000855,5.95900000000006,6.145999999999958,6.747000000000071,6.929000000000087,7.606999999999971,7.774000000000115,8.392000000000053,8.557999999999993,9.211000000000013,9.376999999999953,10.027000000000044,10.178000000000111,10.844000000000051,10.994000000000142,11.161000000000058,11.629000000000133,11.795000000000073,11.951999999999998,12.354000000000042,12.496000000000095,12.645999999999958,13.113000000000056,13.268000000000029,13.430000000000064,13.95399999999995,14.131000000000085,14.30099999999993,14.781999999999925,14.932000000000016,15.098999999999933,15.66599999999994,15.83400000000006,16,16.350000000000136]",space,1.739,0.0,25.0,25.0,10.0,1.0,,
,,,,,,,,,,,block_2/weak_n_105_2.wav,no,n,weak,105.0,1.251032373,14.19257432,,,,Yes,Insignia Model:NS-CAHBTOE01 ,1,No,Male,61,Right,Yes,1,2020-10-05_08h31.10.554,kura-B1,2020.1.2,Win32,60,,,,,,,,,,,,,,"[""space"",""space"",""space"",""space"",""space"",""space"",""space"",""space"",""space"",""space"",""space"",""space"",""space"",""space"",""space"",""space"",""space"",""space"",""space"",""space"",""space"",""space"",""space"",""space"",""space"",""space"",""space"",""space"",""space"",""space"",""space"",""space"",""space"",""space"",""space"",""space"",""space"",""space"",""space""]","[0.6179999999999382,1.058999999999969,1.3179999999999836,1.5229999999999109,1.990000000000009,2.2719999999999345,2.4739999999999327,2.9120000000000346,3.0709999999999127,3.5909999999998945,3.836999999999989,3.9269999999999072,4.305000000000064,4.828999999999951,5.490000000000009,5.729000000000042,5.913999999999987,6.3250000000000455,6.479000000000042,6.656999999999925,7.107999999999947,7.2650000000001,7.724999999999909,7.875,8.375,8.547000000000025,8.999000000000024,9.180000000000064,9.663999999999987,9.799999999999955,10.2650000000001,10.428000000000111,10.798000000000002,10.944999999999936,11.429000000000087,12.047000000000025,12.229000000000042,12.780999999999949,13.336000000000013]",space,1.108,0.0,26.0,26.0,26.0,1.0,,
,,,,,,,,,,,block_2/none_n_105_2.wav,no,n,none,105.0,1.955418763,16.59637114,,,,Yes,Insignia Model:NS-CAHBTOE01 ,1,No,Male,61,Right,Yes,1,2020-10-05_08h31.10.554,kura-B1,2020.1.2,Win32,60,,,,,,,,,,,,,,"[""space"",""space"",""space"",""space"",""space"",""space"",""space"",""space"",""space"",""space"",""space"",""space"",""space"",""space"",""space"",""space"",""space"",""space"",""space"",""space"",""space"",""space"",""space"",""space"",""space"",""space"",""space"",""space"",""space"",""space"",""space"",""space"",""space"",""space"",""space"",""space"",""space"",""space"",""space"",""space"",""space"",""space"",""space"",""space"",""space"",""space"",""space"",""space"",""space"",""space"",""space"",""space"",""space"",""space"",""space"",""space"",""space"",""space"",""space"",""space"",""space"",""space"",""space"",""space"",""space"",""space"",""space""]","[0.46900000000005093,0.8679999999999382,1.2519999999999527,1.7690000000000055,2.1189999999999145,2.5270000000000437,2.6749999999999545,3.02599999999984,3.1929999999999836,3.3599999999999,3.6240000000000236,4.138999999999896,4.322999999999865,4.474999999999909,4.772999999999911,5.321999999999889,5.874000000000024,6.5090000000000146,7.106999999999971,7.265999999999849,7.760999999999967,7.91599999999994,8.062999999999874,8.210000000000036,8.342999999999847,8.460000000000036,8.6099999999999,8.749000000000024,8.893000000000029,9.02599999999984,9.168999999999869,9.317999999999984,9.461000000000013,9.595000000000027,9.743999999999915,9.911000000000058,10.115999999999985,10.27800000000002,10.528999999999996,10.66599999999994,10.811999999999898,10.961999999999989,11.297000000000025,11.448999999999842,11.59699999999998,11.695999999999913,11.84699999999998,11.996999999999844,12.129999999999882,12.279999999999973,12.446999999999889,12.614000000000033,12.768000000000029,12.947999999999865,13.113000000000056,13.280999999999949,13.435999999999922,13.598999999999933,13.764999999999873,13.91599999999994,14.082999999999856,14.220000000000027,14.365000000000009,14.515999999999849,14.668999999999869,14.819999999999936,14.969000000000051]",space,0.986,0.0,27.0,27.0,4.0,1.0,,
,,,,,,,,,,,block_2/medium_n_72_2.wav,no,n,medium,72.0,2.017934227,19.05022448,,,,Yes,Insignia Model:NS-CAHBTOE01 ,1,No,Male,61,Right,Yes,1,2020-10-05_08h31.10.554,kura-B1,2020.1.2,Win32,60,,,,,,,,,,,,,,"[""space"",""space"",""space"",""space"",""space"",""space"",""space"",""space"",""space"",""space"",""space"",""space"",""space"",""space"",""space"",""space"",""space"",""space"",""space"",""space""]","[0.5199999999999818,1.0019999999999527,1.6870000000001255,2.54300000000012,3.441000000000031,4.380000000000109,5.3400000000001455,6.1400000000001,6.942000000000007,7.826000000000022,8.759000000000015,9.660000000000082,10.562000000000126,11.43100000000004,12.29600000000005,13.147000000000162,13.999000000000024,14.865999999999985,15.787000000000035,16.670000000000073]",space,0.935,0.0,28.0,28.0,14.0,1.0,,
,,,,,,,,,,,block_2/none_n_81_2.wav,no,n,none,81.0,1.688814472,20.84019769,,,,Yes,Insignia Model:NS-CAHBTOE01 ,1,No,Male,61,Right,Yes,1,2020-10-05_08h31.10.554,kura-B1,2020.1.2,Win32,60,,,,,,,,,,,,,,"[""space"",""space"",""space"",""space"",""space"",""space"",""space"",""space"",""space"",""space"",""space"",""space"",""space"",""space"",""space"",""space"",""space"",""space"",""space"",""space"",""space"",""space"",""space"",""space"",""space"",""space"",""space"",""space"",""space"",""space"",""space"",""space"",""space"",""space"",""space"",""space"",""space"",""space"",""space"",""space"",""space"",""space"",""space"",""space"",""space"",""space"",""space"",""space"",""space"",""space"",""space"",""space"",""space"",""space"",""space"",""space"",""space"",""space"",""space"",""space"",""space"",""space"",""space"",""space"",""space"",""space"",""space"",""space"",""space"",""space"",""space"",""space"",""space"",""space"",""space"",""space"",""space"",""space"",""space"",""space"",""space""]","[0.5180000000000291,1.0019999999999527,1.219000000000051,1.5260000000000673,1.6869999999998981,1.8550000000000182,2.186999999999898,2.354000000000042,2.509999999999991,2.923999999999978,3.06899999999996,3.3099999999999454,3.4729999999999563,3.8209999999999127,3.9449999999999363,4.288000000000011,4.423999999999978,4.571999999999889,5.023999999999887,5.156999999999925,5.411000000000058,5.571999999999889,5.727000000000089,6.106999999999971,6.272999999999911,6.411000000000058,6.744999999999891,6.879999999999882,7.013999999999896,7.1749999999999545,7.330999999999904,7.6749999999999545,7.824000000000069,8.129999999999882,8.280999999999949,8.595000000000027,9.062999999999874,9.230000000000018,9.375999999999976,9.799999999999955,9.964999999999918,10.126999999999953,10.312999999999874,10.743999999999915,10.877999999999929,11.077999999999975,11.24499999999989,11.667999999999893,11.833000000000084,12.045000000000073,12.529999999999973,12.69900000000007,12.86200000000008,13.11200000000008,13.285000000000082,13.600999999999885,14.19900000000007,14.381000000000085,14.700000000000045,14.95399999999995,15.148999999999887,15.44900000000007,15.788000000000011,16.08199999999988,16.40599999999995,16.59999999999991,16.783999999999878,17.085000000000036,17.269000000000005,17.434999999999945,17.58400000000006,17.72499999999991,17.885999999999967,18.035000000000082,18.136999999999944,18.48700000000008,18.639999999999873,18.801999999999907,18.95399999999995,19.270999999999958,19.501999999999953]",space,0.669,0.0,29.0,29.0,28.0,1.0,,
,,,,,,,,,,,block_2/strong_n_119_1.wav,no,n,strong,119.0,2.397746816,12.26713457,,,,Yes,Insignia Model:NS-CAHBTOE01 ,1,No,Male,61,Right,Yes,1,2020-10-05_08h31.10.554,kura-B1,2020.1.2,Win32,60,,,,,,,,,,,,,,"[""space"",""space"",""space"",""space"",""space"",""space"",""space"",""space"",""space"",""space"",""space"",""space"",""space"",""space"",""space"",""space"",""space"",""space"",""space""]","[0.8430000000000746,1.3530000000000655,1.990000000000009,2.520999999999958,3.0389999999999873,3.5620000000001255,4.074000000000069,4.641000000000076,5.123000000000047,5.625999999999976,6.142000000000053,6.643000000000029,7.133000000000038,7.664999999999964,8.162000000000035,8.713999999999942,9.211000000000013,9.728000000000065,10.260999999999967]",space,1.22,0.0,30.0,30.0,19.0,1.0,,
,,,,,,,,,,,block_2/none_n_119_1.wav,no,n,none,119.0,1.472051285,13.63313972,,,,Yes,Insignia Model:NS-CAHBTOE01 ,1,No,Male,61,Right,Yes,1,2020-10-05_08h31.10.554,kura-B1,2020.1.2,Win32,60,,,,,,,,,,,,,,"[""space"",""space"",""space"",""space"",""space"",""space"",""space"",""space"",""space"",""space"",""space"",""space"",""space"",""space"",""space"",""space"",""space"",""space"",""space"",""space"",""space"",""space"",""space"",""space"",""space"",""space"",""space"",""space"",""space"",""space"",""space"",""space"",""space"",""space"",""space"",""space"",""space"",""space"",""space"",""space"",""space"",""space"",""space"",""space"",""space"",""space"",""space"",""space"",""space"",""space"",""space"",""space""]","[0.7180000000000746,0.9080000000001291,1.3859999999999673,1.54300000000012,1.7200000000000273,1.8859999999999673,2.2100000000000364,2.586999999999989,2.8200000000001637,3.3910000000000764,3.558999999999969,3.7110000000000127,3.8710000000000946,4.039999999999964,4.206000000000131,4.705000000000155,4.907000000000153,5.057000000000016,5.3810000000000855,5.541000000000167,5.691000000000031,6.027000000000044,6.245000000000118,6.45900000000006,6.6310000000000855,6.97400000000016,7.144999999999982,7.427000000000135,7.625,7.927000000000135,8.11200000000008,8.310000000000173,8.484000000000151,9.009999999999991,9.192999999999984,9.344000000000051,9.844000000000051,9.981999999999971,10.148000000000138,10.312000000000126,10.461999999999989,10.614000000000033,10.912000000000035,11.066000000000031,11.215000000000146,11.38000000000011,11.513000000000147,11.653999999999996,11.812000000000126,11.979000000000042,12.313000000000102,12.480000000000018]",space,0.654,0.0,31.0,31.0,22.0,1.0,,
,,,,,,,,,,,block_2/weak_n_72_1.wav,no,n,weak,72.0,2.399201816,17.30954195,,,,Yes,Insignia Model:NS-CAHBTOE01 ,1,No,Male,61,Right,Yes,1,2020-10-05_08h31.10.554,kura-B1,2020.1.2,Win32,60,,,,,,,,,,,,,,"[""space"",""space"",""space"",""space"",""space"",""space"",""space"",""space"",""space"",""space"",""space"",""space"",""space"",""space"",""space"",""space"",""space"",""space"",""space"",""space""]","[0.7400000000000091,1.2580000000000382,2.061000000000149,2.8890000000001237,3.5579999999999927,4.322000000000116,4.975000000000136,5.72400000000016,6.52800000000002,7.258000000000038,8.04300000000012,8.72700000000009,9.496000000000095,10.281000000000176,11.06100000000015,11.779999999999973,12.581000000000131,13.253000000000156,13.933999999999969,14.766000000000076]",space,0.901,0.0,32.0,32.0,15.0,1.0,,
,,,,,,,,,,,block_2/strong_n_92_2.wav,no,n,strong,92.0,1.994887374,15.49683749,,,,Yes,Insignia Model:NS-CAHBTOE01 ,1,No,Male,61,Right,Yes,1,2020-10-05_08h31.10.554,kura-B1,2020.1.2,Win32,60,,,,,,,,,,,,,,"[""space"",""space"",""space"",""space"",""space"",""space"",""space"",""space"",""space"",""space"",""space"",""space"",""space"",""space"",""space"",""space"",""space"",""space"",""space"",""space""]","[0.7190000000000509,1.40300000000002,2.0730000000000928,2.810000000000173,3.522000000000162,4.23700000000008,4.872000000000071,5.623000000000047,6.311000000000149,7.013000000000147,7.7309999999999945,8.365000000000009,9.081000000000131,9.759999999999991,10.481999999999971,11.21400000000017,11.919000000000096,12.634999999999991,13.281000000000176,13.998000000000047]",space,1.536,0.0,33.0,33.0,39.0,1.0,,
,,,,,,,,,,,block_2/none_n_92_2.wav,no,n,none,92.0,2.007703886,14.64294198,,,,Yes,Insignia Model:NS-CAHBTOE01 ,1,No,Male,61,Right,Yes,1,2020-10-05_08h31.10.554,kura-B1,2020.1.2,Win32,60,,,,,,,,,,,,,,"[""space"",""space"",""space"",""space"",""space"",""space"",""space"",""space"",""space"",""space"",""space"",""space"",""space"",""space"",""space"",""space"",""space"",""space"",""space"",""space"",""space"",""space"",""space"",""space"",""space"",""space"",""space"",""space"",""space"",""space"",""space"",""space"",""space"",""space"",""space"",""space"",""space"",""space"",""space"",""space"",""space"",""space"",""space"",""space""]","[0.7509999999999764,1.15300000000002,1.3229999999998654,1.5039999999999054,1.7029999999999745,2.2200000000000273,2.3719999999998436,2.522999999999911,2.689999999999827,3.009999999999991,3.1749999999999545,3.5039999999999054,3.6549999999999727,4.125999999999976,4.2719999999999345,4.7569999999998345,4.906999999999925,5.222999999999956,5.371999999999844,5.726999999999862,5.897999999999911,6.27800000000002,6.5069999999998345,6.673000000000002,6.828999999999951,6.973999999999933,7.390999999999849,7.574999999999818,7.944999999999936,8.128999999999905,8.309999999999945,8.845000000000027,9.394999999999982,9.544999999999845,10.027000000000044,10.166999999999916,10.677999999999884,10.849999999999909,11.261999999999944,11.413000000000011,11.881999999999834,12.062999999999874,12.530999999999949,12.695999999999913]",space,1.051,0.0,34.0,34.0,23.0,1.0,,
,,,,,,,,,,,block_2/weak_n_81_1.wav,no,n,weak,81.0,2.025683857,14.86613737,,,,Yes,Insignia Model:NS-CAHBTOE01 ,1,No,Male,61,Right,Yes,1,2020-10-05_08h31.10.554,kura-B1,2020.1.2,Win32,60,,,,,,,,,,,,,,"[""space"",""space"",""space"",""space"",""space"",""space"",""space"",""space"",""space"",""space"",""space"",""space"",""space"",""space"",""space"",""space"",""space"",""space"",""space"",""space"",""space""]","[0.6010000000001128,1.2180000000000746,1.8350000000000364,2.5699999999999363,3.1369999999999436,3.770999999999958,4.510999999999967,5.122000000000071,5.722999999999956,6.244000000000142,6.906999999999925,7.4780000000000655,8.125999999999976,8.792000000000144,9.392000000000053,10.059999999999945,10.728000000000065,11.428000000000111,12.0150000000001,12.61200000000008,13.219000000000051]",space,0.943,0.0,35.0,35.0,35.0,1.0,,
,,,,,,,,,,,block_2/strong_n_119_2.wav,no,n,strong,119.0,1.626584736,10.88871625,,,,Yes,Insignia Model:NS-CAHBTOE01 ,1,No,Male,61,Right,Yes,1,2020-10-05_08h31.10.554,kura-B1,2020.1.2,Win32,60,,,,,,,,,,,,,,"[""space"",""space"",""space"",""space"",""space"",""space"",""space"",""space"",""space"",""space"",""space"",""space"",""space"",""space"",""space"",""space"",""space"",""space"",""space""]","[0.8179999999999836,1.1920000000000073,1.6359999999999673,2.1210000000000946,2.5930000000000746,3.0879999999999654,3.546000000000049,4.005000000000109,4.476000000000113,4.94600000000014,5.391000000000076,5.894999999999982,6.342000000000098,6.875999999999976,7.276000000000067,7.7590000000000146,8.182000000000016,8.713999999999942,9.177000000000135]",space,2.123,0.0,36.0,36.0,17.0,1.0,,
,,,,,,,,,,,block_2/weak_n_119_2.wav,no,n,weak,119.0,1.359763169,11.32207609,,,,Yes,Insignia Model:NS-CAHBTOE01 ,1,No,Male,61,Right,Yes,1,2020-10-05_08h31.10.554,kura-B1,2020.1.2,Win32,60,,,,,,,,,,,,,,"[""space"",""space"",""space"",""space"",""space"",""space"",""space"",""space"",""space"",""space"",""space"",""space"",""space"",""space"",""space"",""space"",""space"",""space"",""space"",""space"",""space"",""space""]","[0.6340000000000146,0.9859999999998763,1.3509999999998854,1.7239999999999327,2.175999999999931,2.6700000000000728,3.2359999999998763,3.7870000000000346,4.171000000000049,4.654999999999973,5.204999999999927,5.623000000000047,6.124000000000024,6.572999999999865,6.973999999999933,7.463999999999942,8.041999999999916,8.509000000000015,8.965999999999894,9.343000000000075,9.860999999999876,10.326999999999998]",space,1.321,0.0,37.0,37.0,36.0,1.0,,
,,,,,,,,,,,block_2/weak_n_81_2.wav,no,n,weak,81.0,1.213149696,13.09673246,,,,Yes,Insignia Model:NS-CAHBTOE01 ,1,No,Male,61,Right,Yes,1,2020-10-05_08h31.10.554,kura-B1,2020.1.2,Win32,60,,,,,,,,,,,,,,"[""space"",""space"",""space"",""space"",""space"",""space"",""space"",""space"",""space"",""space"",""space"",""space"",""space"",""space"",""space"",""space"",""space"",""space"",""space"",""space"",""space""]","[0.6209999999998672,1.1369999999999436,1.7709999999999582,2.3869999999999436,2.9249999999999545,3.505999999999858,4.05600000000004,4.688999999999851,5.338999999999942,5.8559999999999945,6.461999999999989,6.973999999999933,7.591999999999871,8.248000000000047,8.84699999999998,9.427999999999884,9.976999999999862,10.56399999999985,11.149999999999864,11.760999999999967,12.32899999999995]",space,3.395,0.0,38.0,38.0,32.0,1.0,,
,,,,,,,,,,,block_2/medium_n_81_1.wav,no,n,medium,81.0,1.997436703,15.99943217,,,,Yes,Insignia Model:NS-CAHBTOE01 ,1,No,Male,61,Right,Yes,1,2020-10-05_08h31.10.554,kura-B1,2020.1.2,Win32,60,,,,,,,,,,,,,,"[""space"",""space"",""space"",""space"",""space"",""space"",""space"",""space"",""space"",""space"",""space"",""space"",""space"",""space"",""space"",""space"",""space"",""space"",""space"",""space""]","[0.6900000000000546,1.1849999999999454,1.8699999999998909,2.560999999999922,3.270999999999958,3.9379999999998745,4.626999999999953,5.346000000000004,6.060999999999922,6.710000000000036,7.341999999999871,8.029999999999973,8.875999999999976,9.576999999999998,10.32899999999995,10.99499999999989,11.663000000000011,12.347999999999956,13.067999999999984,13.714999999999918]",space,1.406,0.0,39.0,39.0,31.0,1.0,,
,,,,,,,,,,,,,,,,,,,,,Yes,Insignia Model:NS-CAHBTOE01 ,1,No,Male,61,Right,Yes,1,2020-10-05_08h31.10.554,kura-B1,2020.1.2,Win32,60,,,,,,,,,,,,,,,,,,,,,,,space,20.701
