key_resp.keys,key_resp.rt,practice_taps.keys,keyresp.keys,keyresp.rt,practice_stims_loop.thisRepN,practice_stims_loop.thisTrialN,practice_stims_loop.thisN,practice_stims_loop.thisIndex,practice_stims_loop.ran,sndfile,type,tempo,cond,version,delay,dur,Participant Initials,"If you are a MTurk worker, what is your MTurk worker ID?","If you are not an MTurk worker, please provide your email address",Are you wearing headphones?,What are the headphone make and model?,"How many years of musical training, if any, do you have?",Do you have any hearing problems? Please describe,What is your sex (f/m/decline)?,What is your age?,What is your handedness (R/L/ambi)?,Are you currently in a secure and quiet room without a possible interruption?,session ,date,expName,psychopyVersion,OS,frameRate,practice_taps.rt,instructions_prompt.keys,instructions_prompt.rt,block1_taps.keys,block1_taps.rt,key_resp_2.keys,key_resp_2.rt,trials.thisRepN,trials.thisTrialN,trials.thisN,trials.thisIndex,trials.ran,key_resp2.keys,key_resp2.rt,block2_taps.keys,block2_taps.rt,key_resp_3.keys,key_resp_3.rt,trials_2.thisRepN,trials_2.thisTrialN,trials_2.thisN,trials_2.thisIndex,trials_2.ran,key_resp_4.keys,key_resp_4.rt
space,149.26907,,space,1.467915,0.0,0.0,0.0,0.0,1.0,block_2/none_n_92_3.wav,no,n,none,92.0,2.306164339,18.20620969,,,,Y,Chinese unbranded,0,no,m,37,L,y,1,2020-09-07_08h44.56.737,kura-B2,2020.1.2,Win32,60,,,,,,,,,,,,,,,,,,,,,,,,,
,,"[""space"",""space"",""space"",""space"",""space"",""space"",""space"",""space"",""space"",""space"",""space"",""space"",""space"",""space""]",space,0.92137,0.0,1.0,1.0,1.0,1.0,block_2/medium_n_119_4.wav,no,n,medium,119.0,1.224634286,9.531709116,,,,Y,Chinese unbranded,0,no,m,37,L,y,1,2020-09-07_08h44.56.737,kura-B2,2020.1.2,Win32,60,"[2.8428249999997206,3.1923949999909382,3.5869200000015553,4.011129999998957,4.469589999993332,4.9037200000020675,5.330239999981131,5.809154999995371,6.270199999999022,6.710209999990184,7.168554999982007,7.623525000002701,8.046464999992168,8.48696499998914]",,,,,,,,,,,,,,,,,,,,,,,,
,,"[""space"",""space"",""space"",""space"",""space"",""space"",""space"",""space"",""space"",""space"",""space"",""space"",""space"",""space"",""space"",""space"",""space"",""space""]",space,0.78413,0.0,2.0,2.0,3.0,1.0,block_1/medium_t_119_4.wav,timbre,t,medium,119.0,1.752316959,11.57313329,,,,Y,Chinese unbranded,0,no,m,37,L,y,1,2020-09-07_08h44.56.737,kura-B2,2020.1.2,Win32,60,"[1.4596450000244658,1.9419550000166055,2.3441450000100303,2.8857000000134576,3.304985000024317,3.8674300000129733,4.369774999999208,4.902330000011716,5.333125000004657,5.858540000015637,6.3681999999971595,6.8391650000121444,7.334969999996247,7.84980500000529,8.414510000002338,8.949720000004163,9.453380000020843,10.020105000003241]",,,,,,,,,,,,,,,,,,,,,,,,
,,"[""space"",""space"",""space"",""space"",""space"",""space"",""space"",""space"",""space"",""space"",""space"",""space"",""space"",""space"",""space"",""space"",""space"",""space"",""space"",""space"",""space""]",space,0.459045,0.0,3.0,3.0,2.0,1.0,block_2/weak_n_105_4.wav,no,n,weak,105.0,1.982674472,12.75578105,,,,Y,Chinese unbranded,0,no,m,37,L,y,1,2020-09-07_08h44.56.737,kura-B2,2020.1.2,Win32,60,"[0.7101299999922048,1.1679049999802373,1.5582399999839254,2.069569999992382,2.8140149999817368,3.1976749999739695,3.805369999987306,4.401059999974677,4.88763499999186,5.358775000000605,5.86186999999336,6.356169999984559,6.987020000000484,7.47198999999091,7.952059999981429,8.47998999999254,9.106469999998808,9.560249999980442,10.178560000000289,10.516839999996591,11.040314999991097]",,,,,,,,,,,,,,,,,,,,,,,,
,,,,,,,,,,block_1/none_t_92_4.wav,timbre,t,none,92.0,2.400883628,17.24192671,,,,Y,Chinese unbranded,0,no,m,37,L,y,1,2020-09-07_08h44.56.737,kura-B2,2020.1.2,Win32,60,,space,4.91455,"[""space"",""space"",""space"",""space"",""space"",""space"",""space"",""space"",""space"",""space"",""space"",""space"",""space"",""space"",""space"",""space"",""space""]","[1.1718050000199582,2.187529999995604,2.905460000009043,3.5632599999953527,4.264125000016065,4.9395950000034645,5.897620000003371,6.8994800000218675,7.560150000004796,8.2867350000015,9.256485000019893,10.113895000016782,11.062575000018114,11.927250000007916,12.903005000000121,13.843140000011772,14.865985000011278]",space,0.60174,0.0,0.0,0.0,22.0,1.0,,,,,,,,,,,,,
,,,,,,,,,,block_1/weak_t_72_3.wav,timbre,t,weak,72.0,1.571303333,17.03996546,,,,Y,Chinese unbranded,0,no,m,37,L,y,1,2020-09-07_08h44.56.737,kura-B2,2020.1.2,Win32,60,,,,"[""space"",""space"",""space"",""space"",""space"",""space"",""space"",""space"",""space"",""space"",""space"",""space"",""space"",""space"",""space"",""space"",""space"",""space"",""space""]","[1.0570299999963026,2.385020000016084,2.9244150000158697,4.00204500000109,4.829530000017257,5.625300000014249,6.44460000001709,7.171670000010636,7.883430000016233,8.668304999999236,9.504805000004126,10.268559999996796,11.109635000000708,11.854335000010906,12.699554999999236,13.572299999999814,14.253705000010086,15.00986499999999,15.737270000012359]",space,1.30649,0.0,1.0,1.0,26.0,1.0,,,,,,,,,,,,,
,,,,,,,,,,block_1/medium_t_105_3.wav,timbre,t,medium,105.0,1.131854181,11.90867958,,,,Y,Chinese unbranded,0,no,m,37,L,y,1,2020-09-07_08h44.56.737,kura-B2,2020.1.2,Win32,60,,,,"[""space"",""space"",""space"",""space"",""space"",""space"",""space"",""space"",""space"",""space"",""space"",""space"",""space"",""space"",""space"",""space"",""space"",""space"",""space""]","[1.161370000016177,1.7052649999968708,2.2380899999989197,2.812340000004042,3.34330000000773,3.885485000006156,4.417645000008633,4.976159999991069,5.486960000009276,6.056520000012824,6.567030000005616,7.16915999999037,7.752254999999423,8.253920000017388,8.81062999999267,9.331655000016326,9.883525000012014,10.431935000000522,10.985959999990882]",space,0.485215,0.0,2.0,2.0,16.0,1.0,,,,,,,,,,,,,
,,,,,,,,,,block_1/strong_t_92_3.wav,timbre,t,strong,92.0,1.987733848,15.03440052,,,,Y,Chinese unbranded,0,no,m,37,L,y,1,2020-09-07_08h44.56.737,kura-B2,2020.1.2,Win32,60,,,,"[""space"",""space"",""space"",""space"",""space"",""space"",""space"",""space"",""space"",""space"",""space"",""space"",""space"",""space"",""space"",""space"",""space"",""space"",""space"",""space"",""space""]","[0.2874149999988731,0.9557299999869429,1.4313099999853875,2.046665000001667,2.676739999995334,3.3549549999879673,4.038360000005923,4.675794999988284,5.3688400000100955,6.014085000002524,6.6618149999994785,7.344840000005206,8.01555000001099,8.63097500000731,9.351829999999609,9.985209999984363,10.658555000001797,11.337009999988368,12.004920000006678,12.647529999987455,13.287145000009332]",space,0.433705,0.0,3.0,3.0,3.0,1.0,,,,,,,,,,,,,
,,,,,,,,,,block_1/medium_t_72_3.wav,timbre,t,medium,72.0,2.203768917,18.98399567,,,,Y,Chinese unbranded,0,no,m,37,L,y,1,2020-09-07_08h44.56.737,kura-B2,2020.1.2,Win32,60,,,,"[""space"",""space"",""space"",""space"",""space"",""space"",""space"",""space"",""space"",""space"",""space"",""space"",""space"",""space"",""space"",""space"",""space"",""space"",""space"",""space""]","[0.3050199999997858,0.9482800000114366,1.6119900000048801,2.3980049999954645,3.300855000008596,4.1676750000042375,5.031829999992624,5.860279999993509,6.712155000015628,7.619260000006761,8.471064999990631,9.326365000015358,10.283460000006016,11.067494999995688,11.983384999999544,12.772595000016736,13.6784050000133,14.526574999996228,15.488219999999274,16.422435000014957]",space,0.843075,0.0,4.0,4.0,31.0,1.0,,,,,,,,,,,,,
,,,,,,,,,,block_1/strong_t_72_3.wav,timbre,t,strong,72.0,1.503157527,17.98057249,,,,Y,Chinese unbranded,0,no,m,37,L,y,1,2020-09-07_08h44.56.737,kura-B2,2020.1.2,Win32,60,,,,"[""space"",""space"",""space"",""space"",""space"",""space"",""space"",""space"",""space"",""space"",""space"",""space"",""space"",""space"",""space"",""space"",""space"",""space"",""space"",""space"",""space""]","[0.4278200000117067,1.1033950000128243,1.7754899999999907,2.53219500000705,3.379864999995334,4.19607000000542,5.020145000016782,5.917715000017779,6.751630000013392,7.519580000021961,8.438340000022436,9.223324999999022,10.068465000018477,10.901080000010552,11.75847000000067,12.570644999999786,13.462675000017043,14.402640000014799,15.187059999996563,15.886620000004768,16.784169999998994]",space,0.74269,0.0,5.0,5.0,5.0,1.0,,,,,,,,,,,,,
,,,,,,,,,,block_1/none_t_81_4.wav,timbre,t,none,81.0,1.802900323,17.84380735,,,,Y,Chinese unbranded,0,no,m,37,L,y,1,2020-09-07_08h44.56.737,kura-B2,2020.1.2,Win32,60,,,,"[""space"",""space"",""space"",""space"",""space"",""space"",""space"",""space"",""space"",""space"",""space"",""space"",""space"",""space"",""space"",""space"",""space"",""space"",""space"",""space"",""space"",""space"",""space"",""space"",""space""]","[0.318570000003092,1.1753249999892432,2.000260000000708,2.8701099999889266,3.8493199999793433,4.553309999988414,5.216264999995474,5.887174999981653,6.483859999978449,7.0055649999994785,7.649204999994254,8.268649999983609,8.769359999976587,9.345309999975143,9.889179999998305,10.454214999976102,11.043779999978142,11.566005000000587,12.099254999979166,12.750734999979613,13.360214999993332,13.99738499999512,14.58612500000163,15.135569999984,15.766319999995176]",space,0.55077,0.0,6.0,6.0,12.0,1.0,,,,,,,,,,,,,
,,,,,,,,,,block_1/medium_t_81_3.wav,timbre,t,medium,81.0,1.352794873,13.94617356,,,,Y,Chinese unbranded,0,no,m,37,L,y,1,2020-09-07_08h44.56.737,kura-B2,2020.1.2,Win32,60,,,,"[""space"",""space"",""space"",""space"",""space"",""space"",""space"",""space"",""space"",""space"",""space"",""space"",""space"",""space"",""space"",""space"",""space"",""space"",""space"",""space"",""space""]","[0.40746499999659136,0.9237950000097044,1.2859849999949802,1.928075000003446,2.5813149999885354,3.308874999987893,3.924009999987902,4.614594999991823,5.2750100000121165,5.835694999987027,6.526725000003353,7.189400000002934,7.789534999988973,8.42022500000894,9.061810000013793,9.666484999994282,10.309554999985266,10.981490000005579,11.671159999998054,12.197530000004917,12.884335000009742]",space,1.201775,0.0,7.0,7.0,8.0,1.0,,,,,,,,,,,,,
,,,,,,,,,,block_1/medium_t_119_3.wav,timbre,t,medium,119.0,2.226222359,10.98477111,,,,Y,Chinese unbranded,0,no,m,37,L,y,1,2020-09-07_08h44.56.737,kura-B2,2020.1.2,Win32,60,,,,"[""space"",""space"",""space"",""space"",""space"",""space"",""space"",""space"",""space"",""space"",""space"",""space"",""space"",""space"",""space"",""space"",""space"",""space"",""space"",""space""]","[0.3176699999894481,0.9378250000008848,1.4133699999947567,1.8312849999929313,2.2781749999849126,2.713679999986198,3.147019999974873,3.575844999984838,3.9748949999921024,4.455339999985881,4.87422999998671,5.346669999998994,5.803299999999581,6.249249999993481,6.711989999981597,7.172234999976354,7.598679999995511,8.04119499999797,8.515909999987343,8.989689999987604]",space,0.89027,0.0,8.0,8.0,37.0,1.0,,,,,,,,,,,,,
,,,,,,,,,,block_1/none_t_105_4.wav,timbre,t,none,105.0,1.782068205,15.59785052,,,,Y,Chinese unbranded,0,no,m,37,L,y,1,2020-09-07_08h44.56.737,kura-B2,2020.1.2,Win32,60,,,,"[""space"",""space"",""space"",""space"",""space"",""space"",""space"",""space"",""space"",""space"",""space"",""space"",""space"",""space"",""space"",""space"",""space"",""space"",""space"",""space"",""space"",""space"",""space"",""space"",""space""]","[0.6889099999971222,1.328110000002198,1.843395000003511,2.4875149999861605,3.1790650000039022,3.8937900000019,4.544564999989234,4.920175000006566,5.475745000003371,6.005145000002813,6.62761500000488,7.179739999992307,7.613359999988461,8.005650000006426,8.523235000000568,9.127424999984214,9.52392000000691,10.043544999993173,10.645790000009583,11.227610000001732,11.726284999982454,12.20272999998997,12.869650000007823,13.325790000002598,13.852610000001732]",space,8.3129,0.0,9.0,9.0,20.0,1.0,,,,,,,,,,,,,
,,,,,,,,,,block_1/strong_t_119_3.wav,timbre,t,strong,119.0,1.722630655,12.55029505,,,,Y,Chinese unbranded,0,no,m,37,L,y,1,2020-09-07_08h44.56.737,kura-B2,2020.1.2,Win32,60,,,,"[""space"",""space"",""space"",""space"",""space"",""space"",""space"",""space"",""space"",""space"",""space"",""space"",""space"",""space"",""space"",""space"",""space"",""space""]","[1.5264749999914784,2.100059999997029,2.658899999980349,3.160104999988107,3.7422499999811407,4.241909999982454,4.841974999988452,5.311744999984512,6.0351599999994505,6.518160000006901,7.059259999979986,7.597840000002179,8.201169999985723,8.77125999997952,9.316070000000764,9.871205000003101,10.493524999998044,11.029569999984233]",space,5.184395,0.0,10.0,10.0,28.0,1.0,,,,,,,,,,,,,
,,,,,,,,,,block_1/none_t_92_3.wav,timbre,t,none,92.0,1.813425609,13.88349364,,,,Y,Chinese unbranded,0,no,m,37,L,y,1,2020-09-07_08h44.56.737,kura-B2,2020.1.2,Win32,60,,,,"[""space"",""space"",""space"",""space"",""space"",""space"",""space"",""space"",""space"",""space"",""space"",""space"",""space"",""space"",""space"",""space"",""space"",""space"",""space"",""space"",""space"",""space""]","[0.47390000001178123,1.0012100000167266,1.4362850000034086,1.832075000012992,2.4095950000046287,2.9373450000130106,3.5978400000021793,4.180515000014566,4.843365000007907,5.452945000026375,6.043130000005476,6.710425000026589,7.204275000025518,7.855370000004768,8.50560500001302,9.026595000002999,9.584679999999935,10.252490000013495,10.87673500002711,11.43154499999946,11.927750000002561,12.378390000027139]",space,1.25153,0.0,11.0,11.0,17.0,1.0,,,,,,,,,,,,,
,,,,,,,,,,block_1/weak_t_92_3.wav,timbre,t,weak,92.0,1.190820523,16.55263458,,,,Y,Chinese unbranded,0,no,m,37,L,y,1,2020-09-07_08h44.56.737,kura-B2,2020.1.2,Win32,60,,,,"[""space"",""space"",""space"",""space"",""space"",""space"",""space"",""space"",""space"",""space"",""space"",""space"",""space"",""space"",""space"",""space"",""space"",""space"",""space"",""space""]","[0.6488950000202749,1.620615000021644,2.3917099999962375,3.232270000007702,4.022595000016736,4.781184999999823,5.629810000013094,6.32984000002034,7.18343500001356,7.865864999999758,8.642365000006976,9.417955000011716,10.21296999999322,11.072650000016438,11.869724999996834,12.594475000019884,13.541159999993397,14.234309999999823,14.782310000009602,15.59634499999811]",space,3.746645,0.0,12.0,12.0,38.0,1.0,,,,,,,,,,,,,
,,,,,,,,,,block_1/none_t_119_3.wav,timbre,t,none,119.0,1.169893331,12.28885025,,,,Y,Chinese unbranded,0,no,m,37,L,y,1,2020-09-07_08h44.56.737,kura-B2,2020.1.2,Win32,60,,,,"[""space"",""space"",""space"",""space"",""space"",""space"",""space"",""space"",""space"",""space"",""space"",""space"",""space"",""space"",""space"",""space"",""space"",""space"",""space""]","[0.32052999999723397,1.0250250000099186,1.7408050000085495,2.429675000021234,3.291010000015376,4.004205000004731,4.5645950000034645,5.005215000011958,5.553190000005998,6.142915000003995,6.772170000011101,7.279020000016317,7.881110000016633,8.478980000014417,8.971359999995911,9.476665000023786,9.977375000016764,10.542979999998352,11.155265000008512]",space,0.48539,0.0,13.0,13.0,32.0,1.0,,,,,,,,,,,,,
,,,,,,,,,,block_1/weak_t_81_3.wav,timbre,t,weak,81.0,1.53156375,17.80117826,,,,Y,Chinese unbranded,0,no,m,37,L,y,1,2020-09-07_08h44.56.737,kura-B2,2020.1.2,Win32,60,,,,"[""space"",""space"",""space"",""space"",""space"",""space"",""space"",""space"",""space"",""space"",""space"",""space"",""space"",""space"",""space"",""space"",""space"",""space"",""space"",""space"",""space"",""space"",""space""]","[0.4315000000060536,1.0925250000145752,1.8976700000057463,2.69400499999756,3.4532300000137184,3.9360349999915343,4.595945000008214,5.200045000005048,6.043234999990091,6.737599999993108,7.488314999995055,8.154195000010077,8.682120000012219,9.238455000013346,9.832800000003772,10.678474999993341,11.637875000014901,12.536885000008624,13.255325000005541,13.997990000003483,14.739020000008168,15.472490000014659,16.29631999999401]",space,1.06429,0.0,14.0,14.0,6.0,1.0,,,,,,,,,,,,,
,,,,,,,,,,block_1/weak_t_119_3.wav,timbre,t,weak,119.0,1.729530605,11.14109523,,,,Y,Chinese unbranded,0,no,m,37,L,y,1,2020-09-07_08h44.56.737,kura-B2,2020.1.2,Win32,60,,,,"[""space"",""space"",""space"",""space"",""space"",""space"",""space"",""space"",""space"",""space"",""space"",""space"",""space"",""space"",""space"",""space""]","[0.35027999998419546,1.3036499999871012,2.0857099999848288,2.810464999987744,3.451374999975087,3.9680249999801163,4.4927999999781605,5.175629999983357,5.833649999985937,6.36019999999553,6.90587499999674,7.366864999989048,8.0832099999825,8.641319999995176,9.120699999999488,9.58871499999077]",space,0.62451,0.0,15.0,15.0,13.0,1.0,,,,,,,,,,,,,
,,,,,,,,,,block_1/medium_t_119_4.wav,timbre,t,medium,119.0,1.399295551,11.22011188,,,,Y,Chinese unbranded,0,no,m,37,L,y,1,2020-09-07_08h44.56.737,kura-B2,2020.1.2,Win32,60,,,,"[""space"",""space"",""space"",""space"",""space"",""space"",""space"",""space"",""space"",""space"",""space"",""space"",""space"",""space"",""space"",""space"",""space"",""space"",""space"",""space""]","[0.2950200000195764,0.9340500000107568,1.3964100000157487,1.873475000000326,2.3253850000037346,2.891425000008894,3.337645000021439,3.8352500000037253,4.343395000003511,4.826995000010356,5.376000000018394,5.818900000012945,6.35224500001641,6.818484999996144,7.387054999999236,7.855345000018133,8.445880000013858,8.961240000004182,9.450860000011744,10.048089999996591]",space,3.37099,0.0,16.0,16.0,30.0,1.0,,,,,,,,,,,,,
,,,,,,,,,,block_1/strong_t_105_3.wav,timbre,t,strong,105.0,1.518747526,13.05135524,,,,Y,Chinese unbranded,0,no,m,37,L,y,1,2020-09-07_08h44.56.737,kura-B2,2020.1.2,Win32,60,,,,"[""space"",""space"",""space"",""space"",""space"",""space"",""space"",""space"",""space"",""space"",""space"",""space"",""space"",""space"",""space"",""space"",""space"",""space"",""space"",""space""]","[0.6354200000059791,1.2410600000002887,1.7680450000043493,2.3308100000140257,2.918869999994058,3.5531150000169873,4.139599999994971,4.654110000003129,5.297084999998333,5.890429999999469,6.462885000015376,7.023279999993974,7.589440000010654,8.201274999999441,8.785070000012638,9.378555000002962,9.93181999999797,10.578240000002552,11.129695000010543,11.76144000000204]",space,0.90463,0.0,17.0,17.0,21.0,1.0,,,,,,,,,,,,,
,,,,,,,,,,block_1/medium_t_92_4.wav,timbre,t,medium,92.0,1.590939721,14.58753836,,,,Y,Chinese unbranded,0,no,m,37,L,y,1,2020-09-07_08h44.56.737,kura-B2,2020.1.2,Win32,60,,,,"[""space"",""space"",""space"",""space"",""space"",""space"",""space"",""space"",""space"",""space"",""space"",""space"",""space"",""space"",""space"",""space"",""space"",""space"",""space"",""space""]","[0.513875000004191,1.2779299999820068,1.9478200000012293,2.6060099999886006,3.2463849999767262,3.9519149999832734,4.5912050000042655,5.2310599999909755,5.963575000001583,6.582209999993211,7.243124999979045,7.96224500000244,8.657844999979716,9.363819999998668,9.951464999991003,10.60683499998413,11.307999999989988,12.025679999991553,12.66273499999079,13.299574999982724]",space,0.70671,0.0,18.0,18.0,25.0,1.0,,,,,,,,,,,,,
,,,,,,,,,,block_1/strong_t_105_4.wav,timbre,t,strong,105.0,2.094581561,12.21235934,,,,Y,Chinese unbranded,0,no,m,37,L,y,1,2020-09-07_08h44.56.737,kura-B2,2020.1.2,Win32,60,,,,"[""space"",""space"",""space"",""space"",""space"",""space"",""space"",""space"",""space"",""space"",""space"",""space"",""space"",""space"",""space"",""space"",""space"",""space"",""space"",""space"",""space""]","[0.6360900000145193,0.9679750000068452,1.3162750000192318,1.7557450000022072,2.2232249999942724,2.7059100000187755,3.2130250000045635,3.689119999995455,4.217204999993555,4.740640000003623,5.238100000016857,5.72079500000109,6.2246199999935925,6.694054999999935,7.189130000013392,7.69662000000244,8.205970000009984,8.69168499999796,9.199164999998175,9.717875000002095,10.219210000010207]",space,0.61038,0.0,19.0,19.0,18.0,1.0,,,,,,,,,,,,,
,,,,,,,,,,block_1/strong_t_81_4.wav,timbre,t,strong,81.0,1.870008989,16.22765071,,,,Y,Chinese unbranded,0,no,m,37,L,y,1,2020-09-07_08h44.56.737,kura-B2,2020.1.2,Win32,60,,,,"[""space"",""space"",""space"",""space"",""space"",""space"",""space"",""space"",""space"",""space"",""space"",""space"",""space"",""space"",""space"",""space"",""space"",""space"",""space"",""space"",""space""]","[0.5794549999991432,1.0023050000017975,1.6477299999969546,2.2775350000010803,2.9753700000001118,3.738515000004554,4.46463999999105,5.12138500000583,5.90241499998956,6.622979999985546,7.350249999988591,8.054624999989755,8.820719999988796,9.569290000014007,10.258104999986244,10.922850000002654,11.65236000000732,12.370135000004666,13.173264999990351,13.891889999998966,14.654370000003837]",space,1.335325,0.0,20.0,20.0,34.0,1.0,,,,,,,,,,,,,
,,,,,,,,,,block_1/medium_t_81_4.wav,timbre,t,medium,81.0,1.136743646,13.9322992,,,,Y,Chinese unbranded,0,no,m,37,L,y,1,2020-09-07_08h44.56.737,kura-B2,2020.1.2,Win32,60,,,,"[""space"",""space"",""space"",""space"",""space"",""space"",""space"",""space"",""space"",""space"",""space"",""space"",""space"",""space"",""space"",""space"",""space"",""space"",""space"",""space""]","[0.654804999998305,1.1579900000069756,1.8208699999959208,2.521810000005644,3.171505000005709,3.8055250000033993,4.390405000012834,5.002884999994421,5.663689999986673,6.263934999995399,6.997204999992391,7.691879999998491,8.385970000002999,9.017460000002757,9.684069999988424,10.375360000005458,10.973254999989877,11.65442500001518,12.292400000005728,13.011020000005374]",space,1.424265,0.0,21.0,21.0,2.0,1.0,,,,,,,,,,,,,
,,,,,,,,,,block_1/none_t_72_3.wav,timbre,t,none,72.0,1.707698408,21.90234693,,,,Y,Chinese unbranded,0,no,m,37,L,y,1,2020-09-07_08h44.56.737,kura-B2,2020.1.2,Win32,60,,,,"[""space"",""space"",""space"",""space"",""space"",""space"",""space"",""space"",""space"",""space"",""space"",""space"",""space"",""space"",""space"",""space"",""space"",""space"",""space"",""space"",""space"",""space"",""space"",""space"",""space"",""space"",""space"",""space"",""space"",""space"",""space"",""space"",""space"",""space"",""space"",""space"",""space"",""space""]","[0.33109500000136904,0.9393900000141002,1.4875800000154413,2.07089500001166,2.8755000000237487,3.6223600000084843,4.306185000023106,4.735430000000633,5.270040000003064,5.987675000011222,6.53379000001587,6.9865800000261515,7.566765000025043,8.228045000025304,8.82640000001993,9.369400000025053,9.778805000009015,10.290375000011409,10.655460000009043,10.917190000007395,11.39328500002739,11.897875000024214,12.520215000025928,13.04310500001884,13.600215000013122,14.17453500002739,14.643250000022817,15.124590000021271,15.640885000000708,16.21059500001138,16.845120000012685,17.37343000000692,17.85584000000381,18.385275000007823,18.924200000008568,19.408425000001444,19.83538000000408,20.425020000024233]",space,3.444325,0.0,22.0,22.0,19.0,1.0,,,,,,,,,,,,,
,,,,,,,,,,block_1/strong_t_92_4.wav,timbre,t,strong,92.0,1.022726917,13.26377,,,,Y,Chinese unbranded,0,no,m,37,L,y,1,2020-09-07_08h44.56.737,kura-B2,2020.1.2,Win32,60,,,,"[""space"",""space"",""space"",""space"",""space"",""space"",""space"",""space"",""space"",""space"",""space"",""space"",""space"",""space"",""space"",""space"",""space"",""space"",""space"",""space""]","[0.7742799999832641,1.1105349999852479,1.6772699999855831,2.2815999999875203,2.895829999994021,3.518389999982901,4.172554999997374,4.794605000002775,5.435419999994338,6.091514999978244,6.779244999983348,7.327055000001565,7.949309999996331,8.601579999987734,9.201164999976754,9.864079999999376,10.547384999983478,11.174934999988182,11.783849999977974,12.438709999987623]",space,1.29274,0.0,23.0,23.0,9.0,1.0,,,,,,,,,,,,,
,,,,,,,,,,block_1/weak_t_92_4.wav,timbre,t,weak,92.0,1.530875014,13.01332399,,,,Y,Chinese unbranded,0,no,m,37,L,y,1,2020-09-07_08h44.56.737,kura-B2,2020.1.2,Win32,60,,,,"[""space"",""space"",""space"",""space"",""space"",""space"",""space"",""space"",""space"",""space"",""space"",""space"",""space"",""space"",""space"",""space"",""space"",""space"",""space"",""space"",""space""]","[0.3830700000107754,0.8920449999859557,1.3477100000018254,1.9226699999999255,2.3884499999985565,2.9353750000009313,3.540115000010701,4.088564999983646,4.70935499999905,5.269644999993034,5.826860000001034,6.4936699999962,7.05968499998562,7.6404899999906775,8.212475000007544,8.793539999984205,9.33769499999471,9.91180999999051,10.501164999994216,11.139904999989085,11.725745000003371]",space,0.474785,0.0,24.0,24.0,29.0,1.0,,,,,,,,,,,,,
,,,,,,,,,,block_1/strong_t_72_4.wav,timbre,t,strong,72.0,1.194355845,16.3115894,,,,Y,Chinese unbranded,0,no,m,37,L,y,1,2020-09-07_08h44.56.737,kura-B2,2020.1.2,Win32,60,,,,"[""space"",""space"",""space"",""space"",""space"",""space"",""space"",""space"",""space"",""space"",""space"",""space"",""space"",""space"",""space"",""space"",""space"",""space"",""space"",""space""]","[0.8290200000046752,1.3057250000128988,2.1071050000027753,2.8240200000000186,3.586634999985108,4.427159999992,5.202155000006314,6.005689999990864,6.707894999999553,7.536939999990864,8.30926000000909,9.067780000012135,9.87517499999376,10.61505500000203,11.446629999991274,12.286495000007562,13.054960000008577,13.80475499999011,14.614494999987073,15.377600000007078]",space,0.47787,0.0,25.0,25.0,1.0,1.0,,,,,,,,,,,,,
,,,,,,,,,,block_1/strong_t_119_4.wav,timbre,t,strong,119.0,1.237037075,11.10492823,,,,Y,Chinese unbranded,0,no,m,37,L,y,1,2020-09-07_08h44.56.737,kura-B2,2020.1.2,Win32,60,,,,"[""space"",""space"",""space"",""space"",""space"",""space"",""space"",""space"",""space"",""space"",""space"",""space"",""space"",""space"",""space"",""space"",""space"",""space"",""space"",""space""]","[0.6715550000080839,0.9680050000024494,1.4501800000143703,1.9519650000147521,2.4117649999971036,2.916174999991199,3.4178700000047684,3.9765450000122655,4.429094999999506,4.933244999992894,5.439814999990631,5.951375000004191,6.482915000000503,6.944320000009611,7.453310000011697,7.983494999993127,8.493000000016764,8.978109999996377,9.452315000002272,9.994074999995064]",space,0.41822,0.0,26.0,26.0,39.0,1.0,,,,,,,,,,,,,
,,,,,,,,,,block_1/none_t_72_4.wav,timbre,t,none,72.0,1.772355542,25.47190203,,,,Y,Chinese unbranded,0,no,m,37,L,y,1,2020-09-07_08h44.56.737,kura-B2,2020.1.2,Win32,60,,,,"[""space"",""space"",""space"",""space"",""space"",""space"",""space"",""space"",""space"",""space"",""space"",""space"",""space"",""space"",""space"",""space"",""space"",""space"",""space"",""space"",""space"",""space"",""space"",""space"",""space"",""space"",""space"",""space"",""space"",""space"",""space"",""space"",""space"",""space"",""space"",""space"",""space"",""space"",""space"",""space""]","[0.36536500000511296,1.1369700000213925,1.8625100000062957,2.327530000009574,2.8879200000083074,3.4442000000271946,3.96785000001546,4.565790000022389,5.240110000013374,5.8730150000192225,6.367440000001807,6.924855000019306,7.423710000002757,7.984380000008969,8.574405000021216,9.112945000000764,9.703765000012936,10.24843000000692,10.7687900000019,11.306065000011586,11.942090000025928,12.650665000022855,13.296660000021802,13.836810000007972,14.417470000014873,14.991605000017444,15.606130000000121,16.18222000001697,16.7476650000026,17.517170000006445,18.043215000012424,18.571635000000242,19.149820000020554,19.726455000025453,20.31700500001898,20.904450000001816,21.554830000008224,22.103030000027502,22.68382500001462,23.335630000015954]",space,129.959665,0.0,27.0,27.0,15.0,1.0,,,,,,,,,,,,,
,,,,,,,,,,block_1/medium_t_92_3.wav,timbre,t,medium,92.0,2.360774731,14.34626226,,,,Y,Chinese unbranded,0,no,m,37,L,y,1,2020-09-07_08h44.56.737,kura-B2,2020.1.2,Win32,60,,,,"[""space"",""space"",""space"",""space"",""space"",""space"",""space"",""space"",""space"",""space"",""space"",""space"",""space"",""space"",""space"",""space"",""space"",""space"",""space"",""space""]","[0.6339800000132527,1.2832950000010896,2.0944149999995716,2.600040000019362,3.136415000015404,3.816625000006752,4.511129999998957,5.050390000018524,5.5929850000247825,6.1914099999994505,6.7507949999999255,7.410075000021607,7.961880000017118,8.593880000000354,9.166975000000093,9.7172750000027,10.377880000014557,10.883700000005774,11.619189999997616,12.20250000001397]",space,0.418875,0.0,28.0,28.0,35.0,1.0,,,,,,,,,,,,,
,,,,,,,,,,block_1/weak_t_105_3.wav,timbre,t,weak,105.0,2.038080476,13.26905553,,,,Y,Chinese unbranded,0,no,m,37,L,y,1,2020-09-07_08h44.56.737,kura-B2,2020.1.2,Win32,60,,,,"[""space"",""space"",""space"",""space"",""space"",""space"",""space"",""space"",""space"",""space"",""space"",""space"",""space"",""space"",""space"",""space"",""space"",""space"",""space"",""space""]","[0.30267500001355074,1.076100000005681,1.704825000022538,2.270570000022417,2.867930000007618,3.6025450000015553,4.069915000000037,4.625605000008363,5.1842950000136625,5.700420000008307,6.257315000024391,6.771365000022342,7.470610000018496,8.044510000006994,8.670559999998659,9.24257500001113,9.73898000002373,10.32259000002523,10.918530000024475,11.456935000023805]",space,0.56004,0.0,29.0,29.0,4.0,1.0,,,,,,,,,,,,,
,,,,,,,,,,block_1/medium_t_72_4.wav,timbre,t,medium,72.0,1.659874932,19.69733525,,,,Y,Chinese unbranded,0,no,m,37,L,y,1,2020-09-07_08h44.56.737,kura-B2,2020.1.2,Win32,60,,,,"[""space"",""space"",""space"",""space"",""space"",""space"",""space"",""space"",""space"",""space"",""space"",""space"",""space"",""space"",""space"",""space"",""space"",""space"",""space"",""space"",""space"",""space""]","[0.6068199999863282,1.1413999999931548,1.868799999996554,2.6932600000000093,3.3380099999776576,3.9293149999866728,4.7987799999827985,5.736210000002757,6.6707449999812525,7.649024999991525,8.453414999996312,9.355869999999413,10.257394999993267,11.105749999987893,11.962765000003856,12.851044999988517,13.710644999984652,14.701964999985648,15.517879999999423,16.336054999992484,17.305809999990743,18.28023000000394]",space,0.44104,0.0,30.0,30.0,36.0,1.0,,,,,,,,,,,,,
,,,,,,,,,,block_1/weak_t_81_4.wav,timbre,t,weak,81.0,2.31768599,15.5134683,,,,Y,Chinese unbranded,0,no,m,37,L,y,1,2020-09-07_08h44.56.737,kura-B2,2020.1.2,Win32,60,,,,"[""space"",""space"",""space"",""space"",""space"",""space"",""space"",""space"",""space"",""space"",""space"",""space"",""space"",""space"",""space"",""space"",""space"",""space"",""space"",""space"",""space""]","[0.4181549999921117,1.062340000004042,1.6016850000014529,2.126829999993788,2.7309499999973923,3.35999999998603,3.9430649999994785,4.662509999994654,5.350669999985257,5.978154999989783,6.7002250000077765,7.394934999989346,8.041345000005094,8.711039999994682,9.406419999984792,10.114579999994021,10.7816799999855,11.518034999986412,12.201849999983096,12.752639999991516,13.475124999997206]",space,0.80764,0.0,31.0,31.0,0.0,1.0,,,,,,,,,,,,,
,,,,,,,,,,block_1/weak_t_105_4.wav,timbre,t,weak,105.0,1.882880114,13.41285744,,,,Y,Chinese unbranded,0,no,m,37,L,y,1,2020-09-07_08h44.56.737,kura-B2,2020.1.2,Win32,60,,,,"[""space"",""space"",""space"",""space"",""space"",""space"",""space"",""space"",""space"",""space"",""space"",""space"",""space"",""space"",""space"",""space"",""space"",""space"",""space"",""space"",""space""]","[0.5074000000022352,1.0682350000133738,1.5309950000082608,2.084625000017695,2.6597250000049826,3.198100000008708,3.720530000020517,4.269765000004554,4.766390000004321,5.292905000009341,5.902939999999944,6.450865000020713,7.052140000014333,7.620705000008456,8.225875000003725,8.77566499999375,9.359064999996917,9.968190000014147,10.489995000010822,11.08772000001045,11.699850000004517]",space,0.48,0.0,32.0,32.0,7.0,1.0,,,,,,,,,,,,,
,,,,,,,,,,block_1/strong_t_81_3.wav,timbre,t,strong,81.0,2.437587677,17.65296183,,,,Y,Chinese unbranded,0,no,m,37,L,y,1,2020-09-07_08h44.56.737,kura-B2,2020.1.2,Win32,60,,,,"[""space"",""space"",""space"",""space"",""space"",""space"",""space"",""space"",""space"",""space"",""space"",""space"",""space"",""space"",""space"",""space"",""space"",""space"",""space"",""space"",""space""]","[0.6562400000111666,1.1203700000187382,1.6547750000027008,2.40363499999512,3.2113349999999627,3.936474999994971,4.730045000003884,5.435614999994868,6.241955000004964,7.021995000017341,7.809195000008913,8.51323000001139,9.315660000022035,10.069725000008475,10.867989999998827,11.642090000008466,12.379704999999376,13.203745000006165,13.951410000008764,14.773565000010421,15.504810000013094]",space,0.40588,0.0,33.0,33.0,24.0,1.0,,,,,,,,,,,,,
,,,,,,,,,,block_1/none_t_81_3.wav,timbre,t,none,81.0,2.10326082,21.36648077,,,,Y,Chinese unbranded,0,no,m,37,L,y,1,2020-09-07_08h44.56.737,kura-B2,2020.1.2,Win32,60,,,,"[""space"",""space"",""space"",""space"",""space"",""space"",""space"",""space"",""space"",""space"",""space"",""space"",""space"",""space"",""space"",""space"",""space"",""space"",""space"",""space"",""space"",""space"",""space"",""space"",""space""]","[0.505894999980228,1.2444949999917299,2.011724999989383,2.850449999998091,3.6254099999787286,4.5948499999940395,5.3175999999803025,6.027114999975311,6.817179999983637,7.485124999977415,8.2447449999745,8.927149999974063,9.635129999980563,10.353499999997439,11.0135349999764,11.724119999998948,12.47645499999635,13.159124999976484,13.919274999992922,14.787799999990966,15.577534999989439,16.422294999996666,17.252204999997048,18.319799999997485,19.242754999984754]",space,1.325145,0.0,34.0,34.0,10.0,1.0,,,,,,,,,,,,,
,,,,,,,,,,block_1/none_t_119_4.wav,timbre,t,none,119.0,1.977931805,11.04042614,,,,Y,Chinese unbranded,0,no,m,37,L,y,1,2020-09-07_08h44.56.737,kura-B2,2020.1.2,Win32,60,,,,"[""space"",""space"",""space"",""space"",""space"",""space"",""space"",""space"",""space"",""space"",""space"",""space"",""space"",""space""]","[0.312019999983022,0.926500000001397,1.6030449999962002,2.451169999985723,3.238259999983711,3.926194999978179,4.558729999989737,5.18293999999878,5.898224999982631,6.717990000004647,7.633364999986952,8.25249499999336,8.994630000001052,9.520369999983814]",space,0.569295,0.0,35.0,35.0,27.0,1.0,,,,,,,,,,,,,
,,,,,,,,,,block_1/weak_t_119_4.wav,timbre,t,weak,119.0,1.438381355,12.04736095,,,,Y,Chinese unbranded,0,no,m,37,L,y,1,2020-09-07_08h44.56.737,kura-B2,2020.1.2,Win32,60,,,,"[""space"",""space"",""space"",""space"",""space"",""space"",""space"",""space"",""space"",""space"",""space"",""space"",""space"",""space"",""space"",""space"",""space"",""space"",""space""]","[0.4694900000176858,1.07099500001641,1.6748800000059418,2.158560000010766,2.886180000001332,3.7174250000098255,4.2967850000131875,4.796890000026906,5.368000000016764,5.970895000005839,6.597550000005867,7.091290000011213,7.486775000026682,7.968375000025844,8.517960000026505,9.02290000001085,9.487645000015618,9.936880000022938,10.477270000003045]",space,0.71774,0.0,36.0,36.0,11.0,1.0,,,,,,,,,,,,,
,,,,,,,,,,block_1/medium_t_105_4.wav,timbre,t,medium,105.0,2.498438995,14.23458412,,,,Y,Chinese unbranded,0,no,m,37,L,y,1,2020-09-07_08h44.56.737,kura-B2,2020.1.2,Win32,60,,,,"[""space"",""space"",""space"",""space"",""space"",""space"",""space"",""space"",""space"",""space"",""space"",""space"",""space"",""space"",""space"",""space"",""space"",""space"",""space""]","[0.6519399999815505,1.1619950000022072,1.6237049999763258,2.251619999995455,2.8565399999788497,3.4417399999802,4.018775000004098,4.620479999983218,5.326284999988275,5.926559999992605,6.524199999985285,7.156244999991031,7.7358299999905284,8.37988999998197,8.960510000004433,9.56840999997803,10.175859999988461,10.770989999989979,11.320919999998296]",space,0.644545,0.0,37.0,37.0,23.0,1.0,,,,,,,,,,,,,
,,,,,,,,,,block_1/none_t_105_3.wav,timbre,t,none,105.0,2.248615294,16.06934092,,,,Y,Chinese unbranded,0,no,m,37,L,y,1,2020-09-07_08h44.56.737,kura-B2,2020.1.2,Win32,60,,,,"[""space"",""space"",""space"",""space"",""space"",""space"",""space"",""space"",""space"",""space"",""space"",""space"",""space"",""space"",""space"",""space"",""space"",""space"",""space"",""space"",""space"",""space"",""space""]","[2.409155000001192,2.871564999979455,3.7267249999858905,4.439439999987371,4.934159999975236,5.480530000000726,6.155724999989616,6.699549999990268,7.222734999988461,7.550004999997327,7.7615399999776855,8.330414999974892,8.84030999999959,9.386084999976447,9.88277999998536,10.43521499997587,11.121424999990268,11.625889999995707,12.20895999998902,12.60257499999716,13.152634999976726,13.685230000002775,14.184639999992214]",space,0.48608,0.0,38.0,38.0,14.0,1.0,,,,,,,,,,,,,
,,,,,,,,,,block_1/weak_t_72_4.wav,timbre,t,weak,72.0,1.01386198,17.48964429,,,,Y,Chinese unbranded,0,no,m,37,L,y,1,2020-09-07_08h44.56.737,kura-B2,2020.1.2,Win32,60,,,,"[""space"",""space"",""space"",""space"",""space"",""space"",""space"",""space"",""space"",""space"",""space"",""space"",""space"",""space"",""space"",""space"",""space"",""space"",""space"",""space""]","[0.5524400000285823,1.0378100000089034,1.772240000020247,2.725560000020778,3.5342300000193063,4.370460000005551,5.106975000002421,6.0046800000127405,6.845780000003288,7.661935000010999,8.46805000002496,9.335090000007767,10.090055000007851,10.95157500001369,11.828305000002729,12.602920000004815,13.691620000026887,14.46812500001397,15.226305000018328,16.08492500000284]",space,0.42287,0.0,39.0,39.0,33.0,1.0,,,,,,,,,,,,,
,,,,,,,,,,block_2/weak_n_92_3.wav,no,n,weak,92.0,2.16711471,14.91038002,,,,Y,Chinese unbranded,0,no,m,37,L,y,1,2020-09-07_08h44.56.737,kura-B2,2020.1.2,Win32,60,,,,,,,,,,,,,space,3.831355,"[""space"",""space"",""space"",""space"",""space"",""space"",""space"",""space"",""space"",""space"",""space"",""space"",""space"",""space"",""space"",""space"",""space"",""space"",""space"",""space"",""space""]","[0.2961749999958556,0.9058650000079069,1.428264999995008,1.984904999990249,2.6061050000134856,3.2536700000055134,3.8676550000091083,4.427504999999655,5.102054999995744,5.754790000006324,6.4118299999972805,7.088504999992438,7.788044999993872,8.451564999995753,9.07700499999919,9.728839999996126,10.502995000017108,11.008804999990389,11.675285000004806,12.28877499999362,13.030919999990147]",space,0.34722,0.0,0.0,0.0,5.0,1.0,,
,,,,,,,,,,block_2/weak_n_92_4.wav,no,n,weak,92.0,2.26710089,14.35326869,,,,Y,Chinese unbranded,0,no,m,37,L,y,1,2020-09-07_08h44.56.737,kura-B2,2020.1.2,Win32,60,,,,,,,,,,,,,,,"[""space"",""space"",""space"",""space"",""space"",""space"",""space"",""space"",""space"",""space"",""space"",""space"",""space"",""space"",""space"",""space"",""space"",""space"",""space"",""space"",""space""]","[0.3037400000030175,0.8556600000010803,1.3744400000141468,1.993914999999106,2.5980750000162516,3.1952849999943282,3.82249000002048,4.4033500000077765,4.955500000010943,5.566129999991972,6.186745000013616,6.762905000010505,7.3736900000076275,8.011205000017071,8.657915000017965,9.270569999993313,9.848415000014938,10.473889999993844,11.001825000013923,11.62522000001627,12.218164999998407]",space,1.984195,0.0,1.0,1.0,15.0,1.0,,
,,,,,,,,,,block_2/medium_n_81_3.wav,no,n,medium,81.0,2.235189468,17.75582439,,,,Y,Chinese unbranded,0,no,m,37,L,y,1,2020-09-07_08h44.56.737,kura-B2,2020.1.2,Win32,60,,,,,,,,,,,,,,,"[""space"",""space"",""space"",""space"",""space"",""space"",""space"",""space"",""space"",""space"",""space"",""space"",""space"",""space"",""space"",""space"",""space"",""space"",""space"",""space""]","[0.4544000000169035,1.1096500000276137,2.0536900000006426,2.809530000027735,3.664260000019567,4.491875000006985,5.257455000013579,6.033855000016047,6.885480000026291,7.621045000007143,8.402120000013383,9.15024000001722,10.040880000015022,10.950145000009798,11.719285000028322,12.501155000005383,13.290505000011763,14.054540000011912,14.884825000015553,15.636725000018487]",space,0.52644,0.0,2.0,2.0,33.0,1.0,,
,,,,,,,,,,block_2/medium_n_105_3.wav,no,n,medium,105.0,2.480661226,14.16274739,,,,Y,Chinese unbranded,0,no,m,37,L,y,1,2020-09-07_08h44.56.737,kura-B2,2020.1.2,Win32,60,,,,,,,,,,,,,,,"[""space"",""space"",""space"",""space"",""space"",""space"",""space"",""space"",""space"",""space"",""space"",""space"",""space"",""space"",""space"",""space"",""space"",""space"",""space"",""space"",""space""]","[0.35641999999643303,0.9557050000003073,1.4461299999966286,1.9883649999974295,2.520894999994198,3.1366649999981746,3.734265000006417,4.289940000016941,4.8527650000178255,5.4032850000076,6.006475000001956,6.559410000016214,7.157055000017863,7.71987000000081,8.29365500001586,8.908815000002505,9.52472499999567,10.055600000021514,10.652679999999236,11.24369500001194,12.08410500001628]",space,0.487945,0.0,3.0,3.0,0.0,1.0,,
,,,,,,,,,,block_2/none_n_92_3.wav,no,n,none,92.0,2.008897919,17.90894327,,,,Y,Chinese unbranded,0,no,m,37,L,y,1,2020-09-07_08h44.56.737,kura-B2,2020.1.2,Win32,60,,,,,,,,,,,,,,,"[""space"",""space"",""space"",""space"",""space"",""space"",""space"",""space"",""space"",""space"",""space"",""space"",""space"",""space"",""space"",""space"",""space"",""space"",""space"",""space"",""space"",""space"",""space"",""space"",""space"",""space"",""space"",""space"",""space"",""space"",""space"",""space"",""space"",""space"",""space"",""space"",""space"",""space"",""space"",""space"",""space"",""space"",""space"",""space"",""space"",""space""]","[0.37908499999321066,0.8975849999987986,1.5667100000136998,2.2762649999931455,2.6669200000178535,3.119555000012042,3.4035600000061095,3.899650000006659,4.139874999993481,4.728605000011157,5.350720000016736,5.712900000013178,6.294439999997849,6.551689999992959,6.842325000005076,7.261389999999665,7.628045000019483,8.073050000006333,8.336230000015348,8.578689999994822,8.8496500000183,9.22789000000921,9.50914500001818,9.77868000001763,10.113535000011325,10.359490000002552,10.652640000014799,10.943564999994123,11.25734999999986,11.543630000000121,11.823375000007218,12.130730000004405,12.436740000004647,12.704534999997122,13.00047500000801,13.247555000009015,13.522530000016559,13.833990000013728,14.119405000004917,14.37181499999133,14.668955000001006,14.930660000012722,15.21849500000826,15.523910000018077,15.785349999991013,16.060880000004545]",space,0.356865,0.0,4.0,4.0,25.0,1.0,,
,,,,,,,,,,block_2/none_n_81_3.wav,no,n,none,81.0,2.161532659,18.80565964,,,,Y,Chinese unbranded,0,no,m,37,L,y,1,2020-09-07_08h44.56.737,kura-B2,2020.1.2,Win32,60,,,,,,,,,,,,,,,"[""space"",""space"",""space"",""space"",""space"",""space"",""space"",""space"",""space"",""space"",""space"",""space"",""space"",""space"",""space"",""space"",""space"",""space"",""space"",""space"",""space"",""space"",""space"",""space"",""space"",""space"",""space"",""space"",""space"",""space"",""space"",""space"",""space"",""space"",""space"",""space"",""space"",""space"",""space"",""space"",""space"",""space"",""space"",""space"",""space"",""space"",""space"",""space"",""space"",""space"",""space"",""space"",""space"",""space"",""space""]","[0.3211849999788683,1.0468349999864586,1.755669999984093,1.9535249999898952,2.46720999997342,2.8240599999844562,3.202224999986356,3.6211599999805912,4.014274999994086,4.533165000000736,4.9777199999953154,5.333269999973709,5.884114999993471,6.393114999984391,6.804474999982631,7.167209999985062,7.5710849999741185,8.000539999979082,8.217079999973066,8.445974999980535,8.721019999997225,9.083799999993062,9.340424999973038,9.589474999986123,9.80028999998467,10.122204999992391,10.340219999983674,10.643629999976838,10.912614999979269,11.24454999997397,11.501949999976205,11.68912499997532,11.916689999983646,12.104359999997541,12.33607999997912,12.526439999986906,12.853179999976419,13.133869999990566,13.38527499997872,13.603210000001127,13.83655499998713,14.024989999976242,14.226139999984298,14.429494999989402,14.60314500000095,14.854294999997364,15.075724999973318,15.295979999995325,15.522719999979017,15.767879999999423,16.000694999995176,16.23637499997858,16.47821999998996,16.708444999996573,16.937019999983022]",space,1.18723,0.0,5.0,5.0,29.0,1.0,,
,,,,,,,,,,block_2/strong_n_105_3.wav,no,n,strong,105.0,2.095458379,13.32602527,,,,Y,Chinese unbranded,0,no,m,37,L,y,1,2020-09-07_08h44.56.737,kura-B2,2020.1.2,Win32,60,,,,,,,,,,,,,,,"[""space"",""space"",""space"",""space"",""space"",""space"",""space"",""space"",""space"",""space"",""space"",""space"",""space"",""space"",""space"",""space"",""space"",""space"",""space"",""space"",""space""]","[0.28877000001375563,0.7546650000149384,1.1147449999989476,1.6818000000203028,2.2220800000068266,2.776800000021467,3.328750000015134,3.9036900000064634,4.491425000014715,5.075125000003027,5.6328600000124425,6.243205000006128,6.770415000006324,7.328330000018468,7.892650000023423,8.526570000016363,9.16213000001153,9.674079999997048,10.26803999999538,10.8449950000213,11.426544999994803]",space,0.56988,0.0,6.0,6.0,9.0,1.0,,
,,,,,,,,,,block_2/none_n_105_4.wav,no,n,none,105.0,1.256367297,16.73296594,,,,Y,Chinese unbranded,0,no,m,37,L,y,1,2020-09-07_08h44.56.737,kura-B2,2020.1.2,Win32,60,,,,,,,,,,,,,,,"[""space"",""space"",""space"",""space"",""space"",""space"",""space"",""space"",""space"",""space"",""space"",""space"",""space"",""space"",""space"",""space"",""space"",""space"",""space"",""space"",""space"",""space"",""space"",""space"",""space"",""space"",""space"",""space"",""space"",""space"",""space"",""space"",""space"",""space"",""space"",""space"",""space"",""space"",""space"",""space"",""space"",""space"",""space"",""space"",""space"",""space"",""space"",""space"",""space"",""space"",""space"",""space"",""space"",""space"",""space"",""space"",""space"",""space"",""space"",""space""]","[0.6294599999964703,1.1100849999929778,1.420734999992419,1.8966000000073109,2.290240000002086,2.738069999992149,3.2386750000005122,3.6856749999860767,4.212274999998044,4.630795000004582,4.876344999996945,5.169339999993099,5.437210000003688,5.687910000007832,5.936969999980647,6.207194999995409,6.455294999992475,6.70319999998901,6.930380000005243,7.163954999996349,7.395799999998417,7.631369999988237,7.887554999993881,8.10204500000691,8.328244999982417,8.575169999996433,8.812290000001667,9.059204999997746,9.292404999985592,9.534175000007963,9.74469500000123,9.986719999986235,10.217665000003763,10.439134999993257,10.686519999988377,10.892584999994142,11.086175000004005,11.300554999994347,11.534229999990202,11.694784999999683,11.928299999999581,12.13636000000406,12.33248499999172,12.53606499999296,12.734865000005811,12.953734999988228,13.148904999980005,13.32705999998143,13.492345000006026,13.687615000002552,13.895090000005439,14.098085000005085,14.286114999995334,14.501404999988154,14.718794999993406,14.917264999996405,15.142374999995809,15.360889999981737,15.568029999994906,15.767779999994673]",space,0.35187,0.0,7.0,7.0,14.0,1.0,,
,,,,,,,,,,block_2/medium_n_92_3.wav,no,n,medium,92.0,2.163023573,13.84869251,,,,Y,Chinese unbranded,0,no,m,37,L,y,1,2020-09-07_08h44.56.737,kura-B2,2020.1.2,Win32,60,,,,,,,,,,,,,,,"[""space"",""space"",""space"",""space"",""space"",""space"",""space"",""space"",""space"",""space"",""space"",""space"",""space"",""space"",""space"",""space"",""space"",""space"",""space"",""space"",""space""]","[0.36869500001193956,0.75289000000339,1.084835000016028,1.5939050000160933,2.1406300000089686,2.736880000011297,3.3679050000209827,3.9509950000210665,4.532280000013998,5.155070000007981,5.772605000005569,6.372065000003204,6.983370000001742,7.5883299999986775,8.184880000015255,8.76824000000488,9.381970000016736,9.96952000001329,10.62574499999755,11.25458000000799,11.777800000010757]",space,0.35356,0.0,8.0,8.0,2.0,1.0,,
,,,,,,,,,,block_2/weak_n_81_4.wav,no,n,weak,81.0,1.139338257,16.19847658,,,,Y,Chinese unbranded,0,no,m,37,L,y,1,2020-09-07_08h44.56.737,kura-B2,2020.1.2,Win32,60,,,,,,,,,,,,,,,"[""space"",""space"",""space"",""space"",""space"",""space"",""space"",""space"",""space"",""space"",""space"",""space"",""space"",""space"",""space"",""space"",""space"",""space"",""space"",""space"",""space"",""space"",""space""]","[0.2506549999816343,0.8720199999806937,1.7008399999758694,2.445339999976568,3.2238049999868963,4.0179449999995995,4.7915349999966566,5.4512349999859,5.8426999999792315,6.271775000001071,6.72308999998495,7.383769999985816,7.808159999985946,8.390614999982063,9.123089999979129,9.834875000000466,10.642044999985956,11.421699999977136,12.089964999991935,12.853979999985313,13.57298999998602,14.269354999996722,15.112299999978859]",space,1.52135,0.0,9.0,9.0,36.0,1.0,,
,,,,,,,,,,block_2/strong_n_81_3.wav,no,n,strong,81.0,2.384474622,16.38941793,,,,Y,Chinese unbranded,0,no,m,37,L,y,1,2020-09-07_08h44.56.737,kura-B2,2020.1.2,Win32,60,,,,,,,,,,,,,,,"[""space"",""space"",""space"",""space"",""space"",""space"",""space"",""space"",""space"",""space"",""space"",""space"",""space"",""space"",""space"",""space"",""space"",""space"",""space"",""space""]","[0.6829750000033528,1.378534999996191,2.059429999993881,2.7471800000057556,3.474190000008093,4.161965000006603,4.933970000012778,5.578190000000177,6.2920000000158325,7.100040000019362,7.720549999998184,8.39361500000814,9.14964499999769,9.82571000000462,10.542495000001509,11.227435000007972,11.95391500002006,12.651675000000978,13.372220000019297,14.168525000015507]",space,0.734,0.0,10.0,10.0,10.0,1.0,,
,,,,,,,,,,block_2/none_n_119_3.wav,no,n,none,119.0,1.37370001,14.3364211,,,,Y,Chinese unbranded,0,no,m,37,L,y,1,2020-09-07_08h44.56.737,kura-B2,2020.1.2,Win32,60,,,,,,,,,,,,,,,"[""space"",""space"",""space"",""space"",""space"",""space"",""space"",""space"",""space"",""space"",""space"",""space"",""space"",""space"",""space"",""space"",""space"",""space"",""space"",""space"",""space"",""space"",""space"",""space"",""space"",""space"",""space"",""space"",""space"",""space"",""space"",""space"",""space"",""space"",""space"",""space"",""space"",""space"",""space"",""space"",""space"",""space"",""space"",""space"",""space""]","[0.5917999999946915,1.1742200000153389,1.6439050000044517,2.1042550000129268,2.35359499999322,2.677945000003092,2.8901649999897927,3.1055150000029244,3.35593499999959,3.5920249999908265,3.851410000002943,4.135184999991907,4.420610000001034,4.691344999999274,5.022464999987278,5.307265000010375,5.564905000006547,5.818399999989197,6.139434999990044,6.438465000013821,6.728785000013886,6.995610000012675,7.239419999998063,7.5183149999938905,7.767660000012256,8.04351499999757,8.303749999991851,8.578435000003083,8.83428000001004,9.096569999994244,9.361275000002934,9.631389999995008,9.879125000006752,10.168975000007777,10.43780000001425,10.701130000001285,10.990370000014082,11.256865000003017,11.512060000008205,11.790059999999357,12.036629999987781,12.302244999998948,12.551429999992251,12.806010000000242,13.08455500000855]",space,0.55442,0.0,11.0,11.0,24.0,1.0,,
,,,,,,,,,,block_2/weak_n_81_3.wav,no,n,weak,81.0,2.376095497,17.43405468,,,,Y,Chinese unbranded,0,no,m,37,L,y,1,2020-09-07_08h44.56.737,kura-B2,2020.1.2,Win32,60,,,,,,,,,,,,,,,"[""space"",""space"",""space"",""space"",""space"",""space"",""space"",""space"",""space"",""space"",""space"",""space"",""space"",""space"",""space"",""space"",""space"",""space"",""space"",""space"",""space"",""space"",""space"",""space"",""space"",""space"",""space"",""space"",""space"",""space"",""space"",""space"",""space"",""space"",""space"",""space"",""space"",""space"",""space"",""space"",""space"",""space"",""space"",""space"",""space"",""space"",""space"",""space"",""space"",""space"",""space"",""space"",""space"",""space"",""space"",""space"",""space"",""space"",""space"",""space"",""space"",""space"",""space"",""space"",""space"",""space""]","[0.3973400000249967,0.7178700000222307,0.9904000000096858,1.2277850000245962,1.4472550000064075,1.7237850000092294,1.9429350000282284,2.17048000000068,2.4009050000167917,2.6074250000237953,2.8034700000134762,3.0438650000141934,3.275195000023814,3.4856000000145286,3.684720000019297,3.9095150000066496,4.131070000003092,4.36881500002346,4.65039500000421,4.991735000017798,5.274420000001555,5.508545000018785,5.737040000007255,5.962450000020908,6.187015000003157,6.407705000019632,6.628450000018347,6.85643000001437,7.059565000003204,7.2391200000129174,7.468165000027511,7.716880000021774,7.910795000003418,8.135135000018636,8.355295000015758,8.578830000013113,8.800470000016503,9.06189500002074,9.34562000000733,9.567215000017313,9.814605000021402,10.033699999999953,10.269925000000512,10.505010000022594,10.723985000018729,10.969470000010915,11.18391000002157,11.417820000002393,11.63573500001803,11.857810000015888,12.083405000012135,12.323495000018738,12.500030000024708,12.704805000015767,12.918915000016568,13.117390000028536,13.335755000007339,13.570195000007516,13.797580000013113,13.995810000022175,14.247415000019828,14.434015000006184,14.653295000025537,14.911740000010468,15.15533000000869,15.383840000024065]",space,0.559585,0.0,12.0,12.0,30.0,1.0,,
,,,,,,,,,,block_2/medium_n_72_3.wav,no,n,medium,72.0,1.994146771,18.06802432,,,,Y,Chinese unbranded,0,no,m,37,L,y,1,2020-09-07_08h44.56.737,kura-B2,2020.1.2,Win32,60,,,,,,,,,,,,,,,"[""space"",""space"",""space"",""space"",""space"",""space"",""space"",""space"",""space"",""space"",""space"",""space"",""space"",""space"",""space"",""space"",""space"",""space"",""space"",""space""]","[0.6536149999883492,1.5439299999852665,2.2830449999892153,3.0502399999822956,3.834065000002738,4.872749999980442,5.710939999989932,6.544764999998733,7.383239999995567,8.174259999999776,9.026519999984885,9.833714999986114,10.658479999983683,11.466549999982817,12.294490000000224,13.069784999999683,13.835284999979194,14.684890000004089,15.467459999985294,16.374674999999115]",space,1.85522,0.0,13.0,13.0,13.0,1.0,,
,,,,,,,,,,block_2/strong_n_92_3.wav,no,n,strong,92.0,1.019287146,13.50967263,,,,Y,Chinese unbranded,0,no,m,37,L,y,1,2020-09-07_08h44.56.737,kura-B2,2020.1.2,Win32,60,,,,,,,,,,,,,,,"[""space"",""space"",""space"",""space"",""space"",""space"",""space"",""space"",""space"",""space"",""space"",""space"",""space"",""space"",""space"",""space"",""space"",""space"",""space"",""space""]","[0.8200650000071619,1.3798299999907613,1.9519750000035856,2.6021750000072643,3.2183749999967404,3.8350199999986216,4.461979999992764,5.1244949999963865,5.6828199999872595,6.370685000001686,6.967050000006566,7.549494999984745,8.251664999988861,8.855175000004238,9.444445000000997,10.083285000000615,10.709344999981113,11.371435000008205,11.955415000003995,12.588359999994282]",space,1.06242,0.0,14.0,14.0,39.0,1.0,,
,,,,,,,,,,block_2/none_n_72_3.wav,no,n,none,72.0,2.393872505,24.12062987,,,,Y,Chinese unbranded,0,no,m,37,L,y,1,2020-09-07_08h44.56.737,kura-B2,2020.1.2,Win32,60,,,,,,,,,,,,,,,"[""space"",""space"",""space"",""space"",""space"",""space"",""space"",""space"",""space"",""space"",""space"",""space"",""space"",""space"",""space"",""space"",""space"",""space"",""space"",""space"",""space"",""space"",""space"",""space"",""space"",""space"",""space"",""space"",""space"",""space"",""space"",""space"",""space"",""space"",""space"",""space"",""space"",""space"",""space"",""space"",""space"",""space"",""space"",""space"",""space"",""space"",""space"",""space"",""space"",""space"",""space"",""space"",""space"",""space"",""space"",""space"",""space"",""space"",""space"",""space"",""space"",""space"",""space"",""space"",""space"",""space"",""space"",""space"",""space"",""space"",""space"",""space"",""space"",""space"",""space"",""space"",""space"",""space"",""space"",""space"",""space"",""space"",""space"",""space"",""space"",""space""]","[0.5175450000097044,1.1711950000026263,1.6951350000163075,2.3558049999992363,2.595804999989923,2.8352799999993294,3.203385000000708,3.4681449999916367,3.6937099999922793,4.163490000006277,4.444790000008652,4.691400000010617,4.917550000012852,5.20138000001316,5.526860000012675,5.736940000002505,5.990064999990864,6.2435849999892525,6.503859999997076,6.738914999994449,6.928879999992205,7.158224999991944,7.384114999993471,7.628705000010086,7.822985000006156,8.06043499999214,8.26970999999321,8.53025000001071,8.798190000001341,9.022809999994934,9.246554999990622,9.443165000004228,9.69761999999173,9.923440000013215,10.184990000008838,10.451185000012629,10.650965000008,10.967865000013262,11.139794999995502,11.401684999989811,11.61251999999513,11.853414999990491,12.138165000011213,12.327145000017481,12.559615000005579,12.82099500001641,13.051899999991292,13.345820000016829,13.779730000009295,13.975615000003017,14.17409499999485,14.40428499999689,14.604200000001583,14.785575000016252,14.975104999990435,15.339605000015581,15.520290000014938,15.700700000015786,15.924300000013318,16.160479999991367,16.38985999999568,16.656210000015562,16.91820000001462,17.153664999990724,17.413200000009965,17.63605999998981,17.85835500000394,18.073724999994738,18.239820000017062,18.44533000001684,18.67598500000895,18.90169500000775,19.119925000006333,19.317994999990333,19.551124999998137,19.757205000001704,20.172500000015134,20.36010499999975,20.546730000001844,20.751625000004424,20.980145000008633,21.209869999991497,21.42384000000311,21.65525000001071,21.938159999990603,22.09953500001575]",space,0.43692,0.0,15.0,15.0,18.0,1.0,,
,,,,,,,,,,block_2/none_n_105_3.wav,no,n,none,105.0,1.200203838,13.86165508,,,,Y,Chinese unbranded,0,no,m,37,L,y,1,2020-09-07_08h44.56.737,kura-B2,2020.1.2,Win32,60,,,,,,,,,,,,,,,"[""space"",""space"",""space"",""space"",""space"",""space"",""space"",""space"",""space"",""space"",""space"",""space"",""space"",""space"",""space"",""space"",""space"",""space"",""space"",""space"",""space"",""space"",""space"",""space"",""space"",""space"",""space"",""space"",""space"",""space"",""space"",""space"",""space"",""space"",""space"",""space"",""space"",""space"",""space"",""space"",""space"",""space"",""space"",""space"",""space"",""space"",""space"",""space"",""space"",""space"",""space"",""space"",""space"",""space"",""space"",""space"",""space"",""space"",""space"",""space""]","[0.3499149999988731,0.8512099999934435,1.0666949999867938,1.2529349999967963,1.4585899999947287,1.6734549999819137,1.92309500000556,2.1724499999836553,2.3833149999845773,2.5871249999909196,2.755139999993844,2.9871149999962654,3.199930000002496,3.3710299999802373,3.5726100000028964,3.735820000001695,3.9457149999798276,4.1169799999915995,4.337019999977201,4.536215000000084,4.738729999982752,5.113675000000512,5.35598999998183,5.617754999984754,5.840854999987641,6.091820000001462,6.3060049999912735,6.496549999981653,6.69333499998902,6.920329999993555,7.128159999992931,7.3402099999948405,7.536624999978812,7.737005000002682,8.0035949999874,8.163514999992913,8.371309999987716,8.561319999978878,8.772414999984903,8.971055000001797,9.216064999985974,9.442834999994375,9.664394999999786,9.855874999979278,10.052624999982072,10.26046999997925,10.438924999994924,10.628994999977294,11.03979999999865,11.245254999987083,11.44148999999743,11.652624999987893,11.833094999979949,12.024619999981951,12.20042999999714,12.388275000004796,12.58697000000393,12.766849999985425,12.939834999997402,13.168955000001006]",space,1.67558,0.0,16.0,16.0,6.0,1.0,,
,,,,,,,,,,block_2/strong_n_72_3.wav,no,n,strong,72.0,2.337906276,17.4032124,,,,Y,Chinese unbranded,0,no,m,37,L,y,1,2020-09-07_08h44.56.737,kura-B2,2020.1.2,Win32,60,,,,,,,,,,,,,,,"[""space"",""space"",""space"",""space"",""space"",""space"",""space"",""space"",""space"",""space"",""space"",""space"",""space"",""space"",""space"",""space"",""space"",""space"",""space"",""space""]","[0.43643500001053326,1.434914999990724,2.177465000015218,2.9545949999883305,3.5828700000129174,4.258419999998296,5.277505000005476,6.021650000009686,6.756774999987101,7.255865000013728,8.267029999988154,9.097544999996899,9.880765000008978,10.673929999989923,11.421455000003334,12.216669999994338,12.849890000012238,13.668990000005579,14.375310000003083,15.3038499999966]",space,0.484695,0.0,17.0,17.0,32.0,1.0,,
,,,,,,,,,,block_2/strong_n_81_4.wav,no,n,strong,81.0,1.736263272,17.70810001,,,,Y,Chinese unbranded,0,no,m,37,L,y,1,2020-09-07_08h44.56.737,kura-B2,2020.1.2,Win32,60,,,,,,,,,,,,,,,"[""space"",""space"",""space"",""space"",""space"",""space"",""space"",""space"",""space"",""space"",""space"",""space"",""space"",""space"",""space"",""space"",""space"",""space"",""space"",""space"",""space""]","[0.47431499999947846,0.9865099999879021,1.652975000004517,2.533785000006901,3.3367600000055972,4.119875000003958,4.934180000011111,5.766405000002123,6.4765450000122655,7.334039999986999,8.077840000012657,8.737755000009201,9.63698999999906,10.402529999992112,11.21680500000366,11.98397999998997,12.734635000000708,13.63987499999348,14.419894999999087,15.164400000008754,16.01396000001114]",space,1.938185,0.0,18.0,18.0,1.0,1.0,,
,,,,,,,,,,block_2/strong_n_105_4.wav,no,n,strong,105.0,1.723608797,13.55862014,,,,Y,Chinese unbranded,0,no,m,37,L,y,1,2020-09-07_08h44.56.737,kura-B2,2020.1.2,Win32,60,,,,,,,,,,,,,,,"[""space"",""space"",""space"",""space"",""space"",""space"",""space"",""space"",""space"",""space"",""space"",""space"",""space"",""space"",""space"",""space"",""space"",""space"",""space"",""space""]","[0.5031500000040978,1.017710000014631,1.7527200000185985,2.3687750000099186,2.9665700000186916,3.5812950000108685,4.202439999993658,4.816835000005085,5.383300000015879,5.983674999995856,6.6029900000139605,7.20329999999376,7.771375000011176,8.392114999995101,8.968790000013541,9.568599999998696,10.183925000019372,10.77569000000949,11.377375000010943,12.014640000008512]",space,0.608155,0.0,19.0,19.0,3.0,1.0,,
,,,,,,,,,,block_2/none_n_72_4.wav,no,n,none,72.0,1.743803892,24.48607147,,,,Y,Chinese unbranded,0,no,m,37,L,y,1,2020-09-07_08h44.56.737,kura-B2,2020.1.2,Win32,60,,,,,,,,,,,,,,,"[""space"",""space"",""space"",""space"",""space"",""space"",""space"",""space"",""space"",""space"",""space"",""space"",""space"",""space"",""space"",""space"",""space"",""space"",""space"",""space"",""space"",""space"",""space"",""space"",""space"",""space"",""space"",""space"",""space"",""space"",""space"",""space"",""space"",""space"",""space"",""space"",""space"",""space"",""space"",""space"",""space"",""space"",""space"",""space"",""space"",""space"",""space"",""space"",""space"",""space"",""space"",""space"",""space"",""space"",""space"",""space"",""space"",""space"",""space"",""space"",""space"",""space"",""space"",""space"",""space"",""space"",""space"",""space"",""space"",""space"",""space"",""space"",""space"",""space"",""space"",""space"",""space"",""space"",""space"",""space"",""space"",""space"",""space"",""space"",""space"",""space"",""space"",""space"",""space"",""space"",""space"",""space"",""space"",""space""]","[0.2942299999995157,0.8402850000129547,1.2605200000107288,1.4870949999894947,1.6714649999921676,1.9600550000031944,2.2359900000155903,2.456819999992149,2.7711899999994785,3.049445000011474,3.4715800000121817,3.783800000004703,4.048249999992549,4.302055000007385,4.677885000011884,4.994310000009136,5.360260000015842,5.660780000005616,5.924239999993006,6.216795000014827,6.479084999999031,6.770380000001751,7.059165000013309,7.373374999995576,7.616635000013048,7.893745000008494,8.195735000015702,8.60376999998698,8.852784999995492,9.086515000002692,9.294924999994691,9.511484999995446,9.74137500001234,9.978375000006054,10.207579999987502,10.417989999987185,10.650820000009844,10.875830000004498,11.10005499998806,11.301175000000512,11.503425000002608,11.749760000006063,12.00648499999079,12.25448500001221,12.50580000001355,12.730400000000373,12.975769999990007,13.234744999994291,13.466595000005327,13.704475000005914,13.922785000002477,14.118699999991804,14.339735000015935,14.54964499999187,14.788655000011204,15.004675000003772,15.264035000000149,15.533324999996694,15.76741500000935,15.991819999995641,16.218404999992345,16.442320000001928,16.657585000008112,16.85738999999012,17.070899999991525,17.319615000014892,17.526849999994738,17.723794999998063,17.93015500000911,18.145430000004126,18.340984999987995,18.54993999999715,18.799804999987828,19.02382500001113,19.252945000014734,19.4831000000122,19.69435999999405,19.933725000009872,20.116230000014184,20.335339999990538,20.55168999999296,20.744830000010552,20.93323500000406,21.139809999993304,21.31932000000961,21.541835000010906,21.768975000013597,21.969075000000885,22.159625000000233,22.345570000004955,22.53330000001006,22.760000000009313,22.93832499999553,23.079785000008997]",space,0.80857,0.0,20.0,20.0,21.0,1.0,,
,,,,,,,,,,block_2/medium_n_119_3.wav,no,n,medium,119.0,2.317779723,12.17918562,,,,Y,Chinese unbranded,0,no,m,37,L,y,1,2020-09-07_08h44.56.737,kura-B2,2020.1.2,Win32,60,,,,,,,,,,,,,,,"[""space"",""space"",""space"",""space"",""space"",""space"",""space"",""space"",""space"",""space"",""space"",""space"",""space"",""space"",""space"",""space"",""space"",""space"",""space"",""space"",""space"",""space""]","[0.5367399999813642,0.9624849999963772,1.3273049999843352,1.7886099999886937,2.2475500000000466,2.6013699999894015,2.943664999998873,3.3358449999941513,3.6386300000012852,4.080349999974715,4.5272299999778625,5.018304999975953,5.707119999977294,6.109669999976177,6.607899999973597,7.083829999988666,7.516439999977592,8.009655000001658,8.539549999986775,9.023144999984652,9.487454999994952,9.935814999975264]",space,0.721495,0.0,21.0,21.0,22.0,1.0,,
,,,,,,,,,,block_2/none_n_92_4.wav,no,n,none,92.0,2.009431863,15.90199422,,,,Y,Chinese unbranded,0,no,m,37,L,y,1,2020-09-07_08h44.56.737,kura-B2,2020.1.2,Win32,60,,,,,,,,,,,,,,,"[""space"",""space"",""space"",""space"",""space"",""space"",""space"",""space"",""space"",""space"",""space"",""space"",""space"",""space"",""space"",""space"",""space"",""space"",""space"",""space"",""space"",""space"",""space"",""space"",""space"",""space"",""space"",""space"",""space"",""space"",""space"",""space"",""space"",""space"",""space"",""space"",""space"",""space"",""space"",""space"",""space""]","[0.34422499997890554,0.663799999980256,1.190245000005234,1.6171049999829847,2.0046199999924283,2.4845599999825936,2.8608449999883305,3.145344999997178,3.607545000006212,4.017679999989923,4.417255000007572,4.77641500000027,5.175644999981159,5.534554999991087,5.95564000000013,6.383849999983795,6.804734999983339,7.239919999992708,7.661679999990156,7.9517849999829195,8.2054449999996,8.494600000005448,8.859419999993406,9.18507999999565,9.463464999978896,9.81703499998548,10.153349999978673,10.556574999995064,10.843059999984689,11.089589999988675,11.429015000001527,11.768274999980349,12.040139999997336,12.270699999993667,12.573019999981625,12.834414999990258,13.185014999995474,13.471799999999348,13.750669999979436,14.016619999980321,14.318139999988489]",space,0.63844,0.0,22.0,22.0,19.0,1.0,,
,,,,,,,,,,block_2/none_n_119_4.wav,no,n,none,119.0,1.538189981,14.89986799,,,,Y,Chinese unbranded,0,no,m,37,L,y,1,2020-09-07_08h44.56.737,kura-B2,2020.1.2,Win32,60,,,,,,,,,,,,,,,"[""space"",""space"",""space"",""space"",""space"",""space"",""space"",""space"",""space"",""space"",""space"",""space"",""space"",""space"",""space"",""space"",""space"",""space"",""space"",""space"",""space"",""space"",""space"",""space"",""space"",""space"",""space"",""space"",""space"",""space"",""space"",""space"",""space"",""space"",""space"",""space"",""space"",""space"",""space"",""space"",""space"",""space"",""space"",""space"",""space""]","[0.5595099999918602,0.8291249999892898,1.2017200000118464,1.5596000000077765,1.917184999998426,2.1779000000096858,2.4925299999886192,2.8870400000014342,3.245295000000624,3.5895000000018626,3.8907900000049267,4.250949999986915,4.552354999992531,4.80749000000651,5.123790000012377,5.396065000008093,5.662505000014789,6.042359999992186,6.337189999991097,6.650634999998147,7.090874999994412,7.397999999986496,7.6959550000028685,7.989399999991292,8.279470000008587,8.524015000002692,8.817390000011073,9.092689999990398,9.409539999993285,9.739390000002459,10.052319999987958,10.321655000007013,10.582495000009658,10.876305000012508,11.168005000014091,11.42280000000028,11.668174999998882,11.90697499999078,12.187054999987595,12.450940000009723,12.729129999992438,13.01031499999226,13.251424999994924,13.49581500000204,13.744914999988396]",space,0.54176,0.0,23.0,23.0,20.0,1.0,,
,,,,,,,,,,block_2/none_n_81_4.wav,no,n,none,81.0,1.032736778,20.98466422,,,,Y,Chinese unbranded,0,no,m,37,L,y,1,2020-09-07_08h44.56.737,kura-B2,2020.1.2,Win32,60,,,,,,,,,,,,,,,"[""space"",""space"",""space"",""space"",""space"",""space"",""space"",""space"",""space"",""space"",""space"",""space"",""space"",""space"",""space"",""space"",""space"",""space"",""space"",""space"",""space"",""space"",""space"",""space"",""space"",""space"",""space"",""space"",""space"",""space"",""space"",""space"",""space"",""space"",""space"",""space"",""space"",""space"",""space"",""space"",""space"",""space"",""space"",""space"",""space"",""space"",""space"",""space"",""space"",""space"",""space"",""space"",""space"",""space"",""space"",""space"",""space"",""space"",""space"",""space"",""space"",""space"",""space"",""space"",""space"",""space"",""space"",""space"",""space"",""space"",""space"",""space"",""space"",""space"",""space"",""space"",""space"",""space"",""space""]","[0.4512550000217743,0.8203900000080466,1.0381250000209548,1.2550550000160001,1.5948500000231434,1.8118850000028033,2.011180000001332,2.2534600000071805,2.5542550000245683,2.7940400000079535,3.039790000009816,3.319900000002235,3.5843750000058208,3.8457200000120793,4.085990000021411,4.313735000003362,4.548175000003539,4.811495000001742,5.084325000003446,5.353225000028033,5.6511650000174996,5.909840000007534,6.14314000000013,6.437090000021271,6.7405650000146125,7.069615000014892,7.331320000026608,7.595020000007935,7.84312500001397,8.108485000004293,8.35476000001654,8.642310000024736,8.88890000001993,9.099880000023404,9.352300000027753,9.62019000001601,9.895680000016,10.172985000011977,10.441300000005867,10.691120000003139,10.907610000023851,11.150675000011688,11.426405000005616,11.675165000022389,11.940920000022743,12.184705000021495,12.400880000001052,12.66462500000489,12.944570000021486,13.21406000002753,13.484525000007125,13.760805000027176,14.035880000010366,14.324775000015507,14.581820000021253,14.829710000019986,15.087165000004461,15.322730000014417,15.633050000004005,15.90495500000543,16.137540000025183,16.438830000028247,16.685135000006994,16.934295000013663,17.16761000000406,17.410330000013346,17.642480000009527,17.86854000002495,18.074480000010226,18.288660000020172,18.510745000006864,18.70981000000029,18.92591000001994,19.154910000012023,19.376915000000736,19.59293000001344,19.818915000010747,20.050950000004377,20.26787000001059]",space,0.387495,0.0,24.0,24.0,26.0,1.0,,
,,,,,,,,,,block_2/strong_n_119_3.wav,no,n,strong,119.0,2.299979207,12.06555744,,,,Y,Chinese unbranded,0,no,m,37,L,y,1,2020-09-07_08h44.56.737,kura-B2,2020.1.2,Win32,60,,,,,,,,,,,,,,,"[""space"",""space"",""space"",""space"",""space"",""space"",""space"",""space"",""space"",""space"",""space"",""space"",""space"",""space"",""space"",""space"",""space"",""space"",""space"",""space"",""space""]","[0.46165000001201406,0.8724999999976717,1.1897650000173599,1.6398000000044703,2.1173800000105985,2.5958899999968708,3.076050000003306,3.60426500000176,4.069115000020247,4.595985000021756,5.035455000004731,5.518660000001546,6.006010000011884,6.475330000015674,6.968460000003688,7.444210000016028,7.909350000001723,8.437565000000177,8.90559999999823,9.42618500001845,9.897545000014361]",space,0.353965,0.0,25.0,25.0,16.0,1.0,,
,,,,,,,,,,block_2/medium_n_81_4.wav,no,n,medium,81.0,1.594727623,16.1032537,,,,Y,Chinese unbranded,0,no,m,37,L,y,1,2020-09-07_08h44.56.737,kura-B2,2020.1.2,Win32,60,,,,,,,,,,,,,,,"[""space"",""space"",""space"",""space"",""space"",""space"",""space"",""space"",""space"",""space"",""space"",""space"",""space"",""space"",""space"",""space"",""space"",""space"",""space"",""space"",""space""]","[0.2356349999899976,0.6280449999903794,1.3519749999977648,2.1127749999868684,2.859729999996489,3.669934999983525,4.396544999995967,5.11804500001017,5.811515000008512,6.503404999995837,7.1908499999844935,7.947710000007646,8.689279999991413,9.394505000003846,10.112529999983963,10.860524999996414,11.605589999991935,12.410329999984242,13.200225000007777,13.90138999998453,14.693939999997383]",space,0.35628,0.0,26.0,26.0,38.0,1.0,,
,,,,,,,,,,block_2/strong_n_92_4.wav,no,n,strong,92.0,1.480736093,15.18463632,,,,Y,Chinese unbranded,0,no,m,37,L,y,1,2020-09-07_08h44.56.737,kura-B2,2020.1.2,Win32,60,,,,,,,,,,,,,,,"[""space"",""space"",""space"",""space"",""space"",""space"",""space"",""space"",""space"",""space"",""space"",""space"",""space"",""space"",""space"",""space"",""space"",""space"",""space""]","[1.2042249999940395,1.9179650000005495,2.613004999991972,3.2775200000032783,4.069794999988517,4.754849999997532,5.292549999983748,5.988545000000158,6.751459999999497,7.461524999991525,8.211214999988442,8.84412500000326,9.63735999999335,10.312570000009146,10.984059999987949,11.684444999991683,12.331864999985555,13.134179999993648,13.763704999990296]",space,0.60308,0.0,27.0,27.0,34.0,1.0,,
,,,,,,,,,,block_2/weak_n_72_4.wav,no,n,weak,72.0,1.671954957,17.64637673,,,,Y,Chinese unbranded,0,no,m,37,L,y,1,2020-09-07_08h44.56.737,kura-B2,2020.1.2,Win32,60,,,,,,,,,,,,,,,"[""space"",""space"",""space"",""space"",""space"",""space"",""space"",""space"",""space"",""space"",""space"",""space"",""space"",""space"",""space"",""space"",""space"",""space"",""space"",""space"",""space""]","[0.23903000002610497,0.6714950000168756,1.3218550000165123,1.9542050000163727,2.7744450000172947,3.634780000022147,4.64491000000271,5.491325000009965,6.25132000001031,7.086405000009108,7.955770000000484,8.764110000018263,9.566344999999274,10.41873500001384,11.247345000010682,12.071605000004638,12.893345000018599,13.699365000007674,14.572020000021439,15.369000000006054,16.06920500000706]",space,0.53552,0.0,28.0,28.0,4.0,1.0,,
,,,,,,,,,,block_2/medium_n_105_4.wav,no,n,medium,105.0,2.115061775,16.52181914,,,,Y,Chinese unbranded,0,no,m,37,L,y,1,2020-09-07_08h44.56.737,kura-B2,2020.1.2,Win32,60,,,,,,,,,,,,,,,"[""space"",""space"",""space"",""space"",""space"",""space"",""space"",""space"",""space"",""space"",""space"",""space"",""space"",""space"",""space"",""space"",""space"",""space"",""space"",""space"",""space"",""space""]","[0.4498500000045169,0.8437750000157394,1.3451100000238512,1.9949999999953434,2.6384800000232644,3.450215000018943,4.151875000010477,4.654934999998659,5.324200000002747,6.05905999999959,6.801880000013625,7.518395000020973,8.233680000004824,9.002250000019558,9.640559999999823,10.320230000012089,10.988494999997783,11.785170000017388,12.551615000003949,13.223920000018552,13.949634999997215,14.695479999994859]",space,0.38438,0.0,29.0,29.0,12.0,1.0,,
,,,,,,,,,,block_2/medium_n_92_4.wav,no,n,medium,92.0,1.021723279,13.61201806,,,,Y,Chinese unbranded,0,no,m,37,L,y,1,2020-09-07_08h44.56.737,kura-B2,2020.1.2,Win32,60,,,,,,,,,,,,,,,"[""space"",""space"",""space"",""space"",""space"",""space"",""space"",""space"",""space"",""space"",""space"",""space"",""space"",""space"",""space"",""space"",""space"",""space"",""space"",""space"",""space""]","[0.42074000000138767,0.9590099999913946,1.4170199999934994,2.1028750000114087,2.7409549999865703,3.3501049999904353,4.049930000008317,4.618630000011763,5.235400000005029,5.818900000012945,6.516260000003967,7.187680000002729,7.797335000010207,8.410670000012033,9.059940000006463,9.699634999997215,10.289809999987483,10.884560000005877,11.571490000002086,12.183915000001434,12.861280000011902]",space,1.334545,0.0,30.0,30.0,11.0,1.0,,
,,,,,,,,,,block_2/medium_n_72_4.wav,no,n,medium,72.0,1.35197092,15.86054235,,,,Y,Chinese unbranded,0,no,m,37,L,y,1,2020-09-07_08h44.56.737,kura-B2,2020.1.2,Win32,60,,,,,,,,,,,,,,,"[""space"",""space"",""space"",""space"",""space"",""space"",""space"",""space"",""space"",""space"",""space"",""space"",""space"",""space"",""space"",""space"",""space"",""space"",""space"",""space"",""space""]","[0.5271299999731127,0.9897099999943748,1.5338300000003073,2.180884999979753,2.8951149999920744,3.68889499999932,4.425104999972973,5.111834999988787,5.835574999975506,6.601584999996703,7.3071149999741465,8.076779999973951,8.819084999995539,9.50097499997355,10.251779999991413,10.915559999994002,11.686864999996033,12.440554999979213,13.172919999982696,13.865479999978561,14.612954999989597]",space,0.59498,0.0,31.0,31.0,7.0,1.0,,
,,,,,,,,,,block_2/strong_n_72_4.wav,no,n,strong,72.0,1.689031128,17.05764791,,,,Y,Chinese unbranded,0,no,m,37,L,y,1,2020-09-07_08h44.56.737,kura-B2,2020.1.2,Win32,60,,,,,,,,,,,,,,,"[""space"",""space"",""space"",""space"",""space"",""space"",""space"",""space"",""space"",""space"",""space"",""space"",""space"",""space"",""space"",""space"",""space"",""space"",""space"",""space""]","[0.9274650000152178,1.3774499999999534,2.195869999995921,2.948854999995092,3.66798500000732,4.491570000012871,5.316740000009304,6.065730000002077,6.85992499999702,7.660104999988107,8.468144999991637,9.191395000001648,9.99571499999729,10.782520000007935,11.583390000014333,12.36637500001234,13.169995000003837,13.998675000009825,14.7829400000046,15.58390500000678]",space,0.78407,0.0,32.0,32.0,35.0,1.0,,
,,,,,,,,,,block_2/weak_n_72_3.wav,no,n,weak,72.0,1.604938988,17.47283014,,,,Y,Chinese unbranded,0,no,m,37,L,y,1,2020-09-07_08h44.56.737,kura-B2,2020.1.2,Win32,60,,,,,,,,,,,,,,,"[""space"",""space"",""space"",""space"",""space"",""space"",""space"",""space"",""space"",""space"",""space"",""space"",""space"",""space"",""space"",""space"",""space"",""space"",""space"",""space"",""space""]","[0.417025000002468,1.0038300000014715,1.942315000022063,2.6368300000031013,3.4045550000155345,4.183285000006435,5.029820000025211,5.800555000023451,6.593375000025844,7.3182550000201445,8.161990000022342,8.87310000002617,9.713320000009844,10.435110000020359,11.25431000001845,11.993140000005951,12.771945000014966,13.610885000001872,14.407200000016019,15.22520000001532,15.990195000020321]",space,0.872965,0.0,33.0,33.0,8.0,1.0,,
,,,,,,,,,,block_2/weak_n_105_3.wav,no,n,weak,105.0,2.432347709,14.10785791,,,,Y,Chinese unbranded,0,no,m,37,L,y,1,2020-09-07_08h44.56.737,kura-B2,2020.1.2,Win32,60,,,,,,,,,,,,,,,"[""space"",""space"",""space"",""space"",""space"",""space"",""space"",""space"",""space"",""space"",""space"",""space"",""space"",""space"",""space"",""space"",""space"",""space"",""space"",""space"",""space""]","[0.616890000004787,1.1015400000032969,1.8180949999950826,2.2284100000106264,2.683725000009872,3.3290149999957066,3.9447199999995064,4.437215000012657,5.007444999995641,5.580335000006016,6.02429500001017,6.606594999990193,7.260505000012927,7.830595000006724,8.419439999997849,9.027100000006612,9.674235000013141,10.182750000007218,10.702075000008335,11.285525000013877,11.83629999999539]",space,0.452725,0.0,34.0,34.0,27.0,1.0,,
,,,,,,,,,,block_2/weak_n_119_4.wav,no,n,weak,119.0,1.653391966,12.42708811,,,,Y,Chinese unbranded,0,no,m,37,L,y,1,2020-09-07_08h44.56.737,kura-B2,2020.1.2,Win32,60,,,,,,,,,,,,,,,"[""space"",""space"",""space"",""space"",""space"",""space"",""space"",""space"",""space"",""space"",""space"",""space"",""space"",""space"",""space"",""space"",""space"",""space"",""space"",""space"",""space""]","[0.398589999997057,0.9030650000204332,1.4385300000139978,1.9254200000141282,2.3967699999921024,2.935350000014296,3.4070749999955297,3.9689650000073016,4.476244999998016,5.051674999995157,5.6400549999962095,6.150025000009919,6.677495000010822,7.185304999991786,7.780750000005355,8.307709999993676,8.857294999994338,9.331100000010338,9.836979999992764,10.40199000001303,11.05479500000365]",space,0.499285,0.0,35.0,35.0,31.0,1.0,,
,,,,,,,,,,block_2/medium_n_119_4.wav,no,n,medium,119.0,1.918272059,10.22534689,,,,Y,Chinese unbranded,0,no,m,37,L,y,1,2020-09-07_08h44.56.737,kura-B2,2020.1.2,Win32,60,,,,,,,,,,,,,,,"[""space"",""space"",""space"",""space"",""space"",""space"",""space"",""space"",""space"",""space"",""space"",""space"",""space"",""space"",""space"",""space"",""space"",""space"",""space""]","[0.3733399999910034,0.8675400000065565,1.2704249999951571,1.6993099999963306,2.1466549999895506,2.7108599999919534,3.088980000000447,3.50072499999078,3.946830000000773,4.403805000009015,4.873159999988275,5.301570000010543,5.75378999998793,6.204700000002049,6.669759999989765,7.132710000005318,7.584505000006175,8.018780000013066,8.443759999994654]",space,0.591775,0.0,36.0,36.0,17.0,1.0,,
,,,,,,,,,,block_2/weak_n_119_3.wav,no,n,weak,119.0,1.689359171,10.04573105,,,,Y,Chinese unbranded,0,no,m,37,L,y,1,2020-09-07_08h44.56.737,kura-B2,2020.1.2,Win32,60,,,,,,,,,,,,,,,"[""space"",""space"",""space"",""space"",""space"",""space"",""space"",""space"",""space"",""space"",""space"",""space"",""space"",""space"",""space"",""space"",""space"",""space"",""space"",""space""]","[0.27871500002220273,0.8603200000070501,1.2446099999942817,1.6542150000168476,2.048655000020517,2.4743299999972805,2.9133399999991525,3.3531650000077207,3.7756999999983236,4.187390000006417,4.5723200000065845,4.986330000014277,5.42319500001031,5.851335000013933,6.2935250000155065,6.767860000021756,7.209449999994831,7.590874999994412,8.055730000021867,8.50645000001532]",space,0.58151,0.0,37.0,37.0,37.0,1.0,,
,,,,,,,,,,block_2/weak_n_105_4.wav,no,n,weak,105.0,1.277365727,12.0504723,,,,Y,Chinese unbranded,0,no,m,37,L,y,1,2020-09-07_08h44.56.737,kura-B2,2020.1.2,Win32,60,,,,,,,,,,,,,,,"[""space"",""space"",""space"",""space"",""space"",""space"",""space"",""space"",""space"",""space"",""space"",""space"",""space"",""space"",""space"",""space"",""space"",""space"",""space"",""space"",""space""]","[0.7006099999998696,1.0881100000115111,1.475155000021914,1.9621900000202004,2.6343550000165123,3.0853100000240374,3.638440000009723,4.1928550000011455,4.743790000007721,5.254510000027949,5.76089000000502,6.2266900000104215,6.816790000011679,7.32333500002278,7.801280000014231,8.33697000000393,8.892655000003288,9.386900000012247,9.945840000000317,10.389540000003763,10.918440000008559]",space,1.185085,0.0,38.0,38.0,28.0,1.0,,
,,,,,,,,,,block_2/strong_n_119_4.wav,no,n,strong,119.0,2.003027148,12.07137182,,,,Y,Chinese unbranded,0,no,m,37,L,y,1,2020-09-07_08h44.56.737,kura-B2,2020.1.2,Win32,60,,,,,,,,,,,,,,,"[""space"",""space"",""space"",""space"",""space"",""space"",""space"",""space"",""space"",""space"",""space"",""space"",""space"",""space"",""space"",""space"",""space"",""space"",""space"",""space"",""space""]","[0.3874749999959022,0.759185000002617,1.1860450000094716,1.692735000018729,2.178085000021383,2.668230000010226,3.13628500001505,3.6099150000081863,4.159615000011399,4.672615000017686,5.147510000009788,5.65545000002021,6.172090000007302,6.667090000002645,7.1759949999977835,7.658550000021933,8.183279999997467,8.699945000000298,9.18971999999485,9.747295000008307,10.24813500000164]",space,0.6415,0.0,39.0,39.0,23.0,1.0,,
,,,,,,,,,,,,,,,,,,,,Y,Chinese unbranded,0,no,m,37,L,y,1,2020-09-07_08h44.56.737,kura-B2,2020.1.2,Win32,60,,,,,,,,,,,,,,,,,,,,,,,,space,18.41482
