key_resp.keys,key_resp.rt,practice_taps.keys,practice_taps.rt,keyresp.keys,keyresp.rt,practice_stims_loop.thisRepN,practice_stims_loop.thisTrialN,practice_stims_loop.thisN,practice_stims_loop.thisIndex,practice_stims_loop.ran,sndfile,type,tempo,cond,version,delay,dur,Participant Initials,"If you are a MTurk worker, what is your MTurk worker ID?'",Are you wearing headphones?,What are the headphone make and model?,"How many years of musical training, if any, do you have?",Do you have any hearing problems? Please describe,What is your sex (f/m/decline)?,What is your age?,What is your handedness (R/L/ambi)?,Are you currently in a secure and quiet room without a possible interruption?,session,date,expName,psychopyVersion,OS,frameRate,instructions_prompt.keys,instructions_prompt.rt,block1_taps.keys,block1_taps.rt,key_resp_2.keys,key_resp_2.rt,trials.thisRepN,trials.thisTrialN,trials.thisN,trials.thisIndex,trials.ran,key_resp2.keys,key_resp2.rt,block2_taps.keys,block2_taps.rt,key_resp_3.keys,key_resp_3.rt,trials_2.thisRepN,trials_2.thisTrialN,trials_2.thisN,trials_2.thisIndex,trials_2.ran,key_resp_4.keys,key_resp_4.rt,"If you are not an MTurk worker, please provide your email address"
space,9.001185,"[""space"",""space"",""space"",""space"",""space"",""space"",""space"",""space"",""space"",""space"",""space"",""space"",""space"",""space"",""space"",""space"",""space"",""space"",""space"",""space"",""space"",""space""]","[0.8677850000094622,1.4919349999399856,1.9878549999557436,2.533064999966882,3.1079850000096485,3.7506699999794364,4.276100000017323,4.4682449999963865,4.644179999944754,5.172279999940656,5.6362349999835715,6.100384999997914,6.644495000015013,7.236429999931715,7.766975000035018,8.404770000022836,9.001079999958165,9.62078500003554,10.229049999965355,10.772959999972954,11.317520000040531,11.92496500001289]",space,1.037675,0.0,0.0,0.0,0.0,1.0,block_1/medium_n_105_3.wav,no,n,medium,105.0,1.683245346,13.36533151,,,Yes,Wolf Sades,0,No,m,31,R,Yes,1,2020-09-07_10h52.13.829,kura-A2,2020.1.2,Win32,60,,,,,,,,,,,,,,,,,,,,,,,,,
,,"[""space"",""space"",""space"",""space"",""space"",""space"",""space"",""space"",""space"",""space"",""space"",""space"",""space"",""space"",""space"",""space"",""space"",""space"",""space"",""space"",""space"",""space"",""space"",""space"",""space"",""space"",""space"",""space"",""space"",""space"",""space"",""space"",""space"",""space"",""space"",""space"",""space"",""space"",""space"",""space"",""space"",""space"",""space"",""space"",""space"",""space"",""space"",""space"",""space"",""space"",""space"",""space"",""space"",""space"",""space""]","[0.3600850000511855,1.3042500000447035,2.0084150000475347,2.472565000061877,2.8243700000457466,3.6406450000358745,3.9926650000270456,4.218005000031553,4.504650000017136,4.72860499995295,5.068534999969415,5.401745000039227,5.640834999969229,6.104945000028238,6.318115000030957,6.5208150000544265,6.728845000034198,6.952939999988303,7.240925000049174,7.451164999976754,7.705004999996163,8.121034999960102,8.318074999959208,8.48906499997247,8.937539999955334,9.177144999965094,9.36915499996394,9.545249999966472,9.92937999998685,10.137504999991506,10.316789999953471,10.48933000001125,10.843519999994896,11.033659999957308,11.209425000008196,11.534850000054576,11.705410000053234,11.900174999958836,12.251315000001341,12.473559999954887,12.701420000055805,13.034085000050254,13.225624999962747,13.417750000022352,13.577664999989793,13.884640000062063,14.089739999966696,14.28386500000488,14.457735000061803,14.889824999962002,15.118039999972098,15.305855000042357,15.467434999998659,15.818124999990687,16.073959999950603]",space,0.751805,0.0,1.0,1.0,2.0,1.0,block_1/weak_n_72_4.wav,no,n,weak,72.0,1.922330121,17.89675189,,,Yes,Wolf Sades,0,No,m,31,R,Yes,1,2020-09-07_10h52.13.829,kura-A2,2020.1.2,Win32,60,,,,,,,,,,,,,,,,,,,,,,,,,
,,"[""space"",""space"",""space"",""space"",""space"",""space"",""space"",""space"",""space"",""space"",""space"",""space"",""space"",""space"",""space"",""space"",""space"",""space"",""space"",""space""]","[0.46536999999079853,0.9595449999906123,1.3594600000651553,1.9198399999877438,2.44941999996081,2.975760000059381,3.4718100000172853,3.9838699999963865,4.516479999991134,5.008084999979474,5.455949999974109,5.984264999977313,6.49945999996271,7.024154999991879,7.552179999998771,8.016940000001341,8.53234000003431,9.040440000011586,9.552529999986291,10.04905500006862]",space,0.483145,0.0,2.0,2.0,3.0,1.0,block_2/strong_t_119_4.wav,timbre,t,strong,119.0,2.380207574,12.24809873,,,Yes,Wolf Sades,0,No,m,31,R,Yes,1,2020-09-07_10h52.13.829,kura-A2,2020.1.2,Win32,60,,,,,,,,,,,,,,,,,,,,,,,,,
,,"[""space"",""space"",""space"",""space"",""space"",""space"",""space"",""space"",""space"",""space"",""space"",""space"",""space"",""space"",""space"",""space"",""space"",""space"",""space"",""space"",""space"",""space"",""space"",""space"",""space"",""space"",""space"",""space"",""space"",""space"",""space"",""space"",""space"",""space"",""space"",""space"",""space"",""space"",""space"",""space"",""space"",""space"",""space"",""space"",""space"",""space"",""space"",""space"",""space"",""space"",""space"",""space"",""space"",""space""]","[0.3209149999311194,1.088969999924302,1.26761500001885,1.425069999997504,2.050429999944754,2.2091449999716133,2.3692400000290945,2.517754999920726,2.6573099999222904,2.7854199999710545,2.9337499999674037,3.0732350000180304,3.2171849999576807,3.3492749999277294,3.4893199999351054,3.6494650000240654,3.8093149999622256,3.953359999926761,4.117175000021234,4.273380000027828,4.450149999931455,4.609364999923855,4.785384999937378,4.961415000027046,5.121745000011288,5.283629999961704,5.457479999982752,5.6176500000292435,5.793545000022277,5.953669999958947,6.134324999991804,6.289660000009462,6.531794999958947,6.72164000000339,6.883814999950118,7.201765000005253,7.3493049999233335,7.521775000030175,7.6837199999717996,7.857749999966472,8.017954999930225,8.19383999996353,8.369865000015125,8.53172500000801,8.705895000020973,8.849894999992102,9.009884999948554,9.169954999932088,9.332225000020117,9.570029999944381,9.750564999994822,9.92210999992676,10.117244999972172,10.274325000005774]",space,0.359805,0.0,3.0,3.0,1.0,1.0,block_2/medium_t_119_4.wav,timbre,t,medium,119.0,2.073396767,11.89421309,,,Yes,Wolf Sades,0,No,m,31,R,Yes,1,2020-09-07_10h52.13.829,kura-A2,2020.1.2,Win32,60,,,,,,,,,,,,,,,,,,,,,,,,,
,,,,,,,,,,,block_1/medium_n_92_4.wav,no,n,medium,92.0,1.438882438,14.02917722,,,Yes,Wolf Sades,0,No,m,31,R,Yes,1,2020-09-07_10h52.13.829,kura-A2,2020.1.2,Win32,60,space,3.544215,"[""space"",""space"",""space"",""space"",""space"",""space"",""space"",""space"",""space"",""space"",""space"",""space"",""space"",""space"",""space"",""space"",""space"",""space"",""space"",""space"",""space"",""space"",""space"",""space"",""space"",""space"",""space"",""space"",""space"",""space"",""space"",""space"",""space"",""space"",""space"",""space"",""space"",""space"",""space"",""space"",""space"",""space"",""space"",""space"",""space"",""space"",""space"",""space""]","[0.817405000096187,1.1044550000224262,1.6495200000936165,1.808835000032559,1.968870000098832,2.432744999998249,2.5766500000609085,3.008680000086315,3.4629350000759587,3.5848250000271946,4.000780000002123,4.144800000009127,4.657010000082664,4.801020000013523,5.313255000044592,5.440975000034086,5.601475000032224,6.0332600000547245,6.196385000017472,6.609120000037365,6.753325000056066,7.217355000087991,7.361200000043027,7.569240000098944,7.921310000005178,8.065395000041462,8.213229999993928,8.563360000029206,8.705410000053234,8.865655000088736,9.153450000099838,9.297920000040904,9.473640000098385,9.809500000090338,9.963545000064187,10.353564999997616,10.513290000031702,10.846580000012182,11.02572500007227,11.441685000085272,11.569830000051297,11.733035000041127,12.115180000080727,12.257820000057109,12.417795000015758,12.81800500000827,12.961895000073127,13.12195000005886]",space,0.5937,0.0,0.0,0.0,11.0,1.0,,,,,,,,,,,,,,
,,,,,,,,,,,block_1/weak_n_72_4.wav,no,n,weak,72.0,1.441009476,17.41543124,,,Yes,Wolf Sades,0,No,m,31,R,Yes,1,2020-09-07_10h52.13.829,kura-A2,2020.1.2,Win32,60,,,"[""space"",""space"",""space"",""space"",""space"",""space"",""space"",""space"",""space"",""space"",""space"",""space"",""space"",""space"",""space"",""space"",""space"",""space"",""space"",""space"",""space"",""space"",""space"",""space"",""space"",""space"",""space"",""space"",""space"",""space"",""space"",""space"",""space"",""space"",""space"",""space"",""space"",""space"",""space"",""space"",""space"",""space"",""space"",""space"",""space"",""space"",""space"",""space"",""space"",""space"",""space"",""space"",""space"",""space"",""space"",""space"",""space"",""space"",""space"",""space"",""space"",""space"",""space"",""space"",""space"",""space"",""space"",""space"",""space"",""space"",""space"",""space"",""space"",""space""]","[0.36823999998159707,0.8507599999429658,1.360179999959655,1.5041950000450015,1.6961649999720976,2.1442800000077114,2.2883549999678507,2.4517549999291077,2.817284999997355,3.008365000016056,3.1847599999746308,3.5044749999651685,3.652540000039153,3.824460000032559,3.9852999999420717,4.144510000012815,4.288594999932684,4.6565600000321865,4.7691150000318885,4.91301499994006,5.056589999934658,5.552584999939427,5.921224999940023,6.085149999940768,6.272744999965653,6.528685000026599,6.683319999952801,6.818650000030175,7.088914999971166,7.328869999968447,7.472869999939576,7.808884999947622,7.952855000039563,8.101284999982454,8.434114999952726,8.560979999951087,8.72109000000637,9.072984999977052,9.201809999998659,9.602635000017472,9.72942999994848,9.873215000028722,10.034544999944046,10.335139999981038,10.469260000041686,10.62515999993775,10.961249999934807,11.073239999939688,11.252080000005662,11.585384999983944,11.71874000004027,11.889394999947399,12.209425000008196,12.337384999962524,12.517529999953695,12.833994999993593,12.977455000043847,13.121539999963716,13.301845000009052,13.635290000005625,13.777520000003278,13.937694999971427,14.241685000015423,14.35367999994196,14.518565000034869,14.835085000027902,14.968619999941438,15.105725000030361,15.39386499999091,15.51769999996759,15.651025000028312,15.905799999949522,16.083804999943823,16.22578999993857]",space,0.359915,0.0,1.0,1.0,4.0,1.0,,,,,,,,,,,,,,
,,,,,,,,,,,block_1/weak_n_119_4.wav,no,n,weak,119.0,2.305568033,13.07926418,,,Yes,Wolf Sades,0,No,m,31,R,Yes,1,2020-09-07_10h52.13.829,kura-A2,2020.1.2,Win32,60,,,"[""space"",""space"",""space"",""space"",""space"",""space"",""space"",""space"",""space"",""space"",""space"",""space"",""space"",""space"",""space"",""space"",""space"",""space"",""space"",""space"",""space"",""space"",""space"",""space"",""space"",""space"",""space"",""space"",""space"",""space"",""space"",""space"",""space"",""space"",""space"",""space"",""space"",""space"",""space"",""space"",""space"",""space"",""space"",""space"",""space"",""space"",""space"",""space"",""space"",""space"",""space"",""space"",""space""]","[0.4336650000186637,1.0062250000191852,1.1687249999959022,2.2705149999819696,2.4347550000529736,2.622510000015609,2.8177099999738857,2.99051499995403,3.184129999950528,3.342420000000857,3.518485000007786,3.694535000016913,3.886489999946207,4.050294999964535,4.206634999951348,4.526779999956489,4.670604999992065,5.0548199999611825,5.215139999985695,5.374685000046156,5.502850000048056,5.63477000000421,5.8867349999491125,6.0186049999902025,6.384904999984428,6.495009999955073,6.878920000046492,7.135914999991655,7.278999999980442,7.407015000004321,7.567335000028834,7.667009999975562,7.822975000017323,7.952195000019856,8.11109000002034,8.255119999987073,8.495125000015832,8.639079999993555,8.801579999970272,8.943145000026561,9.087094999966212,9.295120000024326,9.439179999986663,9.56780499999877,9.711555000045337,10.00075000000652,10.175260000047274,10.319284999975935,10.469124999945052,10.767950000008568,10.92750500002876,11.087339999969117,11.250224999967031]",space,0.408215,0.0,2.0,2.0,31.0,1.0,,,,,,,,,,,,,,
,,,,,,,,,,,block_1/none_n_72_3.wav,no,n,none,72.0,1.892162994,23.61892036,,,Yes,Wolf Sades,0,No,m,31,R,Yes,1,2020-09-07_10h52.13.829,kura-A2,2020.1.2,Win32,60,,,"[""space"",""space"",""space"",""space"",""space"",""space"",""space"",""space"",""space"",""space"",""space"",""space"",""space"",""space"",""space"",""space"",""space"",""space"",""space"",""space"",""space"",""space"",""space"",""space"",""space"",""space"",""space"",""space"",""space"",""space"",""space"",""space"",""space"",""space"",""space"",""space"",""space"",""space"",""space"",""space"",""space"",""space"",""space"",""space"",""space"",""space"",""space"",""space"",""space"",""space"",""space"",""space"",""space"",""space"",""space"",""space"",""space"",""space"",""space"",""space"",""space"",""space"",""space"",""space"",""space"",""space"",""space"",""space"",""space"",""space"",""space"",""space"",""space"",""space"",""space"",""space"",""space"",""space"",""space"",""space"",""space"",""space"",""space"",""space"",""space"",""space"",""space"",""space""]","[1.5010449999244884,2.0593299999600276,2.251704999944195,2.619554999982938,2.78351500001736,3.016899999929592,3.17937000002712,3.531584999989718,3.6917249999241903,3.867809999966994,4.216870000003837,4.3501300000352785,4.733565000002272,4.891650000005029,5.211619999958202,5.371685000020079,5.531669999938458,5.723679999937303,5.868084999965504,6.139755000011064,6.286424999940209,6.459799999953248,6.769184999982826,6.9079299999866635,7.244040000019595,7.611879999982193,7.785975000006147,8.139974999940023,8.285999999963678,8.476204999955371,8.636689999955706,8.972109999973327,9.13210499996785,9.308175000012852,9.548420000006445,9.80492999998387,10.204524999950081,10.348189999931492,10.652959999977611,10.837159999995492,11.021984999999404,11.180300000007264,11.580579999950714,11.870499999960884,12.055019999970682,12.237599999993108,12.65453499997966,12.84458499995526,13.021145000006072,13.388554999954067,13.548605000018142,13.904540000017732,14.06063500000164,14.460650000022724,14.604829999967478,14.988840000005439,15.120914999977686,15.292799999937415,15.837489999947138,15.99690000002738,16.17291999992449,16.508960000006482,16.669104999979027,16.828929999959655,17.152359999949113,17.30926000000909,17.486339999944903,17.821164999972098,17.997089999960735,18.173145000007935,18.509235000004992,18.67103500000667,18.82929000002332,19.005234999931417,19.165210000006482,19.3253750000149,19.5029649999924,19.741249999962747,20.09348499996122,20.286534999962896,20.52535499993246,20.721904999925755,20.893429999938235,21.06975499994587,21.24546000000555,21.520904999924824,21.67770500003826,21.854274999932386]",space,0.73354,0.0,3.0,3.0,18.0,1.0,,,,,,,,,,,,,,
,,,,,,,,,,,block_1/strong_n_92_3.wav,no,n,strong,92.0,1.754608557,14.24499404,,,Yes,Wolf Sades,0,No,m,31,R,Yes,1,2020-09-07_10h52.13.829,kura-A2,2020.1.2,Win32,60,,,"[""space"",""space"",""space"",""space"",""space"",""space"",""space"",""space"",""space"",""space"",""space"",""space"",""space"",""space"",""space"",""space"",""space"",""space"",""space"",""space""]","[1.0919699999503791,1.4917999999597669,2.0678999999072403,2.708059999975376,3.2683299999916926,3.8761449999874458,4.500260000000708,5.140320000005886,5.764959999942221,6.372525000013411,7.049520000000484,7.68461999995634,8.292644999921322,8.90081999998074,9.508949999930337,10.166164999944158,10.804980000015348,11.39945499994792,12.085084999911487,12.693189999903552]",space,0.621425,0.0,4.0,4.0,39.0,1.0,,,,,,,,,,,,,,
,,,,,,,,,,,block_1/strong_n_119_3.wav,no,n,strong,119.0,1.213627968,10.9792062,,,Yes,Wolf Sades,0,No,m,31,R,Yes,1,2020-09-07_10h52.13.829,kura-A2,2020.1.2,Win32,60,,,"[""space"",""space"",""space"",""space"",""space"",""space"",""space"",""space"",""space"",""space"",""space"",""space"",""space"",""space"",""space"",""space"",""space"",""space"",""space"",""space""]","[0.8511249999282882,1.234749999945052,1.6510599999455735,2.118019999936223,2.610979999997653,3.090974999940954,3.6351400000276044,4.1498699999647215,4.627114999922924,5.075279999990016,5.5232899999246,6.019594999961555,6.5155200000153854,7.027684999979101,7.491459999931976,7.987804999924265,8.500869999988936,9.001195000018924,9.491834999993443,9.971769999945536]",space,0.51053,0.0,5.0,5.0,16.0,1.0,,,,,,,,,,,,,,
,,,,,,,,,,,block_1/weak_n_105_4.wav,no,n,weak,105.0,1.436012468,12.20911904,,,Yes,Wolf Sades,0,No,m,31,R,Yes,1,2020-09-07_10h52.13.829,kura-A2,2020.1.2,Win32,60,,,"[""space"",""space"",""space"",""space"",""space"",""space"",""space"",""space"",""space"",""space"",""space"",""space"",""space"",""space"",""space"",""space"",""space"",""space"",""space"",""space"",""space"",""space"",""space"",""space"",""space"",""space"",""space"",""space"",""space"",""space"",""space"",""space"",""space"",""space"",""space"",""space"",""space"",""space"",""space"",""space"",""space"",""space"",""space"",""space"",""space"",""space"",""space"",""space"",""space"",""space"",""space"",""space"",""space"",""space"",""space"",""space""]","[0.30437499994877726,0.5678949999855831,0.7690650000004098,0.9442999999737367,1.1692150000017136,1.3443999999435619,1.5043199999490753,1.636949999956414,2.128565000020899,2.2884249999187887,2.6724199999589473,2.818834999925457,2.976464999956079,3.3126349999802187,3.4566199999535456,3.61875499994494,3.776659999974072,4.102405000012368,4.240709999925457,4.419479999924079,4.592620000010356,4.785894999979064,5.121054999995977,5.267639999976382,5.456825000001118,5.636689999955706,5.825479999999516,6.001034999964759,6.19293000001926,6.385024999966845,6.58624500001315,6.769024999928661,6.992954999906942,7.136964999954216,7.285945000010543,7.7611249999608845,7.889089999953285,8.067279999959283,8.193074999959208,8.337094999966212,8.625339999911375,8.75207499996759,8.885825000004843,9.02520499995444,9.153394999913871,9.505215000011958,9.652714999974705,9.76136999996379,9.889444999978878,10.033779999939725,10.177469999995083,10.46910999994725,10.577364999917336,10.721389999962412,10.867310000001453,11.025410000002012]",space,0.455215,0.0,6.0,6.0,28.0,1.0,,,,,,,,,,,,,,
,,,,,,,,,,,block_1/none_n_105_4.wav,no,n,none,105.0,1.493653366,16.97025201,,,Yes,Wolf Sades,0,No,m,31,R,Yes,1,2020-09-07_10h52.13.829,kura-A2,2020.1.2,Win32,60,,,"[""space"",""space"",""space"",""space"",""space"",""space"",""space"",""space"",""space"",""space"",""space"",""space"",""space"",""space"",""space"",""space"",""space"",""space"",""space"",""space"",""space"",""space"",""space"",""space"",""space"",""space"",""space"",""space"",""space"",""space"",""space"",""space"",""space"",""space"",""space"",""space"",""space"",""space"",""space"",""space"",""space"",""space"",""space"",""space"",""space"",""space"",""space"",""space"",""space"",""space"",""space"",""space"",""space"",""space"",""space"",""space"",""space"",""space"",""space"",""space"",""space"",""space"",""space"",""space"",""space"",""space"",""space"",""space"",""space"",""space"",""space"",""space"",""space"",""space"",""space"",""space"",""space"",""space"",""space"",""space"",""space"",""space"",""space"",""space"",""space"",""space"",""space""]","[0.3503149999305606,0.5369400000199676,0.6823500000173226,0.8570700000273064,1.0496600000187755,1.2090450000250712,1.4012399999191985,1.5610149999847636,1.721114999963902,1.9005099999485537,2.0573500000173226,2.2342299999436364,2.3930949999485165,2.569389999960549,2.7350449999794364,2.9178899999242276,3.0834950000280514,3.2412250000052154,3.418405000003986,3.5773300000000745,3.769374999916181,3.933974999934435,4.105694999918342,4.2817400000058115,4.457649999996647,4.649914999958128,4.8254500000039116,5.001624999917112,5.177479999954812,5.3536150000290945,5.532394999987446,5.6898599999258295,5.867084999918006,6.057804999989457,6.265795000013895,6.409749999991618,6.60187999997288,6.809814999927767,6.969749999931082,7.149770000018179,7.353854999993928,7.532339999917895,7.721889999927953,7.900230000028387,8.089794999919832,8.267464999924414,8.458074999973178,8.634004999999888,8.809954999946058,9.001954999985173,9.193929999950342,9.385969999944791,9.548904999974184,9.73797499993816,9.948344999924302,10.138154999935068,10.31554999994114,10.506219999981113,10.682374999974854,10.890134999994189,11.06648999999743,11.258440000005066,11.450259999954142,11.642355000018142,11.834369999938644,12.02629499998875,12.202354999957606,12.410309999948367,12.586434999946505,12.782589999958873,12.970364999957383,13.151160000008531,13.322425000020303,13.514889999991283,13.674559999955818,13.850830000010319,14.02679499995429,14.202545000007376,14.383939999970607,14.53882000001613,14.73349499993492,14.906729999929667,15.067150000017136,15.258629999938421,15.434754999936558,15.626709999982268,15.802714999997988]",space,0.45192,0.0,7.0,7.0,14.0,1.0,,,,,,,,,,,,,,
,,,,,,,,,,,block_1/strong_n_72_4.wav,no,n,strong,72.0,1.599228342,16.96784512,,,Yes,Wolf Sades,0,No,m,31,R,Yes,1,2020-09-07_10h52.13.829,kura-A2,2020.1.2,Win32,60,,,"[""space"",""space"",""space"",""space"",""space"",""space"",""space"",""space"",""space"",""space"",""space"",""space"",""space"",""space"",""space"",""space"",""space"",""space"",""space"",""space"",""space""]","[0.9789850000524893,1.555140000069514,1.7187100000446662,2.3196800000732765,3.107079999987036,3.859234999981709,4.595354999997653,5.42738000000827,6.182220000075176,7.027575000072829,7.859784999978729,8.692009999998845,9.411810000077821,10.16710000007879,10.95221500005573,11.719855000032112,12.533195000025444,13.35144500003662,14.116970000090078,14.968225000076927,15.73339000006672]",space,0.75066,0.0,8.0,8.0,35.0,1.0,,,,,,,,,,,,,,
,,,,,,,,,,,block_1/medium_n_81_4.wav,no,n,medium,81.0,1.742854158,16.25138024,,,Yes,Wolf Sades,0,No,m,31,R,Yes,1,2020-09-07_10h52.13.829,kura-A2,2020.1.2,Win32,60,,,"[""space"",""space"",""space"",""space"",""space"",""space"",""space"",""space"",""space"",""space"",""space"",""space"",""space"",""space"",""space"",""space"",""space"",""space"",""space"",""space"",""space"",""space"",""space"",""space"",""space"",""space"",""space"",""space"",""space"",""space"",""space"",""space"",""space"",""space"",""space"",""space"",""space"",""space"",""space"",""space"",""space"",""space"",""space"",""space"",""space"",""space"",""space"",""space"",""space"",""space"",""space"",""space"",""space"",""space"",""space"",""space"",""space"",""space"",""space"",""space"",""space"",""space"",""space"",""space"",""space"",""space"",""space"",""space"",""space"",""space"",""space"",""space"",""space"",""space"",""space"",""space"",""space"",""space"",""space"",""space"",""space"",""space"",""space"",""space""]","[0.33238999999593943,0.5494550000876188,0.7616649999981746,0.9496450000442564,1.3860250000143424,1.5178800000576302,1.6577200000174344,1.8179500000551343,2.0578199999872595,2.2344450000673532,2.425870000035502,2.617904999991879,2.7512250000145286,2.8899400000227615,3.050690000061877,3.4992199999978766,3.6579299999866635,3.883215000038035,4.025995000032708,4.182634999975562,4.3005850000772625,4.442060000030324,4.586104999994859,4.717345000011846,4.938105000066571,5.101729999994859,5.2263450000900775,5.370165000087582,5.51617499999702,5.642280000029132,5.770280000055209,5.917755000060424,6.132785000023432,6.299500000081025,6.432975000003353,6.554424999980256,6.922665000078268,7.067630000063218,7.226395000005141,7.370495000039227,7.517705000005662,7.642590000061318,7.7545950000640005,7.950090000056662,8.122615000000224,8.266829999978654,8.4513900000602,8.667499999981374,8.810630000079982,8.95477499999106,9.083199999993667,9.21061000006739,9.386924999998882,9.565980000072159,9.770690000033937,9.932299999985844,10.11823500005994,10.250830000033602,10.384279999998398,10.506999999983236,10.715825000079349,10.890770000056364,11.034865000052378,11.166045000078157,11.33898500003852,11.514530000044033,11.650995000032708,11.771125000086613,11.984095000079833,12.165740000084043,12.31723000004422,12.71715000004042,12.899345000041649,13.035099999979138,13.182555000064895,13.400900000007823,13.566730000078678,13.884515000041574,14.01596500002779,14.155380000011064,14.300290000042878,14.491215000045486,14.867865000036545,15.033279999974184]",space,0.500895,0.0,9.0,9.0,38.0,1.0,,,,,,,,,,,,,,
,,,,,,,,,,,block_1/weak_n_119_3.wav,no,n,weak,119.0,2.459758036,10.81612992,,,Yes,Wolf Sades,0,No,m,31,R,Yes,1,2020-09-07_10h52.13.829,kura-A2,2020.1.2,Win32,60,,,"[""space"",""space"",""space"",""space"",""space"",""space"",""space"",""space"",""space"",""space"",""space"",""space"",""space"",""space"",""space"",""space"",""space"",""space"",""space"",""space"",""space"",""space"",""space"",""space"",""space"",""space"",""space"",""space"",""space"",""space"",""space"",""space"",""space"",""space"",""space"",""space"",""space"",""space"",""space"",""space"",""space"",""space"",""space"",""space"",""space"",""space"",""space"",""space""]","[0.5228549999883398,0.9866250000195578,1.133475000038743,1.3067000000737607,1.4988199999788776,1.700730000040494,1.8508399999700487,2.026799999992363,2.1708299999590963,2.3485100000398234,2.5068350000074133,2.6835250000003725,2.8588199999649078,3.002860000007786,3.181899999966845,3.3497849999694154,3.5003799999831244,3.6429250000510365,3.81909500004258,3.9812950000632554,4.138954999973066,4.31656499998644,4.491024999995716,4.667370000039227,4.826995000010356,5.003099999972619,5.183584999991581,5.3390950000612065,5.515989999985322,5.699159999960102,5.8673349999589846,6.043174999998882,6.203330000047572,6.366440000012517,6.539325000019744,6.715470000053756,6.891399999964051,7.081849999958649,7.2433149999706075,7.403395000030287,7.583660000003874,7.755364999989979,7.93390000006184,8.091540000052191,8.267579999985173,8.459765000035986,8.648984999977984,8.800374999991618]",space,0.41269,0.0,10.0,10.0,37.0,1.0,,,,,,,,,,,,,,
,,,,,,,,,,,block_1/medium_n_72_4.wav,no,n,medium,72.0,1.204769933,15.71334136,,,Yes,Wolf Sades,0,No,m,31,R,Yes,1,2020-09-07_10h52.13.829,kura-A2,2020.1.2,Win32,60,,,"[""space"",""space"",""space"",""space"",""space"",""space"",""space"",""space"",""space"",""space"",""space"",""space"",""space"",""space"",""space"",""space"",""space"",""space"",""space"",""space"",""space"",""space"",""space"",""space"",""space"",""space"",""space"",""space"",""space"",""space"",""space"",""space"",""space"",""space"",""space"",""space"",""space"",""space"",""space"",""space"",""space"",""space"",""space"",""space"",""space"",""space"",""space"",""space"",""space"",""space"",""space"",""space"",""space"",""space"",""space"",""space"",""space"",""space"",""space"",""space"",""space"",""space"",""space"",""space"",""space"",""space"",""space"",""space"",""space"",""space"",""space"",""space""]","[0.5825750000076368,0.7500399999553338,0.922164999996312,1.0832599999848753,1.242104999953881,1.4023299999535084,1.7062199999345466,1.8345099999569356,1.99421999999322,2.1542399999452755,2.3168199999490753,2.45836499996949,2.618449999950826,2.7491799999261275,2.9063399999868125,3.0844799999613315,3.2104099999414757,3.3864749999484047,3.5675549999577925,3.7544199998956174,3.915779999922961,4.074594999896362,4.458499999949709,4.602619999903254,4.76644999999553,5.16781999997329,5.306579999974929,5.4675299999071285,5.610729999956675,6.0107249999418855,6.154764999984764,6.301370000001043,6.667214999906719,6.810744999907911,6.982399999978952,7.567579999915324,7.690859999973327,7.8510999999707565,8.231839999905787,8.367050000000745,8.507024999940768,8.875189999933355,9.003159999963827,9.16843499999959,9.567579999915324,9.707099999999627,9.915515000000596,10.04336999997031,10.427269999985583,10.587169999955222,10.734004999976605,10.875269999960437,11.24333999992814,11.403374999994412,11.56807999999728,11.933849999913946,12.075359999900684,12.235589999938384,12.399209999945015,12.765749999904074,12.907419999944977,13.051679999916814,13.323564999969676,13.48362499999348,13.643659999943338,13.787559999967925,14.05954499996733,14.219760000007227,14.365649999934249,14.507630000007339,14.815699999919161,15.001079999958165]",space,0.614865,0.0,11.0,11.0,7.0,1.0,,,,,,,,,,,,,,
,,,,,,,,,,,block_1/strong_n_81_4.wav,no,n,strong,81.0,1.727706814,17.69954355,,,Yes,Wolf Sades,0,No,m,31,R,Yes,1,2020-09-07_10h52.13.829,kura-A2,2020.1.2,Win32,60,,,"[""space"",""space"",""space"",""space"",""space"",""space"",""space"",""space"",""space"",""space"",""space"",""space"",""space"",""space"",""space"",""space"",""space"",""space"",""space"",""space"",""space"",""space"",""space""]","[0.602294999989681,1.1023549999808893,1.7702099999878556,2.6343800000613555,2.7784499999834225,3.3385550000239164,4.138600000063889,4.9226699999999255,5.802834999980405,6.635200000018813,7.354924999992363,8.203044999972917,8.378930000006221,9.035170000046492,9.819420000072569,10.667394999996759,11.568590000038967,12.395834999973886,13.117250000010245,13.933885000064038,14.668449999997392,15.51636500004679,16.39599500002805]",space,0.34833,0.0,12.0,12.0,1.0,1.0,,,,,,,,,,,,,,
,,,,,,,,,,,block_1/weak_n_81_3.wav,no,n,weak,81.0,1.412334255,16.47029344,,,Yes,Wolf Sades,0,No,m,31,R,Yes,1,2020-09-07_10h52.13.829,kura-A2,2020.1.2,Win32,60,,,"[""space"",""space"",""space"",""space"",""space"",""space"",""space"",""space"",""space"",""space"",""space"",""space"",""space"",""space"",""space"",""space"",""space"",""space"",""space"",""space"",""space"",""space"",""space"",""space"",""space"",""space"",""space"",""space"",""space"",""space"",""space"",""space"",""space"",""space"",""space"",""space"",""space"",""space"",""space"",""space"",""space"",""space"",""space"",""space"",""space"",""space"",""space"",""space"",""space"",""space"",""space"",""space"",""space"",""space"",""space"",""space"",""space"",""space"",""space"",""space"",""space"",""space"",""space"",""space"",""space"",""space"",""space"",""space"",""space"",""space"",""space"",""space"",""space"",""space"",""space"",""space"",""space"",""space"",""space"",""space"",""space"",""space"",""space"",""space"",""space"",""space"",""space"",""space"",""space"",""space""]","[0.5607099999906495,0.7367099999682978,0.9005449999822304,1.056940000038594,1.2343699999619275,1.3930549999931827,1.5529899999964982,1.7156899999827147,1.888935000053607,2.01780500006862,2.177125000045635,2.336894999956712,2.5003750000614673,2.6570150000043213,2.817120000021532,2.961035000043921,3.1209800000069663,3.2995499999960884,3.441025000065565,3.5051600000588223,3.631775000016205,3.7157150000566617,3.8250799999805167,3.937099999981001,4.0334149999544024,4.132669999962673,4.257285000057891,4.44932500005234,4.565290000056848,4.867620000033639,5.009539999999106,5.153195000020787,5.498840000014752,5.6672200000612065,5.809340000036173,6.017714999965392,6.161554999998771,6.337414999958128,6.532194999977946,6.65742499998305,6.785690000047907,7.041474999976344,7.2015299999620765,7.393750000046566,7.553715000045486,7.793500000028871,7.985560000059195,8.177660000044852,8.338080000015907,8.593770000035875,8.75371499999892,8.965764999971725,9.13766999996733,9.298384999972768,9.45766499999445,9.68406999995932,9.841870000003837,10.084555000066757,10.273825000040233,10.450515000033192,10.650355000048876,10.917365000001155,11.09004499996081,11.266145000001416,11.383284999988973,11.602640000055544,11.794035000028089,11.999030000064522,12.19445499998983,12.365594999981113,12.516219999990426,12.70613000006415,12.86624500004109,13.026180000044405,13.23430000001099,13.41016500000842,13.570210000034422,13.732220000005327,13.890684999991208,14.067374999984168,14.210360000026412,14.322309999959543,14.501040000002831,14.658455000026152,14.834430000046268,15.010359999956563,15.170440000016242,15.317099999985658,15.500780000002123,15.732289999956265]",space,0.366585,0.0,13.0,13.0,30.0,1.0,,,,,,,,,,,,,,
,,,,,,,,,,,block_1/none_n_119_4.wav,no,n,none,119.0,2.009432028,15.37111003,,,Yes,Wolf Sades,0,No,m,31,R,Yes,1,2020-09-07_10h52.13.829,kura-A2,2020.1.2,Win32,60,,,"[""space"",""space"",""space"",""space"",""space"",""space"",""space"",""space"",""space"",""space"",""space"",""space"",""space"",""space"",""space"",""space"",""space"",""space"",""space"",""space"",""space"",""space"",""space"",""space"",""space"",""space"",""space"",""space"",""space"",""space"",""space"",""space"",""space"",""space"",""space"",""space"",""space"",""space"",""space"",""space"",""space"",""space"",""space"",""space"",""space"",""space"",""space"",""space"",""space"",""space"",""space"",""space"",""space"",""space"",""space"",""space"",""space"",""space"",""space"",""space"",""space"",""space"",""space"",""space"",""space"",""space"",""space"",""space"",""space"",""space"",""space"",""space"",""space"",""space"",""space"",""space"",""space"",""space"",""space"",""space"",""space"",""space""]","[0.5784649999113753,0.802629999932833,0.9525600000051782,1.0905949999578297,1.2508399999933317,1.4108649999834597,1.7713049999438226,1.874695000005886,2.018809999921359,2.4508099999511614,2.5789249999215826,2.7388199999695644,2.885069999960251,3.058809999958612,3.219204999972135,3.394969999906607,3.5868149999296293,3.954894999973476,4.133004999952391,4.291259999969043,4.451849999953993,4.642969999928027,4.802979999920353,4.967019999981858,5.123109999927692,5.300274999928661,5.459059999906458,5.619100000010803,5.752879999927245,5.907209999975748,6.067139999940991,6.195139999967068,6.385299999965355,6.519269999931566,6.675289999926463,6.8192699999781325,6.968599999905564,7.123309999937192,7.285234999959357,7.4501199999358505,7.619354999973439,7.779284999938682,7.939719999907538,8.10044999991078,8.533569999970496,8.675534999929368,8.835679999901913,8.995464999927208,9.155529999989085,9.317734999931417,9.459499999997206,9.619519999949262,9.768244999926537,9.92368499992881,10.083899999968708,10.275719999917783,10.433714999933727,10.535329999984242,10.611844999948516,10.718720000004396,10.901689999969676,11.107714999932796,11.203905000002123,11.30246499995701,11.518255000002682,11.717644999967888,11.827759999898262,11.939784999936819,12.050224999897182,12.133644999936223,12.352394999936223,12.452174999983981,12.566239999956451,12.676274999976158,12.786129999905825,12.995919999899343,13.118344999966212,13.220169999985956,13.332994999946095,13.428124999976717,13.556074999971315,14.983894999953918]",space,0.352335,0.0,14.0,14.0,20.0,1.0,,,,,,,,,,,,,,
,,,,,,,,,,,block_1/medium_n_119_3.wav,no,n,medium,119.0,1.238363393,11.09976929,,,Yes,Wolf Sades,0,No,m,31,R,Yes,1,2020-09-07_10h52.13.829,kura-A2,2020.1.2,Win32,60,,,"[""space"",""space"",""space"",""space"",""space"",""space"",""space"",""space"",""space"",""space"",""space"",""space"",""space"",""space"",""space"",""space"",""space"",""space"",""space"",""space"",""space"",""space"",""space"",""space"",""space"",""space"",""space"",""space"",""space"",""space"",""space"",""space"",""space"",""space"",""space"",""space"",""space"",""space"",""space"",""space"",""space"",""space"",""space"",""space"",""space"",""space"",""space"",""space"",""space"",""space"",""space"",""space""]","[0.667105000000447,0.8589900000952184,1.0671300000976771,1.243125000037253,1.465580000076443,1.6110350000672042,1.7871800001012161,1.998850000090897,2.1871450000908226,2.383940000087023,2.5872400000225753,2.799530000076629,3.035370000055991,3.2433550000423566,3.4673850000835955,3.7234600000083447,3.915980000048876,4.075405000010505,4.383515000110492,4.582305000047199,4.767370000015944,4.891580000054091,5.243495000060648,5.387540000025183,5.617275000084192,5.787560000084341,6.016545000020415,6.219635000103153,6.348715000087395,6.603900000103749,6.748605000087991,7.084520000033081,7.232550000073388,7.3819450000301,7.675745000015013,7.819905000040308,7.967635000008158,8.219790000002831,8.36499500006903,8.51546500006225,8.751420000102371,8.876145000103861,9.048775000032037,9.340120000066236,9.484135000035167,9.64405500004068,9.78803500009235,10.044105000095442,10.204095000051893,10.34888500010129,10.87609000003431,11.004285000031814]",space,0.06518,0.0,15.0,15.0,22.0,1.0,,,,,,,,,,,,,,
,,,,,,,,,,,block_1/weak_n_105_3.wav,no,n,weak,105.0,1.738990723,13.41450093,,,Yes,Wolf Sades,0,No,m,31,R,Yes,1,2020-09-07_10h52.13.829,kura-A2,2020.1.2,Win32,60,,,"[""space"",""space"",""space"",""space"",""space"",""space"",""space"",""space"",""space"",""space"",""space"",""space"",""space"",""space"",""space"",""space"",""space"",""space"",""space"",""space"",""space"",""space"",""space"",""space"",""space"",""space"",""space"",""space"",""space"",""space"",""space"",""space"",""space"",""space"",""space"",""space"",""space"",""space"",""space"",""space"",""space"",""space"",""space"",""space"",""space"",""space"",""space"",""space"",""space"",""space"",""space"",""space"",""space"",""space"",""space"",""space"",""space"",""space"",""space"",""space"",""space"",""space""]","[0.9349650000222027,1.0803150000283495,1.2323500000638887,1.3991500000702217,1.8976300000213087,2.007110000005923,2.182145000086166,2.315640000044368,2.471155000035651,2.7160900000017136,2.8983850000659004,3.0815950001124293,3.239115000003949,3.415635000099428,3.543130000005476,3.7036599999992177,3.8504300001077354,4.033350000041537,4.198170000105165,4.332260000053793,4.535405000089668,4.747635000036098,4.9656000001123175,5.115690000005998,5.28233000007458,5.415855000028387,5.559370000031777,5.783425000030547,6.023685000021942,6.215130000025965,6.407455000095069,6.599620000110008,6.823520000092685,7.282370000029914,7.44717500009574,7.575675000087358,7.731625000014901,7.9307700000936165,8.103685000096448,8.280145000084303,8.455745000042953,8.615575000061654,8.765055000083521,8.903810000047088,9.080835000029765,9.24956500006374,9.39984500000719,9.547500000102445,9.719850000110455,9.864450000110082,10.015620000078343,10.13593500002753,10.392100000055507,10.615175000042655,10.760020000045188,10.93631500005722,11.176100000040606,11.320189999998547,11.464575000107288,11.598794999998063,11.897075000102632,12.065635000006296]",space,0.354815,0.0,16.0,16.0,27.0,1.0,,,,,,,,,,,,,,
,,,,,,,,,,,block_1/medium_n_119_4.wav,no,n,medium,119.0,1.261396351,9.568471181,,,Yes,Wolf Sades,0,No,m,31,R,Yes,1,2020-09-07_10h52.13.829,kura-A2,2020.1.2,Win32,60,,,"[""space"",""space"",""space"",""space"",""space"",""space"",""space"",""space"",""space"",""space"",""space"",""space"",""space"",""space"",""space"",""space"",""space"",""space"",""space"",""space"",""space"",""space"",""space"",""space"",""space"",""space"",""space"",""space"",""space"",""space"",""space"",""space"",""space"",""space"",""space"",""space"",""space"",""space"",""space"",""space"",""space"",""space"",""space"",""space"",""space"",""space"",""space"",""space""]","[0.544495000038296,0.704535000026226,0.916205000015907,1.0725899999961257,1.2511849999427795,1.5341300000436604,1.69941999996081,1.8510650000534952,1.9848250000504777,2.1287500000325963,2.3176949999760836,2.4663100000470877,2.624779999954626,2.80211499996949,2.9448450000490993,3.088895000051707,3.2174299999605864,3.5688150000059977,3.900950000039302,4.065569999977015,4.224900000030175,4.352900000056252,4.499165000044741,4.6494800000218675,4.80230500001926,4.966830000048503,5.185085000004619,5.3771900000283495,5.5370350000448525,5.683530000038445,5.85070499998983,5.985194999957457,6.198830000008456,6.369270000024699,6.577264999970794,6.7532849999843165,6.883024999988265,7.050979999941774,7.217595000052825,7.3773000000510365,7.553304999950342,7.7326950000133365,7.899499999941327,8.067894999985583,8.267229999997653,8.434490000014193,8.609399999957532,8.849560000002384]",space,0.318965,0.0,17.0,17.0,17.0,1.0,,,,,,,,,,,,,,
,,,,,,,,,,,block_1/strong_n_72_3.wav,no,n,strong,72.0,2.03136762,17.09667374,,,Yes,Wolf Sades,0,No,m,31,R,Yes,1,2020-09-07_10h52.13.829,kura-A2,2020.1.2,Win32,60,,,"[""space"",""space"",""space"",""space"",""space"",""space"",""space"",""space"",""space"",""space"",""space"",""space"",""space"",""space"",""space"",""space"",""space"",""space"",""space"",""space"",""space"",""space"",""space"",""space"",""space""]","[0.35563500004354864,0.9666199999628589,1.4331000000238419,2.2921550000319257,2.447844999958761,2.9657150000566617,3.7482600000221282,4.549170000012964,5.316360000055283,6.0044749999651685,6.148715000017546,6.804589999956079,7.572689999942668,7.716514999978244,8.399764999980107,9.140679999953136,9.31437499995809,9.908730000024661,10.682499999995343,11.524979999987409,12.382250000024214,13.093160000047646,13.864984999992885,14.632265000022016,15.365544999949634]",space,0.366505,0.0,18.0,18.0,32.0,1.0,,,,,,,,,,,,,,
,,,,,,,,,,,block_1/none_n_119_3.wav,no,n,none,119.0,1.932281918,14.89500301,,,Yes,Wolf Sades,0,No,m,31,R,Yes,1,2020-09-07_10h52.13.829,kura-A2,2020.1.2,Win32,60,,,"[""space"",""space"",""space"",""space"",""space"",""space"",""space"",""space"",""space"",""space"",""space"",""space"",""space"",""space"",""space"",""space"",""space"",""space"",""space"",""space"",""space"",""space"",""space"",""space"",""space"",""space"",""space"",""space"",""space"",""space"",""space"",""space"",""space"",""space"",""space"",""space"",""space"",""space"",""space"",""space"",""space"",""space"",""space"",""space"",""space"",""space"",""space"",""space"",""space"",""space"",""space"",""space"",""space"",""space"",""space"",""space"",""space"",""space"",""space"",""space"",""space"",""space"",""space"",""space"",""space"",""space"",""space"",""space"",""space""]","[0.3674950000131503,0.7828900000313297,0.9586950000375509,1.1188599999295548,1.3106649999972433,1.5027700000209734,1.6679249999579042,1.8676099999574944,2.018350000027567,2.2067800000077114,2.3847400000086054,2.5428199999732897,2.8329049999592826,2.9504099999321625,3.100899999961257,3.2510150000452995,3.406994999968447,3.7109749999362975,3.870965000009164,4.033470000023954,4.207049999968149,4.517834999947809,4.687180000008084,4.834554999950342,5.151390000013635,5.327214999939315,5.451615000027232,5.775264999945648,5.935365000041202,6.111434999969788,6.434364999993704,6.575274999951944,6.917170000029728,7.103549999999814,7.2845199999865144,7.439475000021048,7.711355000035837,7.8007399999769405,7.951899999985471,8.132979999994859,8.319595000008121,8.516040000016801,8.616864999989048,8.816095000016503,9.023760000010952,9.183665000018664,9.34941499994602,9.516895000007935,9.743724999949336,10.016025000018999,10.199724999954924,10.351819999981672,10.52796999993734,10.866279999958351,11.032724999939092,11.21620999998413,11.375875000027008,11.499289999948815,11.651339999982156,11.75096500001382,12.149514999939129,12.288040000014007,12.46722500002943,12.699754999950528,12.801119999960065,12.991979999933392,13.152005000039935,13.344210000010207,14.576299999956973]",space,0.6339,0.0,19.0,19.0,24.0,1.0,,,,,,,,,,,,,,
,,,,,,,,,,,block_1/strong_n_92_4.wav,no,n,strong,92.0,2.276261723,15.98016195,,,Yes,Wolf Sades,0,No,m,31,R,Yes,1,2020-09-07_10h52.13.829,kura-A2,2020.1.2,Win32,60,,,"[""space"",""space"",""space"",""space"",""space"",""space"",""space"",""space"",""space"",""space"",""space"",""space"",""space"",""space"",""space"",""space"",""space"",""space"",""space"",""space""]","[0.935010000015609,1.4647349999286234,1.9994350000051782,2.6833349999506027,3.4838849999941885,4.217234999989159,4.935315000009723,5.56539999996312,6.282110000029206,7.0511549999937415,7.732594999950379,8.407684999983758,9.099509999970905,9.75192499998957,10.432169999927282,11.240029999986291,11.934329999960028,12.598735000006855,13.368419999955222,14.104545000009239]",space,0.76996,0.0,20.0,20.0,34.0,1.0,,,,,,,,,,,,,,
,,,,,,,,,,,block_1/none_n_92_3.wav,no,n,none,92.0,2.336707073,18.23675242,,,Yes,Wolf Sades,0,No,m,31,R,Yes,1,2020-09-07_10h52.13.829,kura-A2,2020.1.2,Win32,60,,,"[""space"",""space"",""space"",""space"",""space"",""space"",""space"",""space"",""space"",""space"",""space"",""space"",""space"",""space"",""space"",""space"",""space"",""space"",""space"",""space"",""space"",""space"",""space"",""space"",""space"",""space"",""space"",""space"",""space"",""space"",""space"",""space"",""space"",""space"",""space"",""space"",""space"",""space"",""space"",""space"",""space"",""space"",""space"",""space"",""space"",""space"",""space"",""space"",""space"",""space"",""space"",""space"",""space"",""space"",""space"",""space"",""space"",""space"",""space"",""space"",""space"",""space"",""space"",""space"",""space"",""space"",""space"",""space"",""space"",""space"",""space"",""space"",""space"",""space"",""space"",""space"",""space"",""space"",""space"",""space"",""space"",""space"",""space"",""space"",""space"",""space"",""space"",""space"",""space"",""space"",""space"",""space"",""space"",""space"",""space"",""space"",""space"",""space""]","[0.5895500000333413,0.9256250000325963,1.149790000054054,1.3576700000558048,1.5017450000159442,1.6485850000753999,1.7998650000663474,1.9509350000880659,2.1736900000832975,2.3338700000895187,2.4664300000295043,2.6506150000495836,2.8157450000289828,3.0379650000249967,3.199075000011362,3.3418100000126287,3.5155850000446662,3.6669199999887496,3.835025000036694,3.999045000062324,4.182005000067875,4.366705000051297,4.510030000004917,4.686070000054315,4.849830000079237,5.022390000056475,5.167405000072904,5.317284999997355,5.4861900000832975,5.649075000081211,5.815585000091232,5.9686450000153854,6.132244999986142,6.299780000001192,6.517725000041537,6.666975000058301,6.801500000059605,6.942215000046417,7.098420000053011,7.215410000062548,7.3582900000037625,7.502930000075139,7.665690000052564,7.782510000048205,7.886330000008456,8.049250000040047,8.22252000006847,8.382525000022724,8.549655000097118,8.734520000056364,8.882444999995641,9.054545000079088,9.217670000041835,9.374795000068843,9.520989999989979,9.665665000095032,9.822580000036396,9.984189999988303,10.11748500005342,10.267945000086911,10.401630000094883,10.532914999988861,10.670725000090897,10.801485000061803,10.94897500006482,11.07069500000216,11.20188499998767,11.34277500002645,11.455064999987371,11.599010000005364,11.731895000091754,11.870800000033341,12.016370000084862,12.184740000055172,12.302915000007488,12.450915000052191,12.883825000026263,13.00702000001911,13.151279999990948,13.299575000070035,13.468250000034459,13.617405000026338,13.775060000014491,13.935475000063889,14.116465000086464,14.271240000030957,14.435385000077076,14.591119999997318,14.751329999999143,14.927165000000969,15.087390000000596,15.23238499998115,15.401505000074394,15.565685000037774,15.717515000025742,15.86742999998387,16.0176700000884,16.168170000077225]",space,0.423165,0.0,21.0,21.0,25.0,1.0,,,,,,,,,,,,,,
,,,,,,,,,,,block_1/medium_n_92_3.wav,no,n,medium,92.0,1.602440637,13.28810957,,,Yes,Wolf Sades,0,No,m,31,R,Yes,1,2020-09-07_10h52.13.829,kura-A2,2020.1.2,Win32,60,,,"[""space"",""space"",""space"",""space"",""space"",""space"",""space"",""space"",""space"",""space"",""space"",""space"",""space"",""space"",""space"",""space"",""space"",""space"",""space"",""space"",""space"",""space"",""space"",""space"",""space"",""space"",""space"",""space"",""space"",""space"",""space"",""space"",""space"",""space"",""space"",""space"",""space"",""space"",""space"",""space"",""space"",""space"",""space"",""space"",""space"",""space"",""space"",""space"",""space"",""space"",""space"",""space"",""space"",""space"",""space"",""space"",""space"",""space"",""space"",""space"",""space"",""space"",""space"",""space"",""space"",""space"",""space"",""space"",""space"",""space"",""space"",""space"",""space""]","[0.5480300000635907,0.7640050000045449,0.9658249999629334,1.122289999970235,1.2503649999853224,1.3828099999809638,1.6967050000093877,1.815679999999702,1.9633250000188127,2.1333149999845773,2.2583700000541285,2.4345899999607354,2.6323349999729544,2.7545249999966472,2.8831350000109524,3.015885000000708,3.154484999948181,3.3153699999675155,3.730639999965206,3.875054999953136,4.0505600000033155,4.216329999966547,4.322640000027604,4.450680000009015,4.581054999958724,4.715055000036955,4.835025000036694,4.94698500004597,5.090779999969527,5.248189999954775,5.364599999971688,5.497280000010505,5.618819999974221,5.748340000049211,5.88230499997735,6.0314500000094995,6.339045000029728,6.4797900000121444,6.615175000042655,6.730409999960102,7.012179999961518,7.171119999955408,7.414439999964088,7.587004999979399,7.733295000041835,7.882330000051297,7.999019999988377,8.21495000005234,8.382205000030808,8.56567499996163,8.715354999992996,8.863220000057481,8.998615000047721,9.123129999963567,9.24828499997966,9.430455000023358,9.5990649999585,9.747889999998733,9.907319999998435,10.06332499999553,10.197294999961741,10.349034999962896,10.467305000056513,10.681040000054054,10.815535000059754,10.948190000024624,11.148574999999255,11.363770000054501,11.491515000001527,11.60352999996394,11.748855000012554,11.899399999994785,12.282705000019632]",space,0.38382,0.0,22.0,22.0,2.0,1.0,,,,,,,,,,,,,,
,,,,,,,,,,,block_1/weak_n_81_4.wav,no,n,weak,81.0,2.484743178,17.5438815,,,Yes,Wolf Sades,0,No,m,31,R,Yes,1,2020-09-07_10h52.13.829,kura-A2,2020.1.2,Win32,60,,,"[""space"",""space"",""space"",""space"",""space"",""space"",""space"",""space"",""space"",""space"",""space"",""space"",""space"",""space"",""space"",""space"",""space"",""space"",""space"",""space"",""space"",""space"",""space"",""space"",""space"",""space"",""space"",""space"",""space"",""space"",""space"",""space"",""space"",""space"",""space"",""space"",""space"",""space"",""space"",""space"",""space"",""space"",""space"",""space"",""space"",""space"",""space"",""space"",""space"",""space"",""space"",""space"",""space"",""space"",""space"",""space"",""space"",""space"",""space"",""space"",""space"",""space"",""space"",""space"",""space"",""space"",""space"",""space"",""space"",""space"",""space"",""space"",""space"",""space""]","[0.5749249999644235,0.7510349999647588,0.9108449999475852,1.4708799999207258,1.6153149999445304,1.758919999934733,1.9029249999439344,2.3511449999641627,2.511164999916218,2.701089999987744,2.900814999942668,3.2348399999318644,3.3750799999106675,3.5351549999322742,3.68234499997925,3.8496649999869987,4.233535000006668,4.400329999974929,4.511174999992363,4.671214999980293,4.816439999965951,5.250319999991916,5.407294999924488,5.600229999981821,5.743305000010878,5.900164999999106,6.082979999948293,6.239474999951199,6.415849999990314,6.59156999993138,6.78367499995511,6.9335250000003725,7.103484999970533,7.266819999902509,7.466944999992847,7.615739999921061,7.807574999984354,7.9822549999225885,8.159630000009201,8.349554999964312,8.483034999924712,8.633434999966994,8.783034999971278,9.100219999905676,9.248939999961294,9.375720000010915,9.515589999966323,9.797274999902584,9.935774999903515,10.06622499995865,10.223765000002459,10.367884999956004,10.533634999999776,10.688129999907687,10.833459999994375,11.265419999952428,11.399414999992587,11.584004999953322,11.791984999901615,12.032314999960363,12.208004999905825,12.783509999979287,12.898844999959692,13.100334999966435,13.566995000001043,13.733474999899045,13.90427999990061,14.098694999935105,14.266209999914281,14.433424999937415,14.650209999992512,14.866914999904111,15.10050499998033,15.300394999911077]",space,0.367175,0.0,23.0,23.0,36.0,1.0,,,,,,,,,,,,,,
,,,,,,,,,,,block_1/none_n_105_3.wav,no,n,none,105.0,2.216733946,14.87818519,,,Yes,Wolf Sades,0,No,m,31,R,Yes,1,2020-09-07_10h52.13.829,kura-A2,2020.1.2,Win32,60,,,"[""space"",""space"",""space"",""space"",""space"",""space"",""space"",""space"",""space"",""space"",""space"",""space"",""space"",""space"",""space"",""space"",""space"",""space"",""space"",""space"",""space"",""space"",""space"",""space"",""space"",""space"",""space"",""space"",""space"",""space"",""space"",""space"",""space"",""space"",""space"",""space"",""space"",""space"",""space"",""space"",""space"",""space"",""space"",""space"",""space"",""space"",""space"",""space"",""space"",""space"",""space"",""space"",""space"",""space"",""space"",""space"",""space"",""space"",""space"",""space"",""space"",""space"",""space"",""space"",""space"",""space"",""space"",""space"",""space"",""space"",""space"",""space"",""space"",""space"",""space"",""space"",""space"",""space"",""space"",""space"",""space"",""space"",""space"",""space"",""space"",""space"",""space"",""space""]","[0.5658149999799207,0.7164650000631809,0.865845000022091,0.9874650000128895,1.3346850000089034,1.4522750000469387,1.6163899999810383,1.7658900000387803,1.917989999987185,2.059555000043474,2.2342300000600517,2.3490699999965727,2.517755000037141,2.601020000060089,2.732495000003837,2.885439999983646,3.0324150000233203,3.1842150000156835,3.307710000080988,3.483974999981001,3.6277199999894947,3.7673700000159442,3.9021450000582263,4.059750000014901,4.215735000092536,4.333655000082217,4.466625000000931,4.587930000037886,4.733370000030845,4.884859999991022,5.00026500003878,5.117094999994151,5.2671250000130385,5.399045000085607,5.550625000032596,5.717130000004545,5.86640499997884,5.9823900000192225,6.115720000001602,6.253100000089034,6.382340000011027,6.533730000024661,6.666440000059083,6.817715000011958,6.940204999991693,7.0842849999899045,7.233760000090115,7.37237500003539,7.533649999997579,7.683760000043549,7.804195000091568,7.9494399999966845,8.083950000000186,8.217135000042617,8.332984999986365,8.465124999987893,8.617094999994151,8.74890000000596,8.866374999983236,9.000310000032187,9.1497199999867,9.276375000015832,9.500780000002123,9.648915000027046,9.783965000067838,9.90147500007879,10.03363000007812,10.172575000091456,10.316935000009835,10.417000000015832,10.548990000039339,10.700335000059567,10.9171750000678,11.065675000078045,11.21729000005871,11.324645000044256,11.468764999997802,11.600310000008903,11.750850000069477,11.933750000083819,12.10867500002496,12.252790000056848,12.398879999993369,12.532370000029914,12.684869999997318,12.884945000056177,13.083590000052936,13.233654999989085]",space,0.184385,0.0,24.0,24.0,6.0,1.0,,,,,,,,,,,,,,
,,,,,,,,,,,block_1/medium_n_72_3.wav,no,n,medium,72.0,2.102023577,18.17590113,,,Yes,Wolf Sades,0,No,m,31,R,Yes,1,2020-09-07_10h52.13.829,kura-A2,2020.1.2,Win32,60,,,"[""space"",""space"",""space"",""space"",""space"",""space"",""space"",""space"",""space"",""space"",""space"",""space"",""space"",""space"",""space"",""space"",""space"",""space"",""space"",""space"",""space"",""space"",""space"",""space"",""space"",""space"",""space"",""space"",""space"",""space"",""space"",""space"",""space"",""space"",""space"",""space"",""space"",""space"",""space"",""space"",""space"",""space"",""space"",""space"",""space"",""space"",""space"",""space"",""space"",""space"",""space"",""space"",""space"",""space"",""space"",""space"",""space"",""space"",""space"",""space"",""space"",""space"",""space"",""space"",""space"",""space"",""space"",""space"",""space"",""space"",""space"",""space"",""space"",""space"",""space"",""space"",""space"",""space"",""space"",""space"",""space"",""space"",""space"",""space"",""space"",""space""]","[0.5823800000362098,0.8010599999688566,0.9429450000170618,1.1170550000388175,1.2489399999612942,1.5511199999600649,1.8836649999720976,2.0316599999787286,2.287140000029467,2.5317150000482798,2.6997899999842048,2.8654849999584258,2.9837050000205636,3.117880000034347,3.4335549999959767,3.5824899999424815,3.90019499999471,3.999349999940023,4.150885000010021,4.4009749999968335,4.591320000006817,4.999160000006668,5.119414999964647,5.265754999942146,5.50343000004068,5.699194999993779,5.83417000004556,6.150499999988824,6.2991649999748915,6.450904999976046,6.599114999989979,6.917490000021644,7.150774999987334,7.284014999982901,7.6657000000122935,7.791639999952167,7.965169999981299,8.21690999995917,8.365654999972321,8.56567499996163,8.784594999975525,8.916315000038594,9.065659999963827,9.200745000038296,9.433109999983571,9.632385000004433,9.81730500003323,9.967339999973774,10.223924999940209,10.366919999942183,10.532400000025518,10.682399999932386,10.882344999932684,11.065120000042953,11.215979999979027,11.365129999932833,11.584640000015497,11.732360000023618,11.900499999988824,12.033659999957308,12.217339999973774,12.384525000001304,12.549609999987297,12.718735000002198,12.865024999948218,13.034239999949932,13.168349999934435,13.317945000017062,13.484489999944344,13.650275000021793,13.848140000016429,13.998849999974482,14.165599999949336,14.336585000040941,14.532980000018142,14.682124999933876,14.8166800000472,14.966365000000224,15.18344499997329,15.316809999989346,15.500619999947958,15.665730000007898,16.176850000047125,16.336684999987483,16.515539999934845,16.75070999993477]",space,0.069115,0.0,25.0,25.0,13.0,1.0,,,,,,,,,,,,,,
,,,,,,,,,,,block_1/none_n_92_4.wav,no,n,none,92.0,1.296817987,15.18938035,,,Yes,Wolf Sades,0,No,m,31,R,Yes,1,2020-09-07_10h52.13.829,kura-A2,2020.1.2,Win32,60,,,"[""space"",""space"",""space"",""space"",""space"",""space"",""space"",""space"",""space"",""space"",""space"",""space"",""space"",""space"",""space"",""space"",""space"",""space"",""space"",""space"",""space"",""space"",""space"",""space"",""space"",""space"",""space"",""space"",""space"",""space"",""space"",""space"",""space"",""space"",""space"",""space"",""space"",""space"",""space"",""space"",""space"",""space"",""space"",""space"",""space"",""space"",""space"",""space"",""space"",""space"",""space"",""space"",""space"",""space"",""space"",""space"",""space"",""space"",""space"",""space"",""space"",""space"",""space"",""space"",""space"",""space"",""space"",""space"",""space"",""space"",""space"",""space"",""space"",""space"",""space"",""space"",""space"",""space""]","[0.8828499999362975,1.0007500000065193,1.1837799999630079,1.3321449999930337,1.5171299999346957,1.6663299999199808,1.810689999954775,1.954729999997653,2.100209999945946,2.2507399999303743,2.398854999919422,2.517779999994673,2.6838199999183416,2.8188549999613315,2.9988850000081584,3.151509999996051,3.3005899999989197,3.442884999909438,3.5870400000130758,3.7510049999691546,3.9162500000093132,4.082374999998137,4.227169999969192,4.38348999992013,4.531539999996312,4.699749999912456,4.866914999904111,4.999869999941438,5.166984999901615,5.333504999987781,5.499620000016876,5.651164999930188,5.827139999950305,6.003194999997504,6.16616999998223,6.339189999969676,6.515789999975823,6.716275000013411,6.883559999987483,7.066794999991544,7.235594999976456,7.4155799999134615,7.599745000014082,7.782354999915697,7.983659999910742,8.151465000002645,8.333034999901429,8.51597499998752,8.699945000000298,8.851549999904819,9.043629999971017,9.248774999985471,9.432165000005625,9.63231499993708,9.800225000013597,10.017519999993965,10.215529999928549,10.398864999995567,10.564954999950714,10.748840000014752,10.933649999904446,11.099820000003092,11.3002400000114,11.481990000000224,11.683589999913238,11.86557999998331,12.066879999940284,12.249124999972992,12.432939999969676,12.616745000006631,12.816164999967441,13.00014999997802,13.199274999904446,13.433450000011362,13.652454999973997,13.914779999991879,14.149899999960326,14.366104999906383]",space,1.81872,0.0,26.0,26.0,19.0,1.0,,,,,,,,,,,,,,
,,,,,,,,,,,block_1/medium_n_105_3.wav,no,n,medium,105.0,2.417465983,14.09955215,,,Yes,Wolf Sades,0,No,m,31,R,Yes,1,2020-09-07_10h52.13.829,kura-A2,2020.1.2,Win32,60,,,"[""space"",""space"",""space"",""space"",""space"",""space"",""space"",""space"",""space"",""space"",""space"",""space"",""space"",""space"",""space"",""space"",""space"",""space"",""space"",""space"",""space"",""space"",""space"",""space"",""space"",""space"",""space"",""space"",""space"",""space"",""space"",""space"",""space"",""space"",""space"",""space"",""space"",""space"",""space"",""space"",""space"",""space"",""space"",""space"",""space"",""space"",""space"",""space"",""space"",""space"",""space"",""space"",""space"",""space"",""space"",""space"",""space"",""space"",""space"",""space"",""space"",""space"",""space"",""space"",""space"",""space"",""space"",""space"",""space""]","[1.184499999973923,1.3183849999913946,1.5177449999609962,1.717549999943003,1.985164999961853,2.131694999989122,2.2843799999682233,2.4186200000112876,2.5850599999539554,2.7691150000318885,2.9518750000279397,3.069099999964237,3.233714999980293,3.385050000040792,3.501159999985248,3.6452499999431893,3.78469000000041,3.9170650000451133,4.060900000040419,4.351885000010952,4.50027499999851,4.636975000030361,4.783560000010766,4.900514999986626,5.03331500000786,5.309050000039861,5.533219999982975,5.685094999964349,5.821084999945015,6.00117499998305,6.151685000048019,6.285165000008419,6.417075000004843,6.525314999977127,6.785004999954253,6.989354999968782,7.150439999997616,7.334150000009686,7.4518450000323355,7.5501599999843165,7.800494999974035,7.934030000003986,8.083609999972396,8.233565000002272,8.38504500000272,8.493400000035763,8.633135000010952,8.899725000024773,9.134259999962524,9.283530000015162,9.43358499999158,9.599715000018477,9.751644999952987,9.866344999987632,10.166579999960959,10.335635000024922,10.46757500001695,10.617450000019744,10.766345000010915,10.92567499994766,11.06695500004571,11.184924999950454,11.432904999936,11.584950000047684,11.750140000018291,11.917574999970384,12.033060000045225,12.183495000004768,12.334185000043362]",space,0.43315,0.0,27.0,27.0,0.0,1.0,,,,,,,,,,,,,,
,,,,,,,,,,,block_1/medium_n_105_4.wav,no,n,medium,105.0,1.402482856,15.80924023,,,Yes,Wolf Sades,0,No,m,31,R,Yes,1,2020-09-07_10h52.13.829,kura-A2,2020.1.2,Win32,60,,,"[""space"",""space"",""space"",""space"",""space"",""space"",""space"",""space"",""space"",""space"",""space"",""space"",""space"",""space"",""space"",""space"",""space"",""space"",""space"",""space"",""space"",""space"",""space"",""space"",""space"",""space"",""space"",""space"",""space"",""space"",""space"",""space"",""space"",""space"",""space"",""space"",""space"",""space"",""space"",""space"",""space"",""space"",""space"",""space"",""space"",""space"",""space"",""space"",""space"",""space"",""space"",""space"",""space"",""space"",""space"",""space"",""space"",""space"",""space"",""space"",""space"",""space"",""space"",""space"",""space"",""space"",""space"",""space"",""space"",""space"",""space"",""space"",""space"",""space"",""space"",""space""]","[0.5326399999903515,0.7149549999739975,0.8816550000337884,1.0487200000789016,1.2502000000094995,1.4152300000423566,1.5680649999994785,1.7679900000803173,2.148960000020452,2.3329849999863654,2.4822799999965355,2.6486600000644103,2.799585000029765,2.9328450000612065,3.099640000029467,3.2331750000594184,3.3989950000541285,3.5514749999856576,3.733269999967888,3.883155000046827,4.0335399999748915,4.166154999984428,4.464030000031926,4.616275000036694,4.784730000072159,4.927774999989197,5.066944999969564,5.2004350000061095,5.350459999986924,6.000650000059977,6.134515000041574,6.304115000064485,6.450820000027306,6.63413500005845,6.799020000034943,6.983345000073314,7.135899999993853,7.299145000055432,7.467290000058711,7.618220000062138,7.782789999968372,7.982315000030212,8.166339999996126,8.551154999993742,8.684740000055172,8.899100000038743,9.083095000009052,9.26734999998007,9.451549999997951,9.650490000029095,9.849845000077039,9.984520000056364,10.199430000036955,10.365749999997206,10.54894999996759,10.765525000053458,10.999635000014678,11.200365000055172,11.448945000069216,11.666290000081062,11.918375000008382,12.16706999996677,12.515345000079833,12.785000000032596,13.016030000057071,13.233505000011064,13.451545000076294,13.683895000023767,13.86686000006739,14.04886500001885,14.249874999979511,14.415449999971315,14.599425000022165,14.782085000071675,14.960760000045411,15.148905000067316]",space,1.417935,0.0,28.0,28.0,12.0,1.0,,,,,,,,,,,,,,
,,,,,,,,,,,block_1/none_n_72_4.wav,no,n,none,72.0,1.118979514,23.86124709,,,Yes,Wolf Sades,0,No,m,31,R,Yes,1,2020-09-07_10h52.13.829,kura-A2,2020.1.2,Win32,60,,,"[""space"",""space"",""space"",""space"",""space"",""space"",""space"",""space"",""space"",""space"",""space"",""space"",""space"",""space"",""space"",""space"",""space"",""space"",""space"",""space"",""space"",""space"",""space"",""space"",""space"",""space"",""space"",""space"",""space"",""space"",""space"",""space"",""space"",""space"",""space"",""space"",""space"",""space"",""space"",""space"",""space"",""space"",""space"",""space"",""space"",""space"",""space"",""space"",""space"",""space"",""space"",""space"",""space"",""space"",""space"",""space"",""space"",""space"",""space"",""space"",""space"",""space"",""space"",""space"",""space"",""space"",""space"",""space"",""space"",""space"",""space"",""space"",""space"",""space"",""space"",""space"",""space"",""space"",""space"",""space"",""space"",""space"",""space"",""space"",""space"",""space"",""space"",""space"",""space"",""space"",""space"",""space"",""space"",""space"",""space"",""space"",""space"",""space"",""space"",""space"",""space"",""space"",""space"",""space"",""space"",""space""]","[0.8340600000228733,1.0428500000853091,1.2028649999992922,1.3680600000079721,1.549180000089109,1.7003750000149012,1.8664100000169128,2.0337550000986084,2.2186250000959262,2.3996550000738353,2.583335000090301,2.750400000018999,2.91573500004597,3.0837000000756234,3.2670250000664964,3.4329600000055507,3.6161150000989437,3.800500000012107,3.9670000000623986,4.133160000084899,4.333950000000186,4.533645000075921,4.715710000018589,4.933799999998882,5.132880000048317,5.333885000087321,5.523465000092983,5.71640999999363,5.933770000003278,6.133765000035055,6.332985000102781,6.53359000000637,6.749940000008792,6.932340000057593,7.165770000079647,7.384820000035688,7.619815000100061,7.816635000053793,8.033730000024661,8.216985000064597,8.432920000050217,8.62781500001438,8.83284500008449,9.032990000094287,9.232190000009723,9.399540000013076,9.581860000034794,9.749705000082031,9.966470000101253,10.133910000091419,10.33362000004854,10.500405000057071,10.683225000044331,10.866140000056475,11.066910000052303,11.236110000056215,11.433600000105798,11.668165000039153,11.867795000085607,12.132435000035912,12.332565000047907,12.533955000108108,12.700420000008307,12.933950000093319,13.40067000000272,13.633940000087023,13.81772000005003,14.01754000002984,14.182239999994636,14.367550000082701,14.567240000003949,14.767270000069402,14.94913500000257,15.150560000096448,15.40127500006929,15.620519999996759,15.881820000009611,16.16518500004895,16.433055000030436,16.681680000037886,16.91683500004001,17.215570000000298,17.482760000042617,17.73415000003297,18.000835000071675,18.23208000010345,18.48360500007402,18.732264999998733,18.983720000018366,19.215205000014976,19.466290000011213,19.733594999997877,19.999320000060834,20.283395000034943,20.566645000013523,20.765470000100322,20.998820000095293,21.249195000040345,21.48300000000745,21.733345000073314,21.96666500007268,22.200040000025183,22.46550000004936,22.76712500001304,22.998680000077,23.298890000092797]",space,0.917055,0.0,29.0,29.0,21.0,1.0,,,,,,,,,,,,,,
,,,,,,,,,,,block_1/strong_n_81_3.wav,no,n,strong,81.0,1.6043637,15.60930701,,,Yes,Wolf Sades,0,No,m,31,R,Yes,1,2020-09-07_10h52.13.829,kura-A2,2020.1.2,Win32,60,,,"[""space"",""space"",""space"",""space"",""space"",""space"",""space"",""space"",""space"",""space"",""space"",""space"",""space"",""space"",""space"",""space"",""space"",""space"",""space"",""space""]","[0.666410000063479,1.5148850000696257,2.281749999965541,2.9828749999869615,3.6994849999900907,4.431500000064261,5.114434999995865,5.798985000001267,6.4648850000230595,7.16428500006441,7.815870000049472,8.814929999993183,9.448265000013635,10.165580000029877,10.816040000063367,11.482264999998733,12.08183000003919,12.774785000015981,13.515589999966323,14.215964999981225]",space,1.601355,0.0,30.0,30.0,10.0,1.0,,,,,,,,,,,,,,
,,,,,,,,,,,block_1/weak_n_92_3.wav,no,n,weak,92.0,1.887522896,14.6307882,,,Yes,Wolf Sades,0,No,m,31,R,Yes,1,2020-09-07_10h52.13.829,kura-A2,2020.1.2,Win32,60,,,"[""space"",""space"",""space"",""space"",""space"",""space"",""space"",""space"",""space"",""space"",""space"",""space"",""space"",""space"",""space"",""space"",""space"",""space"",""space"",""space"",""space"",""space"",""space"",""space"",""space"",""space"",""space"",""space"",""space"",""space"",""space"",""space"",""space"",""space"",""space"",""space"",""space"",""space"",""space"",""space"",""space"",""space"",""space"",""space"",""space"",""space"",""space"",""space"",""space"",""space"",""space"",""space"",""space"",""space"",""space"",""space"",""space"",""space"",""space"",""space"",""space"",""space"",""space"",""space"",""space"",""space"",""space"",""space"",""space"",""space"",""space"",""space"",""space"",""space"",""space"",""space"",""space"",""space""]","[0.35028500005137175,0.5663199999835342,0.7495450000278652,0.949544999981299,1.1178050000453368,1.366840000031516,1.5162900000577793,1.699640000006184,1.8854000000283122,2.3003099999623373,2.4510699999518692,2.6669049999909475,2.8019299999577925,2.9328900000546128,3.083570000017062,3.2329300000565127,3.384790000040084,3.5181899999734014,3.650954999960959,3.801454999949783,3.934514999971725,4.066284999949858,4.251739999977872,4.435154999955557,4.685124999959953,4.851000000024214,4.973014999995939,5.11823500005994,5.2664400000358,5.434005000046454,5.551085000042804,5.666349999955855,5.799695000052452,5.98410000000149,6.151255000033416,6.2691999999806285,6.400630000047386,6.633060000021942,6.800079999957234,6.93460999999661,7.084359999978915,7.2516949999844655,7.373335000011139,7.517800000030547,7.650845000054687,7.850805000052787,8.017475000000559,8.157585000037216,8.300894999993034,8.434654999990016,8.566869999980554,8.699370000045747,8.833484999951907,9.017630000016652,9.18273500003852,9.317460000049323,9.484375,9.649439999950118,9.799355000024661,9.951379999984056,10.077535000047646,10.284104999969713,10.432675000047311,10.600749999983236,10.750759999966249,11.032729999977164,11.166895000031218,11.317640000022948,11.568094999995083,11.732970000011846,11.884874999988824,12.000230000005104,12.266739999991842,12.434284999966621,12.565700000035577,12.732685000053607,12.917374999960884,13.084120000014082]",space,0.483365,0.0,31.0,31.0,5.0,1.0,,,,,,,,,,,,,,
,,,,,,,,,,,block_1/strong_n_105_3.wav,no,n,strong,105.0,1.156897655,12.38746455,,,Yes,Wolf Sades,0,No,m,31,R,Yes,1,2020-09-07_10h52.13.829,kura-A2,2020.1.2,Win32,60,,,"[""space"",""space"",""space"",""space"",""space"",""space"",""space"",""space"",""space"",""space"",""space"",""space"",""space"",""space"",""space"",""space"",""space"",""space"",""space"",""space"",""space"",""space"",""space"",""space"",""space"",""space"",""space""]","[0.5167000000365078,0.9833599999547005,1.6330549999838695,2.2675299999536946,2.8672899999655783,3.51707499998156,4.068459999980405,4.218514999956824,4.585519999964163,5.033580000046641,5.172480000066571,5.7836349999997765,6.18343500001356,6.3668349999934435,6.849760000011884,7.3848650000290945,7.535065000061877,8.001545000006445,8.484784999978729,8.634900000062771,9.13375499995891,9.734859999967739,9.883570000063628,10.301644999999553,10.884885000064969,11.016889999969862,11.500230000005104]",space,0.5332,0.0,32.0,32.0,9.0,1.0,,,,,,,,,,,,,,
,,,,,,,,,,,block_1/medium_n_81_3.wav,no,n,medium,81.0,1.199970007,16.72060493,,,Yes,Wolf Sades,0,No,m,31,R,Yes,1,2020-09-07_10h52.13.829,kura-A2,2020.1.2,Win32,60,,,"[""space"",""space"",""space"",""space"",""space"",""space"",""space"",""space"",""space"",""space"",""space"",""space"",""space"",""space"",""space"",""space"",""space"",""space"",""space"",""space"",""space"",""space"",""space"",""space"",""space"",""space"",""space"",""space"",""space"",""space"",""space"",""space"",""space"",""space"",""space"",""space"",""space"",""space"",""space"",""space"",""space"",""space"",""space"",""space"",""space"",""space"",""space"",""space"",""space"",""space"",""space"",""space"",""space"",""space"",""space"",""space"",""space"",""space"",""space"",""space"",""space"",""space"",""space"",""space"",""space"",""space"",""space"",""space"",""space"",""space""]","[1.0159899999853224,1.1504900000290945,1.282565000001341,1.682065000059083,1.817589999991469,1.9649200000567362,2.116770000080578,2.254475000081584,2.5996499999891967,2.7834949999814853,3.082035000086762,3.1996999999973923,3.347204999998212,3.5153400000417605,3.816815000027418,3.9668100000126287,4.182695000083186,4.364810000057332,4.5154249999905005,4.6707050000550225,5.032179999980144,5.182035000063479,5.33327000006102,5.715324999997392,5.8653800000902265,6.016754999989644,6.166090000071563,6.615440000081435,6.764820000040345,6.931440000073053,7.098315000068396,7.248684999998659,7.598500000080094,7.743149999994785,7.903225000016391,8.049910000059754,8.216190000064671,8.650070000090636,8.81539000000339,8.927150000003166,9.359315000008792,9.533129999996163,9.683430000091903,10.031930000055581,10.183335000067018,10.350109999999404,10.533595000044443,10.9171750000678,11.0662800000282,11.217920000082813,11.615450000041164,11.732115000020713,11.915284999995492,12.349965000059456,12.4657850000076,12.832649999996647,12.983379999990575,13.348675000015646,13.533464999985881,13.7166000000434,14.066285000066273,14.233530000085011,14.416855000075884,14.782070000073873,14.948715000064112,15.183135000057518,15.398649999988265,15.580569999990985,15.765860000043176,16.016820000018924]",space,1.25193,0.0,33.0,33.0,33.0,1.0,,,,,,,,,,,,,,
,,,,,,,,,,,block_1/none_n_81_4.wav,no,n,none,81.0,2.242955119,22.19488256,,,Yes,Wolf Sades,0,No,m,31,R,Yes,1,2020-09-07_10h52.13.829,kura-A2,2020.1.2,Win32,60,,,"[""space"",""space"",""space"",""space"",""space"",""space"",""space"",""space"",""space"",""space"",""space"",""space"",""space"",""space"",""space"",""space"",""space"",""space"",""space"",""space"",""space"",""space"",""space"",""space"",""space"",""space"",""space"",""space"",""space"",""space"",""space"",""space"",""space"",""space"",""space"",""space"",""space"",""space"",""space"",""space"",""space"",""space"",""space"",""space"",""space"",""space"",""space"",""space"",""space"",""space"",""space"",""space"",""space"",""space"",""space"",""space"",""space"",""space"",""space"",""space"",""space"",""space"",""space"",""space"",""space"",""space"",""space"",""space"",""space"",""space"",""space"",""space"",""space"",""space"",""space"",""space"",""space"",""space"",""space"",""space"",""space"",""space"",""space"",""space"",""space"",""space"",""space"",""space"",""space"",""space"",""space"",""space"",""space"",""space"",""space"",""space"",""space"",""space"",""space"",""space""]","[0.7515600000042468,0.9165499999653548,1.0513349999673665,1.2004599999636412,1.3660349999554455,1.4833099999232218,1.6498099999735132,1.8165249999146909,1.9832600000081584,2.1845200000097975,2.366470000008121,2.5832099999533966,2.766635000007227,2.9664649999467656,3.184629999916069,3.350444999989122,3.5177899999544024,3.7375899999169633,3.9492349999491125,4.13339500001166,4.333134999964386,4.532565000001341,4.74981999990996,4.95113499998115,5.449915000004694,5.657839999999851,6.050814999965951,6.251944999909028,6.483819999964908,6.683235000004061,6.8830549999838695,7.066579999984242,7.283214999944903,7.483059999998659,7.7004500000039116,8.218564999988303,8.39977000001818,8.599264999968,8.78324999997858,8.985149999964051,9.242194999940693,9.451004999922588,9.66610499995295,9.883199999923818,10.09981499996502,10.301544999936596,10.533149999915622,10.75110999995377,10.98308499995619,11.199279999942519,11.416909999912605,11.617944999947213,11.816129999933764,12.033025000011548,12.268289999919944,12.474674999946728,12.683194999932311,12.916339999996126,13.117709999904037,13.334019999951124,13.501779999933206,13.701819999958389,13.867069999920204,14.010780000011437,14.198129999917,14.365794999990612,14.51769999996759,14.684765000012703,14.8512149999151,15.01644999999553,15.150534999906085,15.332654999918304,15.499244999955408,15.684559999965131,15.851484999991953,16.03289999999106,16.2515349999303,16.45106999995187,16.650105000007898,16.849659999948926,17.049069999950007,17.1993449999718,17.400384999928065,17.7072249999037,17.869034999981523,18.097669999930076,18.300849999999627,18.50164999999106,18.701699999975972,18.883094999939203,19.04892500001006,19.201124999905005,19.368335000006482,19.517089999979362,19.68482999992557,19.79985999991186,19.932425000006333,20.08377499994822,20.20010999997612,20.349779999931343]",space,1.566485,0.0,34.0,34.0,26.0,1.0,,,,,,,,,,,,,,
,,,,,,,,,,,block_1/weak_n_92_4.wav,no,n,weak,92.0,2.208253857,14.29442166,,,Yes,Wolf Sades,0,No,m,31,R,Yes,1,2020-09-07_10h52.13.829,kura-A2,2020.1.2,Win32,60,,,"[""space"",""space"",""space"",""space"",""space"",""space"",""space"",""space"",""space"",""space"",""space"",""space"",""space"",""space"",""space"",""space"",""space"",""space"",""space"",""space"",""space"",""space"",""space"",""space"",""space"",""space"",""space"",""space"",""space"",""space"",""space"",""space"",""space"",""space"",""space"",""space"",""space"",""space"",""space"",""space"",""space"",""space"",""space"",""space"",""space"",""space"",""space"",""space"",""space"",""space"",""space"",""space""]","[0.30189500004053116,0.6521499999798834,0.8002300000516698,1.219385000062175,1.333225000067614,1.7684950000839308,1.9181749999988824,2.350315000046976,2.485925000044517,2.8016200000420213,2.983394999988377,3.252835000050254,3.449815000058152,3.750095000024885,3.9169049999909475,4.06730500003323,4.234055000008084,4.566965000005439,4.718455000082031,5.050155000062659,5.200580000062473,5.567024999996647,5.7007750000339,5.885550000006333,6.066685000085272,6.250609999988228,6.590154999983497,6.751675000065006,6.934830000041984,7.368025000090711,7.517575000063516,7.700535000069067,7.9171750000678,8.300125000067055,8.450595000060275,8.650105000007898,8.832865000003949,9.262435000040568,9.384629999985918,9.56722000008449,9.935264999978244,10.101925000082701,10.466774999978952,10.6349100000225,11.034960000077263,11.184030000003986,11.384300000034273,11.701415000017732,11.85000500001479,12.051020000013523,12.28351500001736,12.447705000056885]",space,849.22225,0.0,35.0,35.0,15.0,1.0,,,,,,,,,,,,,,
,,,,,,,,,,,block_1/weak_n_72_3.wav,no,n,weak,72.0,1.008682366,16.87657352,,,Yes,Wolf Sades,0,No,m,31,R,Yes,1,2020-09-07_10h52.13.829,kura-A2,2020.1.2,Win32,60,,,"[""space"",""space"",""space"",""space"",""space"",""space"",""space"",""space"",""space"",""space"",""space"",""space"",""space"",""space"",""space"",""space"",""space"",""space"",""space"",""space"",""space"",""space"",""space"",""space"",""space"",""space"",""space"",""space"",""space"",""space"",""space"",""space"",""space"",""space"",""space"",""space"",""space"",""space"",""space"",""space"",""space"",""space"",""space"",""space"",""space"",""space"",""space"",""space"",""space"",""space"",""space"",""space"",""space"",""space"",""space"",""space"",""space"",""space"",""space"",""space"",""space"",""space"",""space"",""space"",""space"",""space"",""space"",""space"",""space"",""space"",""space"",""space"",""space"",""space"",""space"",""space"",""space"",""space"",""space"",""space"",""space"",""space"",""space"",""space"",""space"",""space"",""space"",""space"",""space"",""space"",""space"",""space"",""space"",""space"",""space"",""space"",""space"",""space"",""space"",""space""]","[0.5329449999844655,0.749089999939315,0.8823899999260902,1.0322249999735504,1.1829750000033528,1.3491650000214577,1.5334700000239536,1.701424999977462,1.8649849999928847,2.0158400000073016,2.350929999956861,2.5004649999318644,2.6162400000030175,2.766925000003539,2.901164999930188,3.2001450000097975,3.3334399999585003,3.450315000023693,3.5990449999226257,3.7014150000177324,3.850674999994226,4.001154999947175,4.134499999927357,4.250419999938458,4.383189999964088,4.517110000015236,4.634454999933951,4.783174999989569,4.882755000027828,4.999829999986105,5.15090499992948,5.3171999999322,5.466335000004619,5.650509999948554,5.717709999997169,5.900429999921471,6.033064999966882,6.150475000031292,6.281029999954626,6.417224999982864,6.55120500002522,6.684084999957122,6.817045000032522,6.966520000016317,7.100084999925457,7.250604999950156,7.383795000030659,7.5496349999448285,7.7192400000058115,7.834309999947436,7.98390999995172,8.131359999999404,8.28297499998007,8.432949999929406,8.56758000003174,8.716829999932088,8.867699999944307,9.017570000025444,9.166420000023209,9.283169999951497,9.41624499997124,9.567629999946803,9.734964999952354,9.800975000020117,9.966254999977536,10.134390000021085,10.28457499993965,10.43536000000313,10.783769999979995,10.917245000018738,11.03359000000637,11.182859999942593,11.315764999948442,11.573899999959394,11.865645000012591,12.116354999947362,12.316445000004023,12.482609999948181,12.615969999926165,12.749479999998584,12.89964499999769,13.033214999944903,13.368239999981597,13.574189999955706,13.734134999918751,13.949804999982007,14.182795000029728,14.351819999981672,14.517310000024736,14.650384999928065,14.818154999986291,14.999729999923147,15.184624999994412,15.332949999952689,15.532944999984466,15.702464999980293,15.834774999995716,15.98308499995619,16.15199499996379,16.33348999998998]",space,135.47977,0.0,36.0,36.0,8.0,1.0,,,,,,,,,,,,,,
,,,,,,,,,,,block_1/strong_n_119_4.wav,no,n,strong,119.0,1.980480326,12.048825,,,Yes,Wolf Sades,0,No,m,31,R,Yes,1,2020-09-07_10h52.13.829,kura-A2,2020.1.2,Win32,60,,,"[""space"",""space"",""space"",""space"",""space"",""space"",""space"",""space"",""space"",""space"",""space"",""space"",""space"",""space"",""space"",""space"",""space"",""space"",""space"",""space""]","[0.5839649999979883,1.0008099999977276,1.5835649999789894,2.0846199999796227,2.6850349999731407,3.1521499999798834,3.6842600000090897,4.250295000034384,4.68371000001207,5.234995000064373,5.719520000042394,6.234660000074655,6.768544999998994,7.233454999979585,7.735214999993332,8.220369999995455,8.783374999999069,9.250145000056364,9.786425000056624,10.250684999977238]",space,0.38204,0.0,37.0,37.0,23.0,1.0,,,,,,,,,,,,,,
,,,,,,,,,,,block_1/none_n_81_3.wav,no,n,none,81.0,1.098648096,17.74277508,,,Yes,Wolf Sades,0,No,m,31,R,Yes,1,2020-09-07_10h52.13.829,kura-A2,2020.1.2,Win32,60,,,"[""space"",""space"",""space"",""space"",""space"",""space"",""space"",""space"",""space"",""space"",""space"",""space"",""space"",""space"",""space"",""space"",""space"",""space"",""space"",""space"",""space"",""space"",""space"",""space"",""space"",""space"",""space"",""space"",""space"",""space"",""space"",""space"",""space"",""space"",""space"",""space"",""space"",""space"",""space"",""space"",""space"",""space"",""space"",""space"",""space"",""space"",""space"",""space"",""space"",""space"",""space"",""space"",""space"",""space"",""space"",""space"",""space"",""space"",""space"",""space"",""space"",""space"",""space"",""space"",""space"",""space"",""space"",""space"",""space"",""space"",""space"",""space"",""space"",""space"",""space"",""space"",""space"",""space"",""space"",""space"",""space"",""space"",""space"",""space"",""space"",""space"",""space"",""space"",""space"",""space"",""space"",""space"",""space"",""space"",""space"",""space"",""space"",""space"",""space"",""space"",""space"",""space"",""space"",""space"",""space"",""space"",""space""]","[0.3501900000264868,0.5843599999789149,0.734180000028573,0.8683500000042841,1.0328049999661744,1.1671799999894574,1.3166000000201166,1.4698599999537691,1.61605499999132,1.7656649999553338,1.917009999975562,2.0509999999776483,2.2155849999981,2.3661299999803305,2.500289999996312,2.649970000027679,2.8021799999987707,2.9668349999701604,3.132645000005141,3.28414000000339,3.4335100000025705,3.6172200000146404,3.76679999998305,3.917905000038445,4.084150000009686,4.23789999994915,4.399955000029877,4.5666699999710545,4.749885000055656,4.916504999971949,5.084125000052154,5.23402500001248,5.416235000011511,5.566314999945462,5.75,5.917299999971874,6.066055000061169,6.250675000017509,6.399270000052638,6.5674850000068545,6.7518749999580905,6.900705000036396,7.054505000007339,7.218035000027157,7.3840499999932945,7.550829999963753,7.718044999986887,7.88257999997586,8.050604999996722,8.217279999982566,8.384184999973513,8.532110000029206,8.700175000005402,8.866700000013225,9.050694999983534,9.183964999974705,9.367360000032932,9.533814999973401,9.71606000000611,9.884614999988116,10.017400000011548,10.19948499999009,10.366829999955371,10.532654999988154,10.717240000027232,10.866015000035986,11.016045000054874,11.18426000000909,11.31594000000041,11.46614499995485,11.617270000046119,11.749479999998584,11.898814999964088,12.033150000032037,12.200805000029504,12.349174999981187,12.48402500001248,12.649214999983087,12.767484999960288,12.917595000006258,13.05081499996595,13.184499999973923,13.318025000044145,13.465334999957122,13.617300000041723,13.759364999947138,13.934155000024475,14.066815000027418,14.217410000041127,14.367360000032932,14.533345000003465,14.684254999971017,14.834015000029467,14.983884999994189,15.14976000005845,15.299894999945536,15.482130000018515,15.633254999993369,15.80128999997396,15.965579999960028,16.099324999959208,16.265789999975823,16.416429999982938,16.584099999978207,16.750005000038072,16.899340000003576,17.084060000022873]",space,49.33121,0.0,38.0,38.0,29.0,1.0,,,,,,,,,,,,,,
,,,,,,,,,,,block_1/strong_n_105_4.wav,no,n,strong,105.0,1.30585928,13.14087062,,,Yes,Wolf Sades,0,No,m,31,R,Yes,1,2020-09-07_10h52.13.829,kura-A2,2020.1.2,Win32,60,,,"[""space"",""space"",""space"",""space"",""space"",""space"",""space"",""space"",""space"",""space"",""space"",""space"",""space"",""space"",""space"",""space"",""space"",""space"",""space"",""space"",""space"",""space""]","[0.4003800000064075,0.7171199999283999,1.4504500000039116,2.000289999996312,2.6337649999186397,3.2002599999541417,3.8186199999181554,4.426689999992959,5.0670449999161065,5.6169450000161305,6.200194999924861,6.783519999939017,6.967179999919608,7.566980000003241,8.18351000000257,8.683474999968894,9.150219999952242,9.733724999940023,10.350194999948144,11.0033650000114,11.516850000014529,12.250245000002906]",space,0.384,0.0,39.0,39.0,3.0,1.0,,,,,,,,,,,,,,
,,,,,,,,,,,block_2/weak_t_72_4.wav,timbre,t,weak,72.0,1.41938316,17.89516547,,,Yes,Wolf Sades,0,No,m,31,R,Yes,1,2020-09-07_10h52.13.829,kura-A2,2020.1.2,Win32,60,,,,,,,,,,,,space,3.500055,"[""space"",""space"",""space"",""space"",""space"",""space"",""space"",""space"",""space"",""space"",""space"",""space"",""space"",""space"",""space"",""space"",""space"",""space"",""space"",""space"",""space"",""space"",""space"",""space"",""space"",""space"",""space"",""space"",""space"",""space"",""space"",""space"",""space"",""space"",""space"",""space"",""space"",""space"",""space"",""space"",""space"",""space"",""space"",""space"",""space"",""space"",""space"",""space"",""space"",""space"",""space"",""space"",""space"",""space"",""space"",""space"",""space"",""space"",""space"",""space"",""space"",""space"",""space"",""space"",""space"",""space"",""space"",""space"",""space"",""space"",""space"",""space"",""space"",""space"",""space"",""space"",""space"",""space"",""space"",""space"",""space"",""space"",""space"",""space"",""space"",""space"",""space"",""space"",""space"",""space"",""space"",""space"",""space"",""space"",""space"",""space"",""space"",""space"",""space"",""space"",""space"",""space"",""space"",""space"",""space"",""space""]","[0.35016999999061227,0.5501699999440461,0.7002400000346825,0.8502249999437481,0.9851000000489876,1.1504649999551475,1.3170150000369176,1.4335549999959767,1.5668150000274181,1.716924999956973,1.8668649999890476,2.0169300000416115,2.183680000016466,2.3334999999497086,2.4668100000126287,2.616844999953173,2.7835099999792874,2.9335900000296533,3.083534999983385,3.2502000000094995,3.4168500000378117,3.5668600000208244,3.716825000010431,3.883629999938421,4.050210000015795,4.2005199999548495,4.350139999995008,4.516900000046007,4.66706999996677,4.80011499999091,4.968389999936335,5.100319999968633,5.250185000011697,5.416850000037812,5.533610000042245,5.683504999964498,5.833495000028051,5.966705000028014,6.116849999991246,6.2334699999773875,6.383520000032149,6.5333999999566,6.6834149999776855,6.833559999940917,7.000140000018291,7.15011000004597,7.3170000000391155,7.467019999981858,7.650105000007898,7.81675500003621,7.966830000048503,8.150174999958836,8.30011499999091,8.466939999954775,8.633445000043139,8.800329999998212,8.966864999965765,9.10008999996353,9.266885000048205,9.450145000009798,9.601799999945797,9.737515000044368,9.881620000000112,10.050109999952838,10.216870000003837,10.36687999998685,10.53352499997709,10.666830000001937,10.833379999967292,11.016775000025518,11.183429999975488,11.350179999950342,11.529774999944493,11.716855000006035,11.883305000024848,12.049985000048764,12.216819999972358,12.383339999942109,12.550025000004098,12.683489999966696,12.850050000008196,13.016829999978654,13.1835199999623,13.350220000022091,13.500020000035875,13.683390000020154,13.85159500001464,14.033479999983683,14.216720000025816,14.366834999993443,14.533290000050329,14.70002500002738,14.868649999960326,15.03338999999687,15.2001600000076,15.366874999948777,15.498105000006035,15.666740000015125,15.8500800000038,15.999910000013188,16.166624999954365,16.316675000009127,16.466754999943078,16.616760000004433,16.766670000040904,16.99997500004247]",space,0.2838,0.0,0.0,0.0,33.0,1.0,,,
,,,,,,,,,,,block_2/weak_t_105_4.wav,timbre,t,weak,105.0,1.205192231,12.73516956,,,Yes,Wolf Sades,0,No,m,31,R,Yes,1,2020-09-07_10h52.13.829,kura-A2,2020.1.2,Win32,60,,,,,,,,,,,,,,"[""space"",""space"",""space"",""space"",""space"",""space"",""space"",""space"",""space"",""space"",""space"",""space"",""space"",""space"",""space"",""space"",""space"",""space"",""space"",""space"",""space"",""space"",""space"",""space"",""space"",""space"",""space"",""space"",""space"",""space"",""space"",""space"",""space"",""space"",""space"",""space"",""space"",""space"",""space"",""space"",""space"",""space"",""space"",""space"",""space"",""space"",""space"",""space"",""space"",""space"",""space"",""space"",""space"",""space"",""space"",""space"",""space"",""space"",""space"",""space"",""space"",""space"",""space"",""space"",""space"",""space"",""space"",""space"",""space"",""space"",""space""]","[0.36679000000003725,0.5834449999965727,0.7501550000160933,0.9168500000378117,1.066969999927096,1.216840000008233,1.4001200000056997,1.5667050000047311,1.7002799999900162,1.8501150000374764,2.0168399999383837,2.1834549999330193,2.3502149999840185,2.4834300000220537,2.7002599999541417,2.85015499999281,3.0001049999846146,3.200154999969527,3.3667399999685585,3.5334799999836832,3.6834149999776855,3.866749999928288,4.050084999995306,4.2001450000097975,4.366894999984652,4.535269999993034,4.700079999980517,4.86687000002712,5.016839999938384,5.183504999964498,5.333604999934323,5.50034999998752,5.68344499997329,5.850119999959134,6.0167949999449775,6.1667799999704584,6.366804999997839,6.500204999931157,6.666800000006333,6.800129999988712,6.98348499997519,7.133410000009462,7.333389999927022,7.500155000016093,7.633559999987483,7.883484999998473,8.03344000002835,8.166830000001937,8.350139999995008,8.518234999966808,8.700205000001006,8.833370000007562,8.947829999960959,9.13500499993097,9.300180000020191,9.444069999968633,9.633535000029951,9.764244999969378,9.933424999937415,10.100074999965727,10.249985000002198,10.433459999971092,10.56671499996446,10.75015999993775,10.916764999972656,11.083349999971688,11.267005000030622,11.416699999943376,11.583370000007562,11.783354999963194,11.95030999998562]",space,0.283755,0.0,1.0,1.0,7.0,1.0,,,
,,,,,,,,,,,block_2/medium_t_92_3.wav,timbre,t,medium,92.0,1.388240232,13.37372776,,,Yes,Wolf Sades,0,No,m,31,R,Yes,1,2020-09-07_10h52.13.829,kura-A2,2020.1.2,Win32,60,,,,,,,,,,,,,,"[""space"",""space"",""space"",""space"",""space"",""space"",""space"",""space"",""space"",""space"",""space"",""space"",""space"",""space"",""space"",""space"",""space"",""space"",""space"",""space"",""space"",""space"",""space"",""space"",""space"",""space"",""space"",""space"",""space"",""space"",""space"",""space"",""space"",""space"",""space"",""space"",""space"",""space"",""space"",""space"",""space"",""space"",""space"",""space"",""space"",""space"",""space"",""space"",""space"",""space"",""space"",""space"",""space"",""space"",""space"",""space"",""space"",""space"",""space"",""space""]","[0.35020499990787357,0.566980000003241,0.7168599999276921,1.1006599999964237,1.23347500001546,1.4928549999604002,1.6502699999837205,1.9335449999198318,2.084984999964945,2.433619999908842,2.581069999956526,2.8687449999852106,3.0669200000120327,3.250389999942854,3.433504999964498,3.750309999915771,3.9335100000025705,4.100469999946654,4.300165000022389,4.483629999915138,4.6670849999645725,4.866960000013933,5.216819999972358,5.351744999992661,5.616960000013933,5.783584999968298,5.933644999982789,6.216840000008233,6.3669199999421835,6.500249999924563,6.783439999911934,6.9335949999513105,7.033519999939017,7.366934999939986,7.516764999949373,7.950154999969527,8.083604999934323,8.200109999976121,8.518429999938235,8.633494999958202,8.766814999980852,8.900019999942742,9.200109999976121,9.350074999965727,9.466894999961369,9.800109999952838,9.950104999938048,10.118589999969117,10.46683499997016,10.600134999956936,10.766910000005737,10.983404999948107,11.150075000012293,11.3334399999585,11.583499999949709,11.750185000011697,11.90012999996543,12.066709999926388,12.285054999985732,12.450039999908768]",space,0.600655,0.0,2.0,2.0,35.0,1.0,,,
,,,,,,,,,,,block_2/none_t_119_4.wav,timbre,t,none,119.0,2.16972576,11.23222009,,,Yes,Wolf Sades,0,No,m,31,R,Yes,1,2020-09-07_10h52.13.829,kura-A2,2020.1.2,Win32,60,,,,,,,,,,,,,,"[""space"",""space"",""space"",""space"",""space"",""space"",""space"",""space"",""space"",""space"",""space"",""space"",""space"",""space"",""space"",""space"",""space"",""space"",""space"",""space"",""space"",""space"",""space"",""space"",""space"",""space"",""space"",""space"",""space"",""space"",""space"",""space"",""space"",""space"",""space"",""space"",""space"",""space"",""space"",""space"",""space"",""space"",""space"",""space"",""space"",""space"",""space"",""space"",""space"",""space"",""space"",""space"",""space"",""space"",""space"",""space"",""space""]","[0.28366500011179596,0.6003750000381842,0.7169550000689924,0.8670150000834838,1.0168700000504032,1.183725000009872,1.3441700000548735,1.5169450000394136,1.650315000093542,1.8019000000786036,1.950385000091046,2.1002400000579655,2.2504600000102073,2.4002650000620633,2.583585000014864,2.716995000024326,2.8336350000463426,3.000360000063665,3.1336450000526384,3.279920000000857,3.7169700000667945,3.8503250000067055,3.983625000109896,4.100245000096038,4.450260000070557,4.58355500001926,4.750285000074655,4.883545000106096,5.017170000006445,5.183585000107996,5.585085000027902,5.733515000087209,5.887979999999516,6.036019999999553,6.200190000003204,6.352085000020452,6.483560000080615,6.6517050000838935,6.800330000114627,6.976195000112057,7.116825000033714,7.283535000053234,7.43362500006333,7.600300000049174,7.766870000050403,7.935175000107847,8.083560000057332,8.25011500006076,8.433570000110194,8.58346000011079,8.751690000062808,8.912460000021383,9.100140000111423,9.283634999999776,9.4670150000602,10.133560000103898,10.866775000002235]",space,0.283945,0.0,3.0,3.0,27.0,1.0,,,
,,,,,,,,,,,block_2/weak_t_81_4.wav,timbre,t,weak,81.0,1.138387897,14.33417021,,,Yes,Wolf Sades,0,No,m,31,R,Yes,1,2020-09-07_10h52.13.829,kura-A2,2020.1.2,Win32,60,,,,,,,,,,,,,,"[""space"",""space"",""space"",""space"",""space"",""space"",""space"",""space"",""space"",""space"",""space"",""space"",""space"",""space"",""space"",""space"",""space"",""space"",""space"",""space"",""space"",""space"",""space"",""space"",""space"",""space"",""space"",""space"",""space"",""space"",""space"",""space"",""space"",""space"",""space"",""space"",""space"",""space"",""space"",""space"",""space"",""space"",""space"",""space"",""space"",""space"",""space"",""space"",""space"",""space"",""space"",""space"",""space"",""space"",""space"",""space""]","[0.6002800000132993,0.7504300000146031,0.9503850000910461,1.2170200000982732,1.3836850000079721,1.7003750000149012,1.8502700000535697,2.1668899999931455,2.3336350000463426,2.6335750001017004,2.800344999996014,3.00027499999851,3.3335900000529364,3.4836900000227615,3.683680000016466,3.8670150000834838,4.166930000064895,4.33354500005953,4.533555000089109,4.73382500000298,4.950430000084452,5.150250000064261,5.5336349999997765,5.716850000084378,5.966929999995045,6.183560000034049,6.466815000050701,6.635430000023916,6.817045000032522,7.134105000062846,7.283630000078119,7.4335250000003725,7.800180000020191,7.933539999998175,8.100230000098236,8.679750000010245,8.866885000024922,9.000220000045374,9.535470000002533,9.683485000045039,10.066800000029616,10.216980000026524,10.416855000075884,10.716745000099763,10.950240000034682,11.10014500003308,11.300344999996014,11.700249999994412,11.851690000039525,12.316850000061095,12.500070000067353,12.683725000009872,12.917240000097081,13.100124999997206,13.268435000092722,13.450245000072755]",space,0.45052,0.0,4.0,4.0,0.0,1.0,,,
,,,,,,,,,,,block_2/none_t_119_3.wav,timbre,t,none,119.0,1.207484261,12.32644118,,,Yes,Wolf Sades,0,No,m,31,R,Yes,1,2020-09-07_10h52.13.829,kura-A2,2020.1.2,Win32,60,,,,,,,,,,,,,,"[""space"",""space"",""space"",""space"",""space"",""space"",""space"",""space"",""space"",""space"",""space"",""space"",""space"",""space"",""space"",""space"",""space"",""space"",""space"",""space"",""space"",""space"",""space"",""space"",""space"",""space"",""space"",""space"",""space"",""space"",""space"",""space"",""space"",""space"",""space"",""space"",""space"",""space"",""space"",""space"",""space"",""space"",""space"",""space"",""space"",""space"",""space"",""space"",""space"",""space"",""space"",""space"",""space"",""space"",""space"",""space"",""space"",""space"",""space"",""space"",""space"",""space"",""space"",""space"",""space"",""space"",""space"",""space"",""space"",""space"",""space"",""space"",""space""]","[0.3670100000454113,0.6668749999953434,0.8003350000362843,0.9669099999591708,1.116745000006631,1.4334650000091642,1.5834950000280514,1.75179999996908,1.88375499995891,2.024684999953024,2.1690200000302866,2.5502100000157952,2.6835100000025705,2.8334800000302494,2.9835100000491366,3.1001450000330806,3.2503649999853224,3.4001700000371784,3.4835149999707937,3.6086649999488145,3.750499999965541,3.8501999999862164,3.9669599999906495,4.100759999942966,4.366855000029318,4.516915000043809,4.617285000043921,4.7334699999773875,4.866674999939278,5.000164999975823,5.1334700000006706,5.268475000048056,5.4168200000422075,5.516850000014529,5.650114999967627,5.769100000034086,5.896910000010394,6.025069999974221,6.183485000045039,6.316815000027418,6.466830000048503,6.600209999945946,6.850194999948144,7.0001049999846146,7.116765000042506,7.268610000028275,7.416785000008531,7.529119999962859,7.683605000027455,7.816809999989346,7.933465000009164,8.083360000047833,8.216780000017025,8.350184999988414,8.500044999993406,8.666899999952875,8.800249999971129,8.950205000001006,9.083415000000969,9.241449999972247,9.400105000007898,9.550279999966733,9.700089999940246,9.850074999965727,10.009740000008605,10.183429999975488,10.333405000041239,10.500035000033677,10.652005000039935,10.800120000028983,10.967130000004545,11.100115000037476,11.268219999969006]",space,0.35072,0.0,5.0,5.0,32.0,1.0,,,
,,,,,,,,,,,block_2/strong_t_92_3.wav,timbre,t,strong,92.0,2.058598996,15.10526566,,,Yes,Wolf Sades,0,No,m,31,R,Yes,1,2020-09-07_10h52.13.829,kura-A2,2020.1.2,Win32,60,,,,,,,,,,,,,,"[""space"",""space"",""space"",""space"",""space"",""space"",""space"",""space"",""space"",""space"",""space"",""space"",""space"",""space"",""space"",""space"",""space"",""space"",""space"",""space""]","[0.6670199999352917,1.2836649999953806,2.033739999984391,2.733864999958314,3.417024999973364,4.100310000008903,4.7170550000155345,5.350259999977425,5.966969999950379,6.633535000029951,7.277170000015758,8.000269999960437,8.683680000016466,9.417015000013635,10.050270000007004,10.700285000028089,11.400219999952242,12.116915000020526,12.783545000012964,13.450274999951944]",space,0.33381,0.0,6.0,6.0,3.0,1.0,,,
