key_resp.keys,key_resp.rt,practice_taps.keys,practice_taps.rt,keyresp.keys,keyresp.rt,practice_stims_loop.thisRepN,practice_stims_loop.thisTrialN,practice_stims_loop.thisN,practice_stims_loop.thisIndex,practice_stims_loop.ran,sndfile,type,tempo,cond,version,delay,dur,Participant Initials,"If you are a MTurk worker, what is your MTurk worker ID?'",Are you wearing headphones?,What are the headphone make and model?,"How many years of musical training, if any, do you have?",Do you have any hearing problems? Please describe,What is your sex (f/m/decline)?,What is your age?,What is your handedness (R/L/ambi)?,Are you currently in a secure and quiet room without a possible interruption?,session,date,expName,psychopyVersion,OS,frameRate,instructions_prompt.keys,instructions_prompt.rt,block1_taps.keys,block1_taps.rt,key_resp_2.keys,key_resp_2.rt,trials.thisRepN,trials.thisTrialN,trials.thisN,trials.thisIndex,trials.ran,key_resp2.keys,key_resp2.rt,block2_taps.keys,block2_taps.rt,key_resp_3.keys,key_resp_3.rt,trials_2.thisRepN,trials_2.thisTrialN,trials_2.thisN,trials_2.thisIndex,trials_2.ran,key_resp_4.keys,key_resp_4.rt,"If you are not an MTurk worker, please provide your email address"
space,25.936335,"[""space"",""space"",""space"",""space"",""space"",""space"",""space"",""space"",""space"",""space"",""space"",""space"",""space"",""space"",""space"",""space"",""space"",""space"",""space""]","[1.0041600000113249,1.4989800000330433,2.020085000025574,2.517745000019204,3.0442750000511296,3.5387250000494532,4.009500000043772,4.519770000013523,5.040510000020731,5.54191000002902,6.061719999997877,6.563430000038352,7.094520000042394,7.5977249999996275,8.091040000028443,8.578330000047572,9.065850000013597,9.58245500002522,10.101730000053067]",space,1.27596,0.0,0.0,0.0,3.0,1.0,block_2/strong_t_119_4.wav,timbre,t,strong,119.0,2.380207574,12.24809873,,,yes,"apple earbuds, wired",1,no,F,29,R,yes,1,2020-11-04_17h32.29.185,kura-A2,2020.1.2,MacIntel,60,,,,,,,,,,,,,,,,,,,,,,,,,
,,"[""space"",""space"",""space"",""space"",""space"",""space"",""space"",""space"",""space"",""space"",""space"",""space"",""space"",""space"",""space"",""space"",""space"",""space""]","[0.6320200000191107,2.103850000014063,2.9712500000023283,3.876040000002831,4.823184999986552,5.60964999999851,6.37778999999864,7.145040000032168,7.995929999975488,8.804034999979194,9.6581400000141,10.546960000006948,11.413319999992382,12.243330000026617,13.003499999991618,13.8428750000312,14.697999999974854,15.503329999977723]",space,1.34069,0.0,1.0,1.0,2.0,1.0,block_1/weak_n_72_4.wav,no,n,weak,72.0,1.922330121,17.89675189,,,yes,"apple earbuds, wired",1,no,F,29,R,yes,1,2020-11-04_17h32.29.185,kura-A2,2020.1.2,MacIntel,60,,,,,,,,,,,,,,,,,,,,,,,,,
,,"[""space"",""space"",""space"",""space"",""space"",""space"",""space"",""space"",""space"",""space"",""space"",""space"",""space"",""space"",""space"",""space"",""space"",""space""]","[1.4962200000300072,2.0681300000287592,2.613210000039544,3.235790000006091,3.819815000053495,4.3798250000108965,4.929050000035204,5.520240000041667,6.105985000031069,6.680710000044201,7.223920000018552,7.851900000008754,8.440870000049472,8.985070000053383,9.56782000005478,10.169655000034254,10.781405000016093,11.398550000041723]",space,1.245055,0.0,2.0,2.0,0.0,1.0,block_1/medium_n_105_3.wav,no,n,medium,105.0,1.683245346,13.36533151,,,yes,"apple earbuds, wired",1,no,F,29,R,yes,1,2020-11-04_17h32.29.185,kura-A2,2020.1.2,MacIntel,60,,,,,,,,,,,,,,,,,,,,,,,,,
,,"[""space"",""space"",""space"",""space"",""space"",""space"",""space"",""space""]","[6.315510000044014,6.849250000028405,7.363345000019763,7.8794850000413135,8.41788500000257,8.976130000024568,9.490140000008978,10.032110000029206]",space,0.802565,0.0,3.0,3.0,1.0,1.0,block_2/medium_t_119_4.wav,timbre,t,medium,119.0,2.073396767,11.89421309,,,yes,"apple earbuds, wired",1,no,F,29,R,yes,1,2020-11-04_17h32.29.185,kura-A2,2020.1.2,MacIntel,60,,,,,,,,,,,,,,,,,,,,,,,,,
,,,,,,,,,,,block_1/none_n_105_3.wav,no,n,none,105.0,2.216733946,14.87818519,,,yes,"apple earbuds, wired",1,no,F,29,R,yes,1,2020-11-04_17h32.29.185,kura-A2,2020.1.2,MacIntel,60,space,6.512215,"[""space"",""space"",""space"",""space"",""space"",""space"",""space"",""space"",""space""]","[3.2361650000093505,4.050064999959432,5.731899999955203,6.322649999987334,6.9491500000003725,7.80375500000082,8.884184999973513,10.077720000001136,11.017389999993611]",space,0.48578,0.0,0.0,0.0,6.0,1.0,,,,,,,,,,,,,,
,,,,,,,,,,,block_1/none_n_119_3.wav,no,n,none,119.0,1.932281918,14.89500301,,,yes,"apple earbuds, wired",1,no,F,29,R,yes,1,2020-11-04_17h32.29.185,kura-A2,2020.1.2,MacIntel,60,,,"[""space"",""space"",""space"",""space"",""space"",""space"",""space"",""space"",""space"",""space"",""space"",""space"",""space"",""space"",""space"",""space"",""space"",""space"",""space"",""space""]","[3.7195100000244565,4.111779999977443,4.911889999988489,5.900559999980032,6.421395000012126,6.8142550000338815,7.212475000007544,7.931359999987762,8.326635000004899,8.752559999993537,9.141325000033248,9.581170000019483,10.04505000001518,10.448800000012852,10.865864999999758,11.234295000031125,11.640684999991208,12.324744999990799,12.684750000014901,13.102855000004638]",space,0.937975,0.0,1.0,1.0,24.0,1.0,,,,,,,,,,,,,,
,,,,,,,,,,,block_1/medium_n_119_4.wav,no,n,medium,119.0,1.261396351,9.568471181,,,yes,"apple earbuds, wired",1,no,F,29,R,yes,1,2020-11-04_17h32.29.185,kura-A2,2020.1.2,MacIntel,60,,,"[""space"",""space"",""space"",""space"",""space"",""space"",""space"",""space"",""space"",""space"",""space"",""space"",""space"",""space"",""space"",""space"",""space"",""space""]","[0.9050550000392832,1.411705000034999,1.8285600000526756,2.2521249999990687,2.7199300000211224,3.1284600000362843,3.5634700000518933,3.9741350000258535,4.378105000010692,4.845545000047423,5.2972800000570714,5.802590000035707,6.240535000048112,6.72535500000231,7.185510000039358,7.625720000010915,8.057520000031218,8.511170000012498]",space,1.012445,0.0,2.0,2.0,17.0,1.0,,,,,,,,,,,,,,
,,,,,,,,,,,block_1/strong_n_72_3.wav,no,n,strong,72.0,2.03136762,17.09667374,,,yes,"apple earbuds, wired",1,no,F,29,R,yes,1,2020-11-04_17h32.29.185,kura-A2,2020.1.2,MacIntel,60,,,"[""space"",""space"",""space"",""space"",""space"",""space"",""space"",""space"",""space"",""space"",""space"",""space"",""space"",""space"",""space"",""space"",""space"",""space"",""space""]","[1.4444150000344962,2.235035000019707,3.0289300000295043,3.803220000001602,4.578039999993052,5.3312150000128895,6.123674999980722,6.841290000011213,7.599945000023581,8.387195000017527,9.191225000016857,9.914815000025555,10.658304999989923,11.435890000022482,12.177499999990687,12.983605000015814,13.718310000025667,14.53025000001071,15.311244999989867]",space,0.58362,0.0,3.0,3.0,32.0,1.0,,,,,,,,,,,,,,
,,,,,,,,,,,block_1/weak_n_105_3.wav,no,n,weak,105.0,1.738990723,13.41450093,,,yes,"apple earbuds, wired",1,no,F,29,R,yes,1,2020-11-04_17h32.29.185,kura-A2,2020.1.2,MacIntel,60,,,"[""space"",""space"",""space"",""space"",""space"",""space"",""space""]","[4.827014999988023,5.862550000019837,7.252730000007432,8.425854999979492,10.71259499998996,11.315775000024587,11.862224999989849]",space,1.217685,0.0,4.0,4.0,27.0,1.0,,,,,,,,,,,,,,
,,,,,,,,,,,block_1/none_n_92_4.wav,no,n,none,92.0,1.296817987,15.18938035,,,yes,"apple earbuds, wired",1,no,F,29,R,yes,1,2020-11-04_17h32.29.185,kura-A2,2020.1.2,MacIntel,60,,,"[""space"",""space"",""space"",""space"",""space"",""space"",""space"",""space"",""space"",""space"",""space"",""space"",""space""]","[4.336615000036545,4.87292500003241,5.521375000011176,6.045749999990221,6.599534999986645,7.135215000016615,7.722675000026356,9.549095000023954,10.057990000001155,10.758825000026263,11.460940000019036,12.383659999992233,14.645384999981616]",space,0.582835,0.0,5.0,5.0,19.0,1.0,,,,,,,,,,,,,,
,,,,,,,,,,,block_1/none_n_72_4.wav,no,n,none,72.0,1.118979514,23.86124709,,,yes,"apple earbuds, wired",1,no,F,29,R,yes,1,2020-11-04_17h32.29.185,kura-A2,2020.1.2,MacIntel,60,,,"[""space"",""space"",""space"",""space"",""space"",""space"",""space"",""space"",""space"",""space"",""space"",""space"",""space"",""space"",""space"",""space"",""space"",""space""]","[2.860480000032112,4.010820000024978,4.822845000016969,5.5905849999981,6.330350000003818,7.987350000010338,8.846360000025015,9.756135000032373,10.541429999982938,11.36174000002211,12.292275000014342,13.160490000038408,14.12713999999687,15.857870000007097,16.76198499999009,17.744530000025406,20.953910000040196,22.713489999994636]",space,1.041865,0.0,6.0,6.0,21.0,1.0,,,,,,,,,,,,,,
,,,,,,,,,,,block_1/weak_n_92_3.wav,no,n,weak,92.0,1.887522896,14.6307882,,,yes,"apple earbuds, wired",1,no,F,29,R,yes,1,2020-11-04_17h32.29.185,kura-A2,2020.1.2,MacIntel,60,,,"[""space"",""space"",""space"",""space"",""space"",""space"",""space"",""space"",""space"",""space"",""space"",""space"",""space"",""space"",""space"",""space"",""space""]","[1.912465000001248,2.6065700000035577,3.2737900000065565,3.9280049999943003,4.586609999998473,5.209405000030529,5.8291750000207685,6.512519999989308,7.194505000021309,7.845834999985527,8.50881999998819,9.18051999999443,9.799984999990556,10.485370000009425,11.08806000003824,11.7098700000206,12.362955000018701]",space,1.676325,0.0,7.0,7.0,5.0,1.0,,,,,,,,,,,,,,
,,,,,,,,,,,block_1/weak_n_72_3.wav,no,n,weak,72.0,1.008682366,16.87657352,,,yes,"apple earbuds, wired",1,no,F,29,R,yes,1,2020-11-04_17h32.29.185,kura-A2,2020.1.2,MacIntel,60,,,"[""space"",""space"",""space"",""space"",""space"",""space"",""space"",""space"",""space"",""space"",""space"",""space"",""space"",""space"",""space"",""space"",""space"",""space"",""space""]","[1.9073050000006333,2.655209999997169,3.4542399999918416,4.295634999987669,5.125884999986738,5.939424999989569,6.763340000004973,7.503280000004452,8.254375000018626,9.001630000013392,9.817465000029188,10.54552500002319,11.34888000000501,12.139224999991711,12.944765000022016,13.745425000030082,14.58709500002442,15.337990000029095,16.148389999987558]",space,1.542175,0.0,8.0,8.0,8.0,1.0,,,,,,,,,,,,,,
,,,,,,,,,,,block_1/strong_n_119_3.wav,no,n,strong,119.0,1.213627968,10.9792062,,,yes,"apple earbuds, wired",1,no,F,29,R,yes,1,2020-11-04_17h32.29.185,kura-A2,2020.1.2,MacIntel,60,,,"[""space"",""space"",""space"",""space"",""space"",""space"",""space"",""space"",""space"",""space"",""space"",""space"",""space"",""space"",""space"",""space"",""space"",""space"",""space""]","[1.1203199999872595,1.6462049999972805,2.1585199999972247,2.6587650000001304,3.137314999999944,3.6246249999967404,4.124015000008512,4.60703499999363,5.090005000005476,5.596004999999423,6.072724999976344,6.567269999999553,7.037055000022519,7.529105000023264,8.050010000006296,8.522434999991674,9.000884999986738,9.515364999999292,10.021194999979343]",space,0.67308,0.0,9.0,9.0,16.0,1.0,,,,,,,,,,,,,,
,,,,,,,,,,,block_1/strong_n_105_3.wav,no,n,strong,105.0,1.156897655,12.38746455,,,yes,"apple earbuds, wired",1,no,F,29,R,yes,1,2020-11-04_17h32.29.185,kura-A2,2020.1.2,MacIntel,60,,,"[""space"",""space"",""space"",""space"",""space"",""space"",""space"",""space"",""space"",""space"",""space"",""space"",""space"",""space"",""space"",""space"",""space"",""space"",""space""]","[1.0808149999938905,1.6897449999814853,2.2996099999872968,2.9145150000113063,3.479315000004135,4.016569999977946,4.5893749999813735,5.172229999967385,5.717535000003409,6.32162000000244,6.837330000009388,7.47697999997763,8.031354999984615,8.59681499999715,9.16899499995634,9.740929999970831,10.304814999981318,10.876889999955893,11.462865000008605]",space,0.87411,0.0,10.0,10.0,9.0,1.0,,,,,,,,,,,,,,
,,,,,,,,,,,block_1/medium_n_105_4.wav,no,n,medium,105.0,1.402482856,15.80924023,,,yes,"apple earbuds, wired",1,no,F,29,R,yes,1,2020-11-04_17h32.29.185,kura-A2,2020.1.2,MacIntel,60,,,"[""space"",""space"",""space"",""space"",""space"",""space"",""space"",""space"",""space"",""space"",""space"",""space"",""space"",""space"",""space"",""space""]","[1.4934500000090338,2.251395000028424,2.981275000027381,3.780655000009574,6.063680000021122,6.795930000022054,7.515925000014249,8.280520000029355,9.007630000007339,9.732485000044107,10.427885000011884,11.131990000023507,11.823070000042208,12.508885000017472,13.25787000003038,13.995770000037737]",space,1.353185,0.0,11.0,11.0,12.0,1.0,,,,,,,,,,,,,,
,,,,,,,,,,,block_1/medium_n_92_3.wav,no,n,medium,92.0,1.602440637,13.28810957,,,yes,"apple earbuds, wired",1,no,F,29,R,yes,1,2020-11-04_17h32.29.185,kura-A2,2020.1.2,MacIntel,60,,,"[""space"",""space"",""space"",""space"",""space"",""space"",""space"",""space"",""space"",""space"",""space"",""space"",""space"",""space"",""space"",""space"",""space"",""space"",""space""]","[1.0242750000325032,1.619055000017397,2.1644150000065565,2.7460449999780394,3.396290000004228,4.04318500001682,4.656910000019707,5.293654999986757,5.878115000028629,6.431689999997616,7.076004999980796,7.716889999981504,8.309490000014193,8.927160000021104,9.565430000016931,10.175510000030044,10.768429999996442,11.350474999984726,11.956370000028983]",space,1.17979,0.0,12.0,12.0,2.0,1.0,,,,,,,,,,,,,,
,,,,,,,,,,,block_1/weak_n_81_3.wav,no,n,weak,81.0,1.412334255,16.47029344,,,yes,"apple earbuds, wired",1,no,F,29,R,yes,1,2020-11-04_17h32.29.185,kura-A2,2020.1.2,MacIntel,60,,,"[""space"",""space"",""space"",""space"",""space"",""space"",""space"",""space"",""space"",""space"",""space"",""space"",""space"",""space"",""space""]","[4.268700000015087,4.902705000014976,5.647555000032298,6.384375000023283,7.0872850000159815,7.832720000005793,8.620905000017956,9.369530000025406,10.087240000022575,10.81414000003133,11.53723000001628,12.29226000001654,13.089220000023488,13.793985000054818,14.582940000051167]",space,1.08326,0.0,13.0,13.0,30.0,1.0,,,,,,,,,,,,,,
,,,,,,,,,,,block_1/strong_n_72_4.wav,no,n,strong,72.0,1.599228342,16.96784512,,,yes,"apple earbuds, wired",1,no,F,29,R,yes,1,2020-11-04_17h32.29.185,kura-A2,2020.1.2,MacIntel,60,,,"[""space"",""space"",""space"",""space"",""space"",""space"",""space"",""space"",""space"",""space"",""space"",""space"",""space"",""space"",""space"",""space"",""space"",""space""]","[2.235755000030622,3.0041049999999814,3.7827050000196323,4.55771999998251,5.3898300000000745,6.197585000016261,6.989984999992885,7.790065000008326,8.586660000029951,9.348850000009406,10.157854999997653,10.883135000010952,11.723479999986012,12.52198000001954,13.316395000030752,14.095819999987725,14.900484999991022,15.647159999993164]",space,2.161515,0.0,14.0,14.0,35.0,1.0,,,,,,,,,,,,,,
,,,,,,,,,,,block_1/weak_n_92_4.wav,no,n,weak,92.0,2.208253857,14.29442166,,,yes,"apple earbuds, wired",1,no,F,29,R,yes,1,2020-11-04_17h32.29.185,kura-A2,2020.1.2,MacIntel,60,,,"[""space"",""space"",""space"",""space"",""space"",""space"",""space"",""space"",""space"",""space"",""space"",""space"",""space"",""space"",""space"",""space"",""space""]","[2.6488399999798276,3.2696199999772944,3.862810000020545,4.491355000005569,5.054119999986142,5.671915000013541,6.272445000009611,6.848385000019334,7.453764999983832,8.085930000001099,8.707560000009835,9.34516500000609,9.944109999982174,10.527720000012778,11.123614999989513,11.700154999969527,12.393389999982901]",space,0.590525,0.0,15.0,15.0,15.0,1.0,,,,,,,,,,,,,,
,,,,,,,,,,,block_1/strong_n_92_3.wav,no,n,strong,92.0,1.754608557,14.24499404,,,yes,"apple earbuds, wired",1,no,F,29,R,yes,1,2020-11-04_17h32.29.185,kura-A2,2020.1.2,MacIntel,60,,,"[""space"",""space"",""space"",""space"",""space"",""space"",""space"",""space"",""space"",""space"",""space"",""space"",""space"",""space"",""space"",""space"",""space"",""space"",""space""]","[1.3435949999839067,2.0221249999594875,2.67259999999078,3.279340000008233,3.9270249999826774,4.551909999980126,5.189704999967944,5.820624999993015,6.453819999995176,7.1123549999902025,7.693044999963604,8.317139999999199,8.986779999977443,9.583864999993239,10.221079999988433,10.84873999998672,11.498404999962077,12.128739999956451,12.739569999976084]",space,0.928535,0.0,16.0,16.0,39.0,1.0,,,,,,,,,,,,,,
,,,,,,,,,,,block_1/weak_n_105_4.wav,no,n,weak,105.0,1.436012468,12.20911904,,,yes,"apple earbuds, wired",1,no,F,29,R,yes,1,2020-11-04_17h32.29.185,kura-A2,2020.1.2,MacIntel,60,,,"[""space"",""space"",""space"",""space"",""space"",""space"",""space"",""space"",""space""]","[3.717374999949243,4.311439999961294,5.276399999973364,5.898254999949131,6.8584350000019185,7.319219999946654,8.820849999960046,9.36458999995375,10.90036999998847]",space,0.75041,0.0,17.0,17.0,28.0,1.0,,,,,,,,,,,,,,
,,,,,,,,,,,block_1/medium_n_72_3.wav,no,n,medium,72.0,2.102023577,18.17590113,,,yes,"apple earbuds, wired",1,no,F,29,R,yes,1,2020-11-04_17h32.29.185,kura-A2,2020.1.2,MacIntel,60,,,"[""space"",""space"",""space"",""space"",""space"",""space"",""space"",""space"",""space"",""space"",""space"",""space"",""space"",""space"",""space"",""space"",""space"",""space""]","[1.6507399999536574,2.3769800000009127,3.153409999969881,3.94273999996949,4.928799999994226,5.752314999990631,6.55572999996366,7.418124999967404,8.232749999966472,9.067890000005718,9.928699999989476,10.739375000004657,11.533154999953695,12.3500800000038,13.168589999957476,13.978964999958407,14.820614999975078,15.594739999971353]",space,0.53949,0.0,18.0,18.0,13.0,1.0,,,,,,,,,,,,,,
,,,,,,,,,,,block_1/strong_n_81_3.wav,no,n,strong,81.0,1.6043637,15.60930701,,,yes,"apple earbuds, wired",1,no,F,29,R,yes,1,2020-11-04_17h32.29.185,kura-A2,2020.1.2,MacIntel,60,,,"[""space"",""space"",""space"",""space"",""space"",""space"",""space"",""space"",""space"",""space"",""space"",""space"",""space"",""space"",""space"",""space"",""space"",""space"",""space""]","[1.4673950000433251,2.1962050000438467,2.913345000008121,3.65679000003729,4.336680000007618,5.058270000037737,5.774840000027325,6.45584000000963,7.1776600000448525,7.915065000008326,8.608250000048429,9.29866500000935,9.978080000029877,10.694915000000037,11.473045000049751,12.178360000019893,12.897485000023153,13.574725000013132,14.27945000003092]",space,0.83478,0.0,19.0,19.0,10.0,1.0,,,,,,,,,,,,,,
,,,,,,,,,,,block_1/none_n_105_4.wav,no,n,none,105.0,1.493653366,16.97025201,,,yes,"apple earbuds, wired",1,no,F,29,R,yes,1,2020-11-04_17h32.29.185,kura-A2,2020.1.2,MacIntel,60,,,"[""space"",""space"",""space"",""space"",""space"",""space"",""space"",""space"",""space"",""space"",""space"",""space""]","[6.238744999980554,8.528974999964703,9.639960000000428,13.31212499999674,13.480264999961946,13.649585000006482,13.807629999995697,14.077494999975897,14.236470000003465,14.396260000008624,14.546304999967106,14.888899999961723]",space,0.4441,0.0,20.0,20.0,14.0,1.0,,,,,,,,,,,,,,
,,,,,,,,,,,block_1/none_n_81_3.wav,no,n,none,81.0,1.098648096,17.74277508,,,yes,"apple earbuds, wired",1,no,F,29,R,yes,1,2020-11-04_17h32.29.185,kura-A2,2020.1.2,MacIntel,60,,,"[""space"",""space"",""space"",""space"",""space"",""space"",""space"",""space"",""space"",""space"",""space"",""space"",""space"",""space"",""space"",""space""]","[8.85407000000123,9.180884999979753,9.558390000020154,9.851469999994151,10.454245000029914,10.95050999999512,11.518740000028629,11.795444999996107,12.0625,13.029915000020992,13.275454999995418,13.842160000000149,14.100890000001527,14.873215000028722,15.11223999998765,15.314524999994319]",space,0.61868,0.0,21.0,21.0,29.0,1.0,,,,,,,,,,,,,,
,,,,,,,,,,,block_1/weak_n_119_3.wav,no,n,weak,119.0,2.459758036,10.81612992,,,yes,"apple earbuds, wired",1,no,F,29,R,yes,1,2020-11-04_17h32.29.185,kura-A2,2020.1.2,MacIntel,60,,,"[""space"",""space"",""space"",""space"",""space"",""space"",""space"",""space"",""space"",""space"",""space"",""space"",""space"",""space"",""space"",""space"",""space""]","[1.6110500000067987,2.04751500004204,2.470785000012256,2.904385000001639,3.364590000011958,3.7721950000268407,4.175150000024587,4.620595000043977,5.075895000016317,5.46441000001505,5.904585000011139,6.347854999999981,6.751240000012331,7.1864250000217,7.625920000020415,8.072080000012647,8.539775000012014]",space,0.358765,0.0,22.0,22.0,37.0,1.0,,,,,,,,,,,,,,
,,,,,,,,,,,block_1/none_n_81_4.wav,no,n,none,81.0,2.242955119,22.19488256,,,yes,"apple earbuds, wired",1,no,F,29,R,yes,1,2020-11-04_17h32.29.185,kura-A2,2020.1.2,MacIntel,60,,,"[""space"",""space"",""space"",""space"",""space"",""space"",""space"",""space"",""space"",""space"",""space"",""space"",""space"",""space"",""space"",""space"",""space"",""space"",""space""]","[0.9940899999928661,1.5031849999795668,2.151914999994915,2.7719299999880604,3.4249650000128895,4.100745000003371,4.97398999996949,5.639579999959096,6.4893600000068545,7.2342850000131875,7.971510000003036,8.738834999967366,9.49875999998767,10.724289999983739,11.52420499996515,12.887355000013486,13.997349999961443,14.944049999990966,15.951299999956973]",space,0.635745,0.0,23.0,23.0,26.0,1.0,,,,,,,,,,,,,,
,,,,,,,,,,,block_1/medium_n_81_3.wav,no,n,medium,81.0,1.199970007,16.72060493,,,yes,"apple earbuds, wired",1,no,F,29,R,yes,1,2020-11-04_17h32.29.185,kura-A2,2020.1.2,MacIntel,60,,,"[""space"",""space"",""space"",""space"",""space"",""space"",""space"",""space"",""space"",""space"",""space"",""space"",""space"",""space"",""space"",""space"",""space""]","[2.943479999958072,3.7937399999937043,4.593774999957532,5.443654999951832,6.207414999953471,7.042479999945499,7.852754999999888,8.65084499999648,9.424929999979213,10.20618999999715,11.035479999962263,11.867069999978412,12.646324999979697,13.492334999958985,14.248889999988023,15.059209999977611,15.841989999986254]",space,0.79517,0.0,24.0,24.0,33.0,1.0,,,,,,,,,,,,,,
,,,,,,,,,,,block_1/medium_n_92_4.wav,no,n,medium,92.0,1.438882438,14.02917722,,,yes,"apple earbuds, wired",1,no,F,29,R,yes,1,2020-11-04_17h32.29.185,kura-A2,2020.1.2,MacIntel,60,,,"[""space"",""space"",""space"",""space"",""space"",""space"",""space"",""space"",""space"",""space"",""space"",""space"",""space"",""space"",""space"",""space"",""space"",""space"",""space""]","[0.9196499999961816,1.5050850000116043,2.1676050000241958,2.7718999999924563,3.3880550000467338,4.095300000044517,4.744655000045896,5.3443650000263005,5.935815000033472,6.603975000034552,7.263425000011921,7.866855000029318,8.445655000046827,9.074420000019018,9.736825000029057,10.327270000008866,10.962174999993294,11.576355000026524,12.227230000018608]",space,2.952435,0.0,25.0,25.0,11.0,1.0,,,,,,,,,,,,,,
,,,,,,,,,,,block_1/strong_n_81_4.wav,no,n,strong,81.0,1.727706814,17.69954355,,,yes,"apple earbuds, wired",1,no,F,29,R,yes,1,2020-11-04_17h32.29.185,kura-A2,2020.1.2,MacIntel,60,,,"[""space"",""space"",""space"",""space"",""space"",""space"",""space"",""space"",""space"",""space"",""space"",""space"",""space"",""space"",""space"",""space"",""space"",""space"",""space""]","[1.6625749999657273,2.527784999983851,3.4411249999538995,4.211349999997765,5.018989999953192,5.7535400000051595,6.564634999958798,7.437159999972209,8.314029999950435,8.967744999972638,9.77103000000352,10.589149999956135,11.36870499997167,12.178619999962393,13.036364999949,13.914954999985639,14.703654999961145,15.488169999967795,16.279724999971222]",space,1.163715,0.0,26.0,26.0,1.0,1.0,,,,,,,,,,,,,,
,,,,,,,,,,,block_1/weak_n_119_4.wav,no,n,weak,119.0,2.305568033,13.07926418,,,yes,"apple earbuds, wired",1,no,F,29,R,yes,1,2020-11-04_17h32.29.185,kura-A2,2020.1.2,MacIntel,60,,,"[""space"",""space"",""space"",""space"",""space"",""space"",""space"",""space"",""space"",""space"",""space""]","[1.9006250000093132,2.4525549999671057,3.6897749999770895,4.572025000001304,5.661794999963604,7.268455000012182,7.778509999974631,8.309394999989308,8.87408499995945,9.464029999973718,10.481809999968391]",space,0.513995,0.0,27.0,27.0,31.0,1.0,,,,,,,,,,,,,,
,,,,,,,,,,,block_1/weak_n_81_4.wav,no,n,weak,81.0,2.484743178,17.5438815,,,yes,"apple earbuds, wired",1,no,F,29,R,yes,1,2020-11-04_17h32.29.185,kura-A2,2020.1.2,MacIntel,60,,,"[""space"",""space"",""space"",""space"",""space"",""space"",""space"",""space"",""space"",""space"",""space"",""space"",""space"",""space"",""space"",""space"",""space"",""space""]","[1.1546050000470132,1.8469950000289828,2.6131400000303984,3.4750000000349246,4.286100000026636,5.065055000013672,6.082060000044294,6.791815000004135,7.602524999994785,8.341340000042692,9.099115000048187,9.884690000035334,10.732255000039004,11.500035000033677,12.255089999991469,12.973765000002459,13.770835000032093,14.556589999992866]",space,0.6516,0.0,28.0,28.0,36.0,1.0,,,,,,,,,,,,,,
,,,,,,,,,,,block_1/weak_n_72_4.wav,no,n,weak,72.0,1.441009476,17.41543124,,,yes,"apple earbuds, wired",1,no,F,29,R,yes,1,2020-11-04_17h32.29.185,kura-A2,2020.1.2,MacIntel,60,,,"[""space"",""space"",""space"",""space"",""space"",""space"",""space"",""space"",""space"",""space"",""space"",""space"",""space"",""space"",""space"",""space"",""space""]","[1.3626900000381283,3.0201450000167824,3.9790999999968335,4.747354999999516,5.494065000035334,6.379735000024084,7.2218050000374205,8.072450000036042,8.87200000003213,9.692900000023656,10.516215000010561,11.367480000015348,12.25156500004232,13.088660000008531,13.863219999999274,14.75470500002848,15.605290000035893]",space,0.351465,0.0,29.0,29.0,4.0,1.0,,,,,,,,,,,,,,
,,,,,,,,,,,block_1/medium_n_72_4.wav,no,n,medium,72.0,1.204769933,15.71334136,,,yes,"apple earbuds, wired",1,no,F,29,R,yes,1,2020-11-04_17h32.29.185,kura-A2,2020.1.2,MacIntel,60,,,"[""space"",""space"",""space"",""space"",""space"",""space"",""space"",""space"",""space"",""space"",""space"",""space"",""space"",""space"",""space"",""space"",""space"",""space"",""space""]","[1.5330449999892153,2.228484999970533,2.9999299999908544,3.6982049999642186,4.456094999972265,5.2479049999965355,6.004075000004377,6.70482499996433,7.462780000001658,8.231904999993276,8.888364999962505,9.598174999991897,10.358444999961648,11.127860000007786,11.881624999979977,12.628344999975525,13.311110000009649,13.987779999966733,14.764469999994617]",space,1.54746,0.0,30.0,30.0,7.0,1.0,,,,,,,,,,,,,,
,,,,,,,,,,,block_1/medium_n_105_3.wav,no,n,medium,105.0,2.417465983,14.09955215,,,yes,"apple earbuds, wired",1,no,F,29,R,yes,1,2020-11-04_17h32.29.185,kura-A2,2020.1.2,MacIntel,60,,,"[""space"",""space"",""space"",""space"",""space"",""space"",""space"",""space"",""space"",""space"",""space"",""space"",""space"",""space"",""space"",""space"",""space"",""space"",""space""]","[1.3922250000177883,1.968955000047572,2.5356100000208244,3.1125750000355765,3.7597850000020117,4.343335000041407,4.902165000035893,5.462014999997336,6.041215000033844,6.6328250000369735,7.229480000038166,7.804670000041369,8.368855000007898,8.952930000028573,9.54562500002794,10.115240000013728,10.69823500001803,11.321030000050087,11.945355000032578]",space,0.989455,0.0,31.0,31.0,0.0,1.0,,,,,,,,,,,,,,
,,,,,,,,,,,block_1/strong_n_105_4.wav,no,n,strong,105.0,1.30585928,13.14087062,,,yes,"apple earbuds, wired",1,no,F,29,R,yes,1,2020-11-04_17h32.29.185,kura-A2,2020.1.2,MacIntel,60,,,"[""space"",""space"",""space"",""space"",""space"",""space"",""space"",""space"",""space"",""space"",""space"",""space"",""space"",""space"",""space"",""space"",""space"",""space"",""space""]","[1.3009249999886379,1.91040500003146,2.5191849999828264,3.093560000008438,3.6781150000169873,4.2821899999980815,4.883589999983087,5.494665000005625,6.0983349999878556,6.687489999982063,7.26517500000773,7.88339500001166,8.513080000004265,9.067670000018552,9.647839999990538,10.278129999991506,10.898589999997057,11.517055000003893,12.112269999983255]",space,1.191295,0.0,32.0,32.0,3.0,1.0,,,,,,,,,,,,,,
,,,,,,,,,,,block_1/strong_n_119_4.wav,no,n,strong,119.0,1.980480326,12.048825,,,yes,"apple earbuds, wired",1,no,F,29,R,yes,1,2020-11-04_17h32.29.185,kura-A2,2020.1.2,MacIntel,60,,,"[""space"",""space"",""space"",""space"",""space"",""space"",""space"",""space"",""space"",""space"",""space"",""space"",""space"",""space"",""space"",""space"",""space"",""space"",""space"",""space""]","[0.7506900000153109,1.147850000008475,1.6648400000412948,2.165964999992866,2.6637099999934435,3.176770000020042,3.686825000040699,4.192195000010543,4.709109999996144,5.187919999996666,5.721799999999348,6.222680000006221,6.715774999989662,7.218255000014324,7.712824999995064,8.24875000002794,8.738959999987856,9.22156500001438,9.706775000027847,10.212120000040159]",space,0.499285,0.0,33.0,33.0,23.0,1.0,,,,,,,,,,,,,,
,,,,,,,,,,,block_1/medium_n_119_3.wav,no,n,medium,119.0,1.238363393,11.09976929,,,yes,"apple earbuds, wired",1,no,F,29,R,yes,1,2020-11-04_17h32.29.185,kura-A2,2020.1.2,MacIntel,60,,,"[""space"",""space"",""space"",""space"",""space"",""space"",""space"",""space"",""space"",""space"",""space"",""space"",""space"",""space""]","[3.7947000000276603,4.269075000018347,4.757350000028964,5.2782200000365265,5.768045000033453,6.245315000007395,6.75007499998901,7.203005000017583,7.637979999999516,8.101510000007693,8.62200999999186,9.11780499998713,9.544605000002775,10.025450000015553]",space,0.52596,0.0,34.0,34.0,22.0,1.0,,,,,,,,,,,,,,
,,,,,,,,,,,block_1/strong_n_92_4.wav,no,n,strong,92.0,2.276261723,15.98016195,,,yes,"apple earbuds, wired",1,no,F,29,R,yes,1,2020-11-04_17h32.29.185,kura-A2,2020.1.2,MacIntel,60,,,"[""space"",""space"",""space"",""space"",""space"",""space"",""space"",""space"",""space"",""space"",""space"",""space"",""space"",""space"",""space"",""space"",""space"",""space""]","[1.1497700000181794,1.917589999968186,2.6411499999812804,3.36271499999566,4.091674999974202,4.819484999985434,5.529645000002347,6.212115000002086,6.911729999992531,7.628299999982119,8.385499999974854,9.045990000013262,9.732099999964703,10.432755000016186,11.14975499996217,11.840849999978673,12.581435000000056,13.283339999965392]",space,1.89174,0.0,35.0,35.0,34.0,1.0,,,,,,,,,,,,,,
,,,,,,,,,,,block_1/none_n_72_3.wav,no,n,none,72.0,1.892162994,23.61892036,,,yes,"apple earbuds, wired",1,no,F,29,R,yes,1,2020-11-04_17h32.29.185,kura-A2,2020.1.2,MacIntel,60,,,"[""space"",""space"",""space""]","[1.3344050000305288,17.354570000024978,18.93098500004271]",space,0.42931,0.0,36.0,36.0,18.0,1.0,,,,,,,,,,,,,,
,,,,,,,,,,,block_1/medium_n_81_4.wav,no,n,medium,81.0,1.742854158,16.25138024,,,yes,"apple earbuds, wired",1,no,F,29,R,yes,1,2020-11-04_17h32.29.185,kura-A2,2020.1.2,MacIntel,60,,,"[""space"",""space"",""space"",""space"",""space"",""space"",""space"",""space"",""space"",""space"",""space"",""space"",""space"",""space"",""space"",""space"",""space"",""space""]","[1.4249950000084937,2.190790000022389,2.966279999993276,3.7698850000160746,4.528760000015609,5.2611650000326335,5.997195000003558,6.717464999994263,7.48978000000352,8.162185000022873,8.870355000020936,9.617640000011306,10.38776000001235,11.09556500002509,11.865025000006426,12.586400000029244,13.322634999989532,14.101269999984652]",space,0.46778,0.0,37.0,37.0,38.0,1.0,,,,,,,,,,,,,,
,,,,,,,,,,,block_1/none_n_119_4.wav,no,n,none,119.0,2.009432028,15.37111003,,,yes,"apple earbuds, wired",1,no,F,29,R,yes,1,2020-11-04_17h32.29.185,kura-A2,2020.1.2,MacIntel,60,,,"[""space"",""space"",""space"",""space"",""space"",""space"",""space"",""space"",""space"",""space"",""space"",""space"",""space"",""space"",""space""]","[5.404405000037514,5.885440000041854,6.267105000035372,6.646875000034925,7.013465000025462,7.559249999991152,7.896665000007488,8.28005000000121,8.613400000031106,8.859790000016801,9.776955000008456,10.528685000026599,10.957010000012815,11.294805000012275,12.567290000035428]",space,0.388155,0.0,38.0,38.0,20.0,1.0,,,,,,,,,,,,,,
,,,,,,,,,,,block_1/none_n_92_3.wav,no,n,none,92.0,2.336707073,18.23675242,,,yes,"apple earbuds, wired",1,no,F,29,R,yes,1,2020-11-04_17h32.29.185,kura-A2,2020.1.2,MacIntel,60,,,"[""space"",""space"",""space"",""space"",""space"",""space"",""space"",""space"",""space"",""space""]","[0.8766400000313297,2.1665700000012293,3.8674900000332855,4.59655500005465,5.534560000000056,6.736635000037495,7.6326650000410154,8.882755000027828,10.878895000030752,12.512770000030287]",space,8.47579,0.0,39.0,39.0,25.0,1.0,,,,,,,,,,,,,,
,,,,,,,,,,,block_2/weak_t_105_4.wav,timbre,t,weak,105.0,1.205192231,12.73516956,,,yes,"apple earbuds, wired",1,no,F,29,R,yes,1,2020-11-04_17h32.29.185,kura-A2,2020.1.2,MacIntel,60,,,,,,,,,,,,space,4.038215,"[""space"",""space"",""space"",""space"",""space"",""space"",""space"",""space"",""space"",""space"",""space"",""space"",""space"",""space"",""space"",""space"",""space"",""space""]","[1.4459449999849312,2.002054999989923,2.5957049999851733,3.2188249999890104,3.7431050000013784,4.257289999979548,4.76345999998739,5.2712049999972805,5.7939449999830686,6.362959999998566,6.988925000012387,8.161974999995437,8.773014999984298,9.331109999970067,9.881744999962393,10.450595000002068,11.066609999979846,11.642854999983683]",space,1.08213,0.0,0.0,0.0,7.0,1.0,,,
,,,,,,,,,,,block_2/medium_t_72_3.wav,timbre,t,medium,72.0,1.064285065,17.84451182,,,yes,"apple earbuds, wired",1,no,F,29,R,yes,1,2020-11-04_17h32.29.185,kura-A2,2020.1.2,MacIntel,60,,,,,,,,,,,,,,"[""space"",""space"",""space"",""space"",""space"",""space"",""space"",""space"",""space"",""space"",""space"",""space"",""space"",""space"",""space"",""space"",""space"",""space""]","[1.592464999994263,2.3260100000188686,3.2196850000182167,4.077965000004042,4.8945999999996275,5.820524999988265,6.684074999997392,7.501370000012685,8.342940000002272,9.274465000024065,10.147089999984019,10.963530000008177,11.847454999980982,12.681589999992866,13.541584999999031,14.387295000022277,15.283300000010058,16.229905000014696]",space,0.44421,0.0,1.0,1.0,31.0,1.0,,,
,,,,,,,,,,,block_2/none_t_105_4.wav,timbre,t,none,105.0,1.723889958,15.53967227,,,yes,"apple earbuds, wired",1,no,F,29,R,yes,1,2020-11-04_17h32.29.185,kura-A2,2020.1.2,MacIntel,60,,,,,,,,,,,,,,"[""space""]",[10.791520000027958],space,0.345655,0.0,2.0,2.0,20.0,1.0,,,
,,,,,,,,,,,block_2/none_t_72_3.wav,timbre,t,none,72.0,1.763210745,21.95785927,,,yes,"apple earbuds, wired",1,no,F,29,R,yes,1,2020-11-04_17h32.29.185,kura-A2,2020.1.2,MacIntel,60,,,,,,,,,,,,,,"[""space"",""space"",""space"",""space"",""space"",""space"",""space"",""space"",""space"",""space"",""space""]","[6.0684800000162795,7.811719999997877,10.554469999973662,11.324955000018235,11.727205000002868,13.792669999995269,14.242800000007264,14.559275000006892,19.795214999991003,19.99177000002237,21.267144999990705]",space,0.810005,0.0,3.0,3.0,19.0,1.0,,,
,,,,,,,,,,,block_2/weak_t_72_4.wav,timbre,t,weak,72.0,1.41938316,17.89516547,,,yes,"apple earbuds, wired",1,no,F,29,R,yes,1,2020-11-04_17h32.29.185,kura-A2,2020.1.2,MacIntel,60,,,,,,,,,,,,,,"[""space"",""space"",""space"",""space"",""space"",""space"",""space"",""space"",""space"",""space"",""space"",""space"",""space"",""space"",""space"",""space"",""space""]","[1.9367900000070222,2.6784050000132993,3.4506399999954738,4.5531450000125915,5.140695000009146,6.03648999996949,6.855159999977332,7.700699999986682,8.779839999973774,8.964455000008456,10.401170000026468,11.177369999990333,12.783439999970142,13.595774999994319,14.431739999970887,15.16011499997694,16.06895500002429]",space,23.443375,0.0,4.0,4.0,33.0,1.0,,,
,,,,,,,,,,,block_2/medium_t_105_4.wav,timbre,t,medium,105.0,1.80685877,13.54300389,,,yes,"apple earbuds, wired",1,no,F,29,R,yes,1,2020-11-04_17h32.29.185,kura-A2,2020.1.2,MacIntel,60,,,,,,,,,,,,,,"[""space"",""space"",""space"",""space"",""space"",""space"",""space"",""space"",""space"",""space"",""space"",""space"",""space"",""space"",""space"",""space"",""space"",""space"",""space""]","[0.9494850000482984,1.5564700000104494,2.201215000008233,2.8270050000282936,3.4197600000188686,4.025405000022147,4.603740000049584,5.288035000034142,5.929425000038464,6.473270000016782,7.1149549999972805,7.72968500002753,8.379440000047907,8.963695000042208,9.586265000049025,10.164505000051577,10.742205000016838,11.353540000040084,11.939835000026505]",space,0.528995,0.0,5.0,5.0,23.0,1.0,,,
,,,,,,,,,,,block_2/none_t_72_4.wav,timbre,t,none,72.0,1.053800106,24.75334659,,,yes,"apple earbuds, wired",1,no,F,29,R,yes,1,2020-11-04_17h32.29.185,kura-A2,2020.1.2,MacIntel,60,,,,,,,,,,,,,,"[""space"",""space"",""space"",""space"",""space"",""space"",""space""]","[8.665174999972805,9.22361499996623,9.993004999996629,10.68423499999335,11.384314999973867,12.04075499996543,14.520309999992605]",space,1.33708,0.0,6.0,6.0,15.0,1.0,,,
,,,,,,,,,,,block_2/strong_t_92_3.wav,timbre,t,strong,92.0,2.058598996,15.10526566,,,yes,"apple earbuds, wired",1,no,F,29,R,yes,1,2020-11-04_17h32.29.185,kura-A2,2020.1.2,MacIntel,60,,,,,,,,,,,,,,"[""space"",""space"",""space"",""space"",""space"",""space"",""space"",""space"",""space"",""space"",""space"",""space"",""space"",""space"",""space"",""space"",""space"",""space"",""space""]","[1.1950250000227243,1.8765049999929033,2.5605600000126287,3.179385000024922,3.9139650000142865,4.582540000032168,5.272900000039954,5.928245000017341,6.549655000038911,7.208415000000969,7.919270000013057,8.606350000016391,9.226339999993797,9.910635000036564,10.550250000029337,11.166320000018459,11.828495000023395,12.591795000014827,13.292095000040717]",space,1.21698,0.0,7.0,7.0,3.0,1.0,,,
,,,,,,,,,,,block_2/weak_t_92_4.wav,timbre,t,weak,92.0,2.338363624,13.8208126,,,yes,"apple earbuds, wired",1,no,F,29,R,yes,1,2020-11-04_17h32.29.185,kura-A2,2020.1.2,MacIntel,60,,,,,,,,,,,,,,"[""space"",""space"",""space"",""space"",""space"",""space"",""space"",""space"",""space"",""space"",""space"",""space"",""space"",""space"",""space"",""space"",""space"",""space"",""space""]","[1.3106350000016391,1.8275599999469705,2.37166000000434,2.927724999957718,3.5127249999786727,4.087644999963231,4.690349999989849,5.262409999966621,5.854720000002999,6.431274999980815,7.028624999977183,7.590444999979809,8.183449999953154,8.77756999997655,9.371364999969956,9.968399999954272,10.544194999965839,11.078539999958593,11.699159999960102]",space,0.9997,0.0,8.0,8.0,29.0,1.0,,,
,,,,,,,,,,,block_2/strong_t_105_4.wav,timbre,t,strong,105.0,1.910106179,12.02788396,,,yes,"apple earbuds, wired",1,no,F,29,R,yes,1,2020-11-04_17h32.29.185,kura-A2,2020.1.2,MacIntel,60,,,,,,,,,,,,,,"[""space"",""space"",""space"",""space"",""space"",""space"",""space"",""space"",""space"",""space"",""space"",""space"",""space"",""space"",""space"",""space"",""space"",""space"",""space"",""space""]","[0.8902899999520741,1.2864349999581464,1.7746449999976903,2.2860099999816157,2.796685000008438,3.272274999995716,3.767489999998361,4.266179999976885,4.755124999966938,5.2566599999554455,5.736819999990985,6.2291199999745,6.773419999983162,7.265094999980647,7.757354999950621,8.248349999950733,8.777579999994487,9.271269999968354,9.80714499996975,10.32366999995429]",space,4.4912,0.0,9.0,9.0,18.0,1.0,,,
,,,,,,,,,,,block_2/weak_t_119_4.wav,timbre,t,weak,119.0,2.497661912,13.1066415,,,yes,"apple earbuds, wired",1,no,F,29,R,yes,1,2020-11-04_17h32.29.185,kura-A2,2020.1.2,MacIntel,60,,,,,,,,,,,,,,"[""space"",""space"",""space"",""space"",""space"",""space"",""space"",""space"",""space"",""space""]","[0.6645000000135042,1.0211100000306033,6.5301750000217,7.013414999993984,7.618450000009034,8.135970000002999,8.668370000028517,9.412914999993518,9.982569999992847,10.471699999994598]",space,0.398685,0.0,10.0,10.0,11.0,1.0,,,
,,,,,,,,,,,block_2/none_t_119_3.wav,timbre,t,none,119.0,1.207484261,12.32644118,,,yes,"apple earbuds, wired",1,no,F,29,R,yes,1,2020-11-04_17h32.29.185,kura-A2,2020.1.2,MacIntel,60,,,,,,,,,,,,,,"[""space""]",[11.804814999981318],space,0.696855,0.0,11.0,11.0,32.0,1.0,,,
,,,,,,,,,,,block_2/none_t_81_4.wav,timbre,t,none,81.0,1.883383873,17.9242909,,,yes,"apple earbuds, wired",1,no,F,29,R,yes,1,2020-11-04_17h32.29.185,kura-A2,2020.1.2,MacIntel,60,,,,,,,,,,,,,,"[""space"",""space"",""space"",""space"",""space"",""space"",""space"",""space"",""space"",""space"",""space"",""space"",""space"",""space"",""space""]","[2.289244999992661,2.902025000017602,3.653219999978319,4.304255000024568,5.034564999979921,6.56222500000149,7.2168149999924935,7.9022600000025705,8.619155000022147,9.55519500002265,10.28297499998007,10.965774999989662,12.57892499997979,13.970985000021756,16.177184999978635]",space,0.59556,0.0,12.0,12.0,12.0,1.0,,,
,,,,,,,,,,,block_2/none_t_92_3.wav,timbre,t,none,92.0,1.328085357,13.39815338,,,yes,"apple earbuds, wired",1,no,F,29,R,yes,1,2020-11-04_17h32.29.185,kura-A2,2020.1.2,MacIntel,60,,,,,,,,,,,,,,"[""space"",""space"",""space"",""space"",""space"",""space"",""space"",""space"",""space"",""space"",""space"",""space"",""space"",""space"",""space"",""space"",""space""]","[0.5828650000039488,1.1832799999974668,1.6858150000334717,2.4065300000365824,3.201694999996107,3.885275000007823,4.538334999990184,5.219900000025518,5.829415000043809,6.773190000036266,7.611115000036079,8.175005000026431,8.698350000020582,9.241385000001173,9.931870000029448,10.286010000039823,11.189205000002403]",space,1.035615,0.0,13.0,13.0,17.0,1.0,,,
,,,,,,,,,,,block_2/weak_t_119_3.wav,timbre,t,weak,119.0,2.134308914,11.54587354,,,yes,"apple earbuds, wired",1,no,F,29,R,yes,1,2020-11-04_17h32.29.185,kura-A2,2020.1.2,MacIntel,60,,,,,,,,,,,,,,"[""space"",""space"",""space"",""space"",""space"",""space"",""space"",""space"",""space"",""space"",""space"",""space"",""space"",""space"",""space""]","[0.7416400000220165,1.2494900000165217,1.8017349999863654,2.3614650000235997,2.7675300000119023,3.476414999982808,5.10531000001356,5.765675000031479,6.910595000023022,7.327430000004824,7.7650850000209175,8.184624999994412,8.681540000019595,9.155254999990575,9.615400000009686]",space,0.87972,0.0,14.0,14.0,13.0,1.0,,,
,,,,,,,,,,,block_2/none_t_119_4.wav,timbre,t,none,119.0,2.16972576,11.23222009,,,yes,"apple earbuds, wired",1,no,F,29,R,yes,1,2020-11-04_17h32.29.185,kura-A2,2020.1.2,MacIntel,60,,,,,,,,,,,,,,,,space,0.641125,0.0,15.0,15.0,27.0,1.0,,,
,,,,,,,,,,,block_2/weak_t_105_3.wav,timbre,t,weak,105.0,1.911505731,13.14248079,,,yes,"apple earbuds, wired",1,no,F,29,R,yes,1,2020-11-04_17h32.29.185,kura-A2,2020.1.2,MacIntel,60,,,,,,,,,,,,,,"[""space"",""space"",""space"",""space"",""space"",""space"",""space"",""space"",""space"",""space"",""space"",""space"",""space"",""space"",""space""]","[3.124599999981001,3.637170000001788,4.177429999981541,4.635270000027958,5.204855000018142,5.746289999980945,6.335919999983162,6.939929999993183,7.6063950000097975,8.132190000033006,8.692860000010114,9.296795000031125,9.79742499999702,10.367499999993015,10.961874999979045]",space,0.477985,0.0,16.0,16.0,4.0,1.0,,,
,,,,,,,,,,,block_2/medium_t_81_3.wav,timbre,t,medium,81.0,1.280563259,13.87394194,,,yes,"apple earbuds, wired",1,no,F,29,R,yes,1,2020-11-04_17h32.29.185,kura-A2,2020.1.2,MacIntel,60,,,,,,,,,,,,,,"[""space"",""space"",""space"",""space"",""space"",""space"",""space"",""space"",""space"",""space"",""space"",""space"",""space"",""space"",""space"",""space"",""space"",""space"",""space"",""space""]","[0.5915950000053272,1.1431100000045262,1.7963849999941885,2.4852850000024773,3.185555000032764,3.822280000022147,4.486480000021402,5.146435000002384,5.7887099999934435,6.437880000041332,7.116850000049453,7.824615000048652,8.375930000038352,9.012655000027735,9.590820000041276,10.233460000017658,10.89110000000801,11.55960000003688,12.150095000048168,12.795110000006389]",space,0.62398,0.0,17.0,17.0,8.0,1.0,,,
,,,,,,,,,,,block_2/weak_t_81_4.wav,timbre,t,weak,81.0,1.138387897,14.33417021,,,yes,"apple earbuds, wired",1,no,F,29,R,yes,1,2020-11-04_17h32.29.185,kura-A2,2020.1.2,MacIntel,60,,,,,,,,,,,,,,"[""space"",""space"",""space"",""space"",""space"",""space"",""space"",""space"",""space"",""space"",""space"",""space"",""space"",""space"",""space"",""space"",""space"",""space"",""space"",""space""]","[0.7866999999969266,1.4356949999928474,2.1084399999817833,2.7088050000020303,3.404515000001993,3.9956249999813735,4.627984999970067,5.328794999979436,5.986769999959506,6.662904999975581,7.354185000003781,8.057834999985062,8.7521499999566,9.386684999975841,10.108239999972284,10.799569999973755,11.451360000006389,12.192044999974314,12.790609999967273,13.398034999961965]",space,1.183195,0.0,18.0,18.0,0.0,1.0,,,
,,,,,,,,,,,block_2/medium_t_72_4.wav,timbre,t,medium,72.0,1.912133969,19.94959429,,,yes,"apple earbuds, wired",1,no,F,29,R,yes,1,2020-11-04_17h32.29.185,kura-A2,2020.1.2,MacIntel,60,,,,,,,,,,,,,,"[""space"",""space"",""space"",""space"",""space"",""space"",""space"",""space"",""space"",""space"",""space"",""space"",""space"",""space"",""space"",""space"",""space"",""space""]","[3.2061349999858066,4.059944999986328,4.88456999999471,5.81773000000976,6.647445000009611,7.580955000012182,8.435065000026952,9.31738999998197,10.305394999973942,11.172605000028852,12.066935000009835,13.023764999990817,13.857955000014044,14.777490000007674,15.696570000029169,16.58440500003053,17.520484999986365,18.386370000021998]",space,0.54492,0.0,19.0,19.0,36.0,1.0,,,
,,,,,,,,,,,block_2/medium_t_119_4.wav,timbre,t,medium,119.0,2.1713947,11.99221103,,,yes,"apple earbuds, wired",1,no,F,29,R,yes,1,2020-11-04_17h32.29.185,kura-A2,2020.1.2,MacIntel,60,,,,,,,,,,,,,,"[""space"",""space"",""space"",""space"",""space"",""space"",""space"",""space"",""space"",""space"",""space"",""space"",""space"",""space"",""space"",""space"",""space""]","[1.9748900000122376,2.4243650000425987,2.9574349999893457,3.3857200000202283,3.8944350000238046,4.344380000024103,4.83146499999566,5.3132949999999255,5.830175000010058,6.3499099999899045,6.807009999989532,7.320125000027474,7.817154999997001,8.378179999999702,8.901134999992792,9.450095000036526,9.973890000022948]",space,0.526235,0.0,20.0,20.0,30.0,1.0,,,
,,,,,,,,,,,block_2/none_t_105_3.wav,timbre,t,none,105.0,1.906849656,15.72757528,,,yes,"apple earbuds, wired",1,no,F,29,R,yes,1,2020-11-04_17h32.29.185,kura-A2,2020.1.2,MacIntel,60,,,,,,,,,,,,,,"[""space"",""space"",""space"",""space"",""space"",""space"",""space"",""space"",""space"",""space"",""space"",""space"",""space"",""space"",""space"",""space"",""space"",""space"",""space"",""space"",""space"",""space"",""space""]","[0.6161049999645911,1.3238150000106543,1.9304249999695458,2.8224649999756366,3.252489999984391,3.7131049999734387,4.166109999991022,4.696835000009742,5.304394999984652,5.925424999964889,6.5047299999860115,7.061694999982137,7.612569999997504,8.129765000019688,8.69779499998549,9.198274999973364,9.748704999976326,10.270269999979064,10.831854999996722,11.381965000007767,11.96571000001859,12.54425999999512,13.743964999972377]",space,0.71081,0.0,21.0,21.0,14.0,1.0,,,
,,,,,,,,,,,block_2/medium_t_92_3.wav,timbre,t,medium,92.0,1.388240232,13.37372776,,,yes,"apple earbuds, wired",1,no,F,29,R,yes,1,2020-11-04_17h32.29.185,kura-A2,2020.1.2,MacIntel,60,,,,,,,,,,,,,,"[""space"",""space"",""space"",""space"",""space"",""space"",""space"",""space"",""space"",""space"",""space"",""space"",""space"",""space"",""space"",""space"",""space"",""space"",""space"",""space""]","[0.6380200000130571,1.301175000029616,1.9417000000248663,2.4793599999975413,3.075170000025537,3.695385000028182,4.325769999995828,4.913249999983236,5.493925000017043,6.0650449999957345,6.690545000019483,7.337720000010449,7.951865000010002,8.518740000028629,9.16323000000557,9.783419999992475,10.391535000002477,10.96603499999037,11.549720000009984,12.191694999986794]",space,0.56616,0.0,22.0,22.0,35.0,1.0,,,
,,,,,,,,,,,block_2/strong_t_81_3.wav,timbre,t,strong,81.0,1.276002308,16.49137646,,,yes,"apple earbuds, wired",1,no,F,29,R,yes,1,2020-11-04_17h32.29.185,kura-A2,2020.1.2,MacIntel,60,,,,,,,,,,,,,,"[""space"",""space"",""space"",""space"",""space"",""space"",""space"",""space"",""space"",""space"",""space"",""space"",""space"",""space"",""space"",""space"",""space"",""space"",""space""]","[1.6118249999708496,2.269444999983534,2.9946299999719486,3.7765249999938533,4.532064999977592,5.315909999946598,6.150604999973439,6.874804999970365,7.581214999954682,8.36840499995742,9.136179999972228,9.86431499995524,10.606794999970589,11.393134999962058,12.192734999989625,12.996244999987539,13.83219999994617,14.721049999992829,15.380394999985583]",space,0.907265,0.0,23.0,23.0,24.0,1.0,,,
,,,,,,,,,,,block_2/none_t_81_3.wav,timbre,t,none,81.0,2.3234515,21.58667145,,,yes,"apple earbuds, wired",1,no,F,29,R,yes,1,2020-11-04_17h32.29.185,kura-A2,2020.1.2,MacIntel,60,,,,,,,,,,,,,,"[""space"",""space"",""space"",""space"",""space"",""space"",""space"",""space"",""space"",""space"",""space"",""space"",""space""]","[0.8336999999592081,2.4730949999648146,3.6708900000085123,4.746289999980945,6.247369999997318,8.089284999994561,8.397074999986216,9.014024999982212,9.336450000002515,9.987150000000838,10.234909999999218,11.127269999997225,11.332974999968428]",space,0.51594,0.0,24.0,24.0,10.0,1.0,,,
,,,,,,,,,,,block_2/strong_t_92_4.wav,timbre,t,strong,92.0,1.817525361,14.05856845,,,yes,"apple earbuds, wired",1,no,F,29,R,yes,1,2020-11-04_17h32.29.185,kura-A2,2020.1.2,MacIntel,60,,,,,,,,,,,,,,"[""space"",""space"",""space"",""space"",""space"",""space"",""space"",""space"",""space"",""space"",""space"",""space"",""space"",""space"",""space"",""space"",""space"",""space"",""space""]","[1.0171400000108406,1.669019999972079,2.2637400000239722,2.877730000007432,3.484439999971073,4.118650000018533,4.776399999973364,5.3605850000167266,5.973929999978282,6.60087999998359,7.330320000008214,8.012445000000298,8.662989999982528,9.250370000023395,9.86433999997098,10.433414999977686,11.158545000012964,11.811815000022762,12.492335000017192]",space,0.86332,0.0,25.0,25.0,9.0,1.0,,,
,,,,,,,,,,,block_2/strong_t_72_3.wav,timbre,t,strong,72.0,1.757165856,18.23458082,,,yes,"apple earbuds, wired",1,no,F,29,R,yes,1,2020-11-04_17h32.29.185,kura-A2,2020.1.2,MacIntel,60,,,,,,,,,,,,,,"[""space"",""space"",""space"",""space"",""space"",""space"",""space"",""space"",""space"",""space"",""space"",""space"",""space"",""space"",""space"",""space"",""space"",""space"",""space"",""space""]","[0.6583550000214018,1.6332249999977648,2.4886200000182725,3.346635000023525,4.226900000008754,5.110270000004675,5.9034499999834225,6.6800749999820255,7.480160000035539,8.347185000020545,9.210475000028964,10.045595000032336,10.854530000011437,11.733705000020564,12.548944999987725,13.396215000015218,14.27698500000406,15.213285000005271,16.01214499998605,16.869675000023562]",space,1.783625,0.0,26.0,26.0,5.0,1.0,,,
,,,,,,,,,,,block_2/strong_t_119_4.wav,timbre,t,strong,119.0,1.529717424,11.39760858,,,yes,"apple earbuds, wired",1,no,F,29,R,yes,1,2020-11-04_17h32.29.185,kura-A2,2020.1.2,MacIntel,60,,,,,,,,,,,,,,"[""space"",""space"",""space"",""space"",""space"",""space"",""space"",""space"",""space"",""space"",""space"",""space"",""space"",""space"",""space"",""space"",""space"",""space"",""space""]","[0.7012600000016391,1.4483650000183843,1.9831899999990128,2.50912000000244,2.9871550000389107,3.445750000013504,3.9800150000373833,4.496420000039507,4.998400000040419,5.480065000010654,5.998245000024326,6.509680000017397,7.063094999990426,7.547360000025947,8.003380000009201,8.49269500002265,8.986459999985527,9.534285000001546,10.049954999994952]",space,0.642815,0.0,27.0,27.0,39.0,1.0,,,
,,,,,,,,,,,block_2/weak_t_81_3.wav,timbre,t,weak,81.0,1.745235196,18.01484971,,,yes,"apple earbuds, wired",1,no,F,29,R,yes,1,2020-11-04_17h32.29.185,kura-A2,2020.1.2,MacIntel,60,,,,,,,,,,,,,,"[""space"",""space"",""space"",""space"",""space"",""space"",""space"",""space"",""space"",""space"",""space"",""space"",""space"",""space"",""space"",""space"",""space"",""space""]","[2.0511350000160746,2.7597899999818765,3.442559999995865,4.411695000017062,5.364929999981541,6.204344999976456,6.8791199999977835,7.821470000024419,8.690875000029337,9.447489999991376,10.149649999977555,10.978639999986626,11.74057999998331,12.523135000024922,13.29635000001872,14.199569999997038,15.026209999981802,15.82007999997586]",space,1.000805,0.0,28.0,28.0,6.0,1.0,,,
,,,,,,,,,,,block_2/medium_t_81_4.wav,timbre,t,medium,81.0,2.313262111,15.10881767,,,yes,"apple earbuds, wired",1,no,F,29,R,yes,1,2020-11-04_17h32.29.185,kura-A2,2020.1.2,MacIntel,60,,,,,,,,,,,,,,"[""space"",""space"",""space"",""space"",""space"",""space"",""space"",""space"",""space"",""space"",""space"",""space"",""space"",""space"",""space"",""space"",""space"",""space""]","[1.1334100000094622,2.067540000018198,3.1875,3.8019900000072084,4.379670000053011,5.040930000017397,5.705130000016652,6.35496000002604,7.026685000048019,7.723475000006147,8.41945000004489,9.073755000019446,9.640140000032261,10.292730000044685,10.933715000050142,11.582070000004023,12.182320000021718,12.869600000034552]",space,0.40054,0.0,29.0,29.0,2.0,1.0,,,
,,,,,,,,,,,block_2/medium_t_92_4.wav,timbre,t,medium,92.0,1.599417172,14.59601581,,,yes,"apple earbuds, wired",1,no,F,29,R,yes,1,2020-11-04_17h32.29.185,kura-A2,2020.1.2,MacIntel,60,,,,,,,,,,,,,,"[""space"",""space"",""space"",""space"",""space"",""space"",""space"",""space"",""space"",""space"",""space"",""space"",""space"",""space"",""space"",""space"",""space"",""space"",""space"",""space""]","[0.6605599999893457,1.2085599999991246,1.8445749999955297,2.565854999993462,3.3429749999777414,3.893205000029411,4.632660000002943,5.33308000001125,5.9506299999775365,6.664655000029597,7.2635299999965355,7.863294999988284,8.647865000006277,9.272475000005215,9.94118000002345,10.550479999976233,11.274685000011232,11.945330000016838,12.67404000001261,13.250255000020843]",space,0.51713,0.0,30.0,30.0,25.0,1.0,,,
,,,,,,,,,,,block_2/strong_t_81_4.wav,timbre,t,strong,81.0,1.059530738,15.41717246,,,yes,"apple earbuds, wired",1,no,F,29,R,yes,1,2020-11-04_17h32.29.185,kura-A2,2020.1.2,MacIntel,60,,,,,,,,,,,,,,"[""space"",""space"",""space"",""space"",""space"",""space"",""space"",""space"",""space"",""space"",""space"",""space"",""space"",""space"",""space"",""space"",""space"",""space"",""space"",""space""]","[0.745824999990873,1.557730000000447,2.318599999998696,3.0085700000054203,3.7253550000023097,4.330205000005662,5.088485000014771,5.881554999970831,6.650945000001229,7.421120000013616,8.136995000008028,8.87348499998916,9.583799999963958,10.27571999997599,11.019499999994878,11.789339999959338,12.550894999993034,13.236184999987017,13.947449999977835,14.671314999985043]",space,0.660815,0.0,31.0,31.0,34.0,1.0,,,
,,,,,,,,,,,block_2/none_t_92_4.wav,timbre,t,none,92.0,1.414044957,16.25508804,,,yes,"apple earbuds, wired",1,no,F,29,R,yes,1,2020-11-04_17h32.29.185,kura-A2,2020.1.2,MacIntel,60,,,,,,,,,,,,,,"[""space"",""space"",""space"",""space"",""space"",""space"",""space"",""space"",""space"",""space"",""space"",""space"",""space"",""space"",""space""]","[3.3024250000016764,4.095224999997299,4.724510000029113,5.3434049999923445,5.965835000039078,6.729890000016894,7.474174999981187,8.148675000004005,9.856024999986403,10.628729999996722,11.584765000035986,12.161735000030603,12.582945000031032,13.124010000028647,14.375400000018999]",space,0.765265,0.0,32.0,32.0,22.0,1.0,,,
,,,,,,,,,,,block_2/medium_t_105_3.wav,timbre,t,medium,105.0,1.319167427,12.09599282,,,yes,"apple earbuds, wired",1,no,F,29,R,yes,1,2020-11-04_17h32.29.185,kura-A2,2020.1.2,MacIntel,60,,,,,,,,,,,,,,"[""space"",""space"",""space"",""space"",""space"",""space"",""space"",""space"",""space"",""space"",""space"",""space"",""space"",""space"",""space"",""space"",""space"",""space"",""space""]","[1.0208700000075623,1.5920550000155345,2.1330500000040047,2.6795600000186823,3.23003500001505,3.813270000042394,4.35964999999851,5.068895000033081,5.487290000019129,6.023040000000037,6.594570000015665,7.1517900000326335,7.7497500000172295,8.283235000038985,8.80709499999648,9.36832000000868,9.895004999998491,10.41711000003852,10.98845500004245]",space,0.38813,0.0,33.0,33.0,16.0,1.0,,,
,,,,,,,,,,,block_2/strong_t_119_3.wav,timbre,t,strong,119.0,2.177542179,13.00520658,,,yes,"apple earbuds, wired",1,no,F,29,R,yes,1,2020-11-04_17h32.29.185,kura-A2,2020.1.2,MacIntel,60,,,,,,,,,,,,,,"[""space"",""space"",""space"",""space"",""space"",""space"",""space"",""space"",""space"",""space"",""space"",""space"",""space"",""space"",""space"",""space"",""space"",""space"",""space""]","[0.970885000017006,1.517504999996163,2.0696699999971315,2.613550000009127,3.1648799999966286,3.7354050000431016,4.258655000012368,4.80454500002088,5.345775000052527,5.87978000001749,6.417715000046883,7.029115000041202,7.622625000018161,8.190050000033807,8.735030000039842,9.305870000040159,9.870615000021644,10.441390000050887,10.986200000043027]",space,0.55234,0.0,34.0,34.0,28.0,1.0,,,
,,,,,,,,,,,block_2/weak_t_72_3.wav,timbre,t,weak,72.0,1.543417886,17.01208002,,,yes,"apple earbuds, wired",1,no,F,29,R,yes,1,2020-11-04_17h32.29.185,kura-A2,2020.1.2,MacIntel,60,,,,,,,,,,,,,,"[""space"",""space"",""space"",""space"",""space"",""space"",""space"",""space"",""space"",""space"",""space"",""space"",""space"",""space"",""space"",""space"",""space"",""space"",""space""]","[1.4408699999912642,2.191225000016857,3.001929999969434,3.817704999994021,4.66148000000976,5.371270000003278,6.110144999984186,6.911934999981895,7.682320000021718,8.497789999993984,9.326245000003837,10.079395000007935,10.960115000023507,11.764960000000428,12.566204999980982,13.342104999988806,14.102350000001024,14.838129999989178,15.61082499998156]",space,3.499795,0.0,35.0,35.0,26.0,1.0,,,
,,,,,,,,,,,block_2/medium_t_119_3.wav,timbre,t,medium,119.0,1.894752713,10.65330147,,,yes,"apple earbuds, wired",1,no,F,29,R,yes,1,2020-11-04_17h32.29.185,kura-A2,2020.1.2,MacIntel,60,,,,,,,,,,,,,,"[""space"",""space"",""space"",""space"",""space"",""space"",""space"",""space"",""space"",""space"",""space"",""space"",""space"",""space"",""space"",""space"",""space"",""space"",""space""]","[0.6027649999596179,1.2625999999581836,1.7241250000079162,2.135810000007041,2.6049899999634363,3.032299999962561,3.4737350000068545,3.886934999958612,4.35610999999335,4.837759999965783,5.346544999978505,5.80517999996664,6.232614999986254,6.744199999957345,7.152375000005122,7.6452449999633245,8.042495000001509,8.481670000008307,8.948609999963082]",space,0.71966,0.0,36.0,36.0,37.0,1.0,,,
,,,,,,,,,,,block_2/strong_t_72_4.wav,timbre,t,strong,72.0,1.957123463,17.07435702,,,yes,"apple earbuds, wired",1,no,F,29,R,yes,1,2020-11-04_17h32.29.185,kura-A2,2020.1.2,MacIntel,60,,,,,,,,,,,,,,"[""space"",""space"",""space"",""space"",""space"",""space"",""space"",""space"",""space"",""space"",""space"",""space"",""space"",""space"",""space"",""space"",""space"",""space"",""space""]","[1.2048750000540167,2.0460400000447407,2.841535000014119,3.682225000055041,4.44843500002753,5.195190000056755,6.030170000041835,7.197155000001658,7.64658000000054,8.418540000042412,9.165750000043772,9.966820000030566,10.757270000001881,11.560990000027232,12.293475000013132,12.967920000024606,13.751245000050403,14.450795000011567,15.268009999999776]",space,0.66841,0.0,37.0,37.0,1.0,1.0,,,
,,,,,,,,,,,block_2/strong_t_105_3.wav,timbre,t,strong,105.0,1.973938856,13.50654657,,,yes,"apple earbuds, wired",1,no,F,29,R,yes,1,2020-11-04_17h32.29.185,kura-A2,2020.1.2,MacIntel,60,,,,,,,,,,,,,,"[""space"",""space"",""space"",""space"",""space"",""space"",""space"",""space"",""space"",""space"",""space"",""space"",""space"",""space"",""space"",""space"",""space"",""space"",""space""]","[0.6419750000350177,1.1802500000339933,1.7260100000421517,2.327065000019502,2.9198400000459515,3.5387750000227243,4.0787750000017695,4.656435000011697,5.3188800000352785,5.905135000008158,6.395775000040885,7.0464450000436045,7.609480000042822,8.805150000029244,9.426445000048261,10.0208800000255,10.604440000024624,11.18470000004163,11.788725000049453]",space,0.44123,0.0,38.0,38.0,21.0,1.0,,,
,,,,,,,,,,,block_2/weak_t_92_3.wav,timbre,t,weak,92.0,1.995389518,17.35720358,,,yes,"apple earbuds, wired",1,no,F,29,R,yes,1,2020-11-04_17h32.29.185,kura-A2,2020.1.2,MacIntel,60,,,,,,,,,,,,,,"[""space"",""space"",""space"",""space"",""space"",""space"",""space"",""space"",""space"",""space"",""space"",""space"",""space"",""space"",""space"",""space"",""space"",""space"",""space"",""space""]","[0.7215149999829009,1.5139649999910034,2.3009650000021793,3.0901900000171736,3.9770100000314415,4.721934999979567,5.6590350000187755,6.346299999975599,7.197564999980386,7.912850000022445,8.657479999994393,9.385349999996834,10.167179999989457,11.018564999976661,11.752289999974892,12.592579999996815,13.438454999995884,14.097230000013951,14.860755000030622,16.155589999980293]",space,0.43073,0.0,39.0,39.0,38.0,1.0,,,
,,,,,,,,,,,,,,,,,,,,yes,"apple earbuds, wired",1,no,F,29,R,yes,1,2020-11-04_17h32.29.185,kura-A2,2020.1.2,MacIntel,60,,,,,,,,,,,,,,,,,,,,,,,space,40.41217,
