key_resp.keys,key_resp.rt,practice_taps.keys,practice_taps.rt,keyresp.keys,keyresp.rt,practice_stims_loop.thisRepN,practice_stims_loop.thisTrialN,practice_stims_loop.thisN,practice_stims_loop.thisIndex,practice_stims_loop.ran,sndfile,type,tempo,cond,version,delay,dur,Participant Initials,"If you are a MTurk worker, what is your MTurk worker ID?","If you are not an MTurk worker, please provide your email address",Are you wearing headphones?,What are the headphone make and model?,"How many years of musical training, if any, do you have?",Do you have any hearing problems? Please describe,What is your sex (f/m/decline)?,What is your age?,What is your handedness (R/L/ambi)?,Are you currently in a secure and quiet room without a possible interruption?,session ,date,expName,psychopyVersion,OS,frameRate,instructions_prompt.keys,instructions_prompt.rt,block1_taps.keys,block1_taps.rt,key_resp_2.keys,key_resp_2.rt,trials.thisRepN,trials.thisTrialN,trials.thisN,trials.thisIndex,trials.ran,key_resp2.keys,key_resp2.rt,block2_taps.keys,block2_taps.rt,key_resp_3.keys,key_resp_3.rt,trials_2.thisRepN,trials_2.thisTrialN,trials_2.thisN,trials_2.thisIndex,trials_2.ran,key_resp_4.keys,key_resp_4.rt
space,28.396205,"[""space"",""space"",""space"",""space"",""space"",""space"",""space"",""space"",""space"",""space"",""space"",""space""]","[3.716115000002901,4.047355000002426,4.440705000000889,4.869425000011688,5.315610000005108,5.730880000002799,6.2026500000065425,6.651265000007697,7.0971300000092015,7.558845000006841,7.998890000002575,8.432955000011134]",space,25.66595,0.0,0.0,0.0,1.0,1.0,block_2/medium_n_119_4.wav,no,n,medium,119.0,1.224634286,9.531709116,,,,yes,"Turtle beach, Ear Force Recon 50x Over-the-Ear Wired Gaming Headset",0,No,m,30,R,Yes,1,2020-09-07_12h08.36.208,kura-B2,2020.1.2,MacIntel,60,,,,,,,,,,,,,,,,,,,,,,,,
,,"[""space"",""space"",""space"",""space"",""space"",""space"",""space"",""space"",""space"",""space"",""space"",""space"",""space"",""space"",""space"",""space"",""space"",""space""]","[2.10553999998956,2.571364999996149,3.0395250000001397,3.5010649999894667,3.9515449999889825,4.4032549999974435,4.817319999987376,5.249219999997877,5.735354999997071,6.192360000000917,6.649244999993243,7.084349999990081,7.515094999995199,7.967214999996941,8.390639999997802,8.848744999995688,9.326524999996764,9.842379999987315]",space,1.00079,0.0,1.0,1.0,3.0,1.0,block_1/medium_t_119_4.wav,timbre,t,medium,119.0,1.752316959,11.57313329,,,,yes,"Turtle beach, Ear Force Recon 50x Over-the-Ear Wired Gaming Headset",0,No,m,30,R,Yes,1,2020-09-07_12h08.36.208,kura-B2,2020.1.2,MacIntel,60,,,,,,,,,,,,,,,,,,,,,,,,
,,"[""space"",""space"",""space"",""space"",""space"",""space"",""space"",""space"",""space"",""space"",""space"",""space"",""space"",""space"",""space"",""space"",""space"",""space""]","[1.973519999999553,2.4428350000089267,3.0337300000101095,3.582120000006398,4.150680000006105,4.6847300000081304,5.2441950000065845,5.755975000007311,6.271765000012238,6.772590000007767,7.289795000004233,7.815405000001192,8.351175000003423,8.883679999999003,9.392795000007027,9.949940000005881,10.470370000010007,10.949700000011944]",space,1.50122,0.0,2.0,2.0,2.0,1.0,block_2/weak_n_105_4.wav,no,n,weak,105.0,1.982674472,12.75578105,,,,yes,"Turtle beach, Ear Force Recon 50x Over-the-Ear Wired Gaming Headset",0,No,m,30,R,Yes,1,2020-09-07_12h08.36.208,kura-B2,2020.1.2,MacIntel,60,,,,,,,,,,,,,,,,,,,,,,,,
,,"[""space"",""space"",""space"",""space"",""space"",""space"",""space"",""space"",""space"",""space"",""space"",""space"",""space"",""space"",""space"",""space"",""space"",""space"",""space"",""space"",""space"",""space"",""space"",""space"",""space"",""space"",""space"",""space"",""space"",""space"",""space"",""space"",""space"",""space"",""space"",""space"",""space"",""space"",""space""]","[1.9035650000005262,2.1511549999995623,2.4700149999989662,2.8719100000016624,3.260260000010021,3.6371950000029756,4.010580000001937,4.403239999999641,4.807415000002948,5.154145000007702,5.534610000002431,5.940700000006473,6.34023500001058,6.702990000005229,7.088510000001406,7.469490000003134,7.8629000000073574,8.2346899999975,8.624720000007073,8.995049999997718,9.377995000002556,9.769664999999804,10.1527700000006,10.523765000005369,10.91087000000698,11.284400000004098,11.688865000003716,12.085015000004205,12.486860000004526,12.872595000008005,13.271240000001853,13.67126499999722,14.036675000010291,14.43705000000773,14.834530000007362,15.271115000010468,15.639280000003055,16.004905000008876,16.50626999999804]",space,1.341905,0.0,3.0,3.0,0.0,1.0,block_2/none_n_92_3.wav,no,n,none,92.0,2.306164339,18.20620969,,,,yes,"Turtle beach, Ear Force Recon 50x Over-the-Ear Wired Gaming Headset",0,No,m,30,R,Yes,1,2020-09-07_12h08.36.208,kura-B2,2020.1.2,MacIntel,60,,,,,,,,,,,,,,,,,,,,,,,,
,,,,,,,,,,,block_1/strong_t_119_3.wav,timbre,t,strong,119.0,1.722630655,12.55029505,,,,yes,"Turtle beach, Ear Force Recon 50x Over-the-Ear Wired Gaming Headset",0,No,m,30,R,Yes,1,2020-09-07_12h08.36.208,kura-B2,2020.1.2,MacIntel,60,space,5.0711,"[""space"",""space"",""space"",""space"",""space"",""space"",""space"",""space"",""space"",""space"",""space"",""space"",""space"",""space"",""space"",""space"",""space"",""space""]","[1.5584749999979977,2.1166250000096625,2.7026949999999488,3.2570400000113295,3.793440000008559,4.360744999998133,4.923510000007809,5.46741500000644,6.027135000011185,6.589370000001509,7.149140000008629,7.7201550000027055,8.290984999999637,8.817764999999781,9.382454999999027,9.920930000007502,10.477645000006305,11.057285000002594]",space,0.693555,0.0,0.0,0.0,28.0,1.0,,,,,,,,,,,,,
,,,,,,,,,,,block_1/weak_t_105_3.wav,timbre,t,weak,105.0,2.038080476,13.26905553,,,,yes,"Turtle beach, Ear Force Recon 50x Over-the-Ear Wired Gaming Headset",0,No,m,30,R,Yes,1,2020-09-07_12h08.36.208,kura-B2,2020.1.2,MacIntel,60,,,"[""space"",""space"",""space"",""space"",""space"",""space"",""space"",""space"",""space"",""space"",""space"",""space"",""space"",""space"",""space"",""space"",""space"",""space"",""space"",""space"",""space"",""space"",""space"",""space"",""space"",""space""]","[1.419225000005099,1.8605999999999767,2.2586000000010245,2.6519200000038836,3.0703250000078697,3.3913400000019465,3.7701100000122096,4.177400000000489,4.551590000002761,4.942650000011781,5.369080000004033,5.75295000000915,6.178395000009914,6.510305000003427,6.9195699999982025,7.340270000000601,7.7558850000059465,8.159270000003744,8.526265000007697,8.937715000007302,9.324030000003404,9.728115000005346,10.144039999999222,10.535410000011325,10.936014999999315,11.306000000011409]",space,0.51166,0.0,1.0,1.0,4.0,1.0,,,,,,,,,,,,,
,,,,,,,,,,,block_1/none_t_105_4.wav,timbre,t,none,105.0,1.782068205,15.59785052,,,,yes,"Turtle beach, Ear Force Recon 50x Over-the-Ear Wired Gaming Headset",0,No,m,30,R,Yes,1,2020-09-07_12h08.36.208,kura-B2,2020.1.2,MacIntel,60,,,"[""space"",""space"",""space"",""space"",""space"",""space"",""space"",""space"",""space"",""space"",""space"",""space"",""space"",""space"",""space"",""space"",""space"",""space"",""space"",""space"",""space"",""space"",""space"",""space"",""space"",""space"",""space"",""space"",""space"",""space""]","[1.2016599999915343,1.725894999995944,2.153424999996787,2.6007399999944028,3.033629999990808,3.4750349999958416,3.9019200000038836,4.35927499999525,4.783165000000736,5.232124999994994,5.69856499999878,6.136679999995977,6.553604999993695,6.9840949999925215,7.370544999997946,7.805905000001076,8.233314999990398,8.683160000000498,9.091404999999213,9.566420000002836,9.968424999999115,10.38272500000312,10.766934999992372,11.208444999996573,11.625430000000051,12.048909999997704,12.483789999998407,12.88515999999072,13.300464999992982,13.702564999999595]",space,0.38726,0.0,2.0,2.0,20.0,1.0,,,,,,,,,,,,,
,,,,,,,,,,,block_1/weak_t_119_3.wav,timbre,t,weak,119.0,1.729530605,11.14109523,,,,yes,"Turtle beach, Ear Force Recon 50x Over-the-Ear Wired Gaming Headset",0,No,m,30,R,Yes,1,2020-09-07_12h08.36.208,kura-B2,2020.1.2,MacIntel,60,,,"[""space"",""space"",""space"",""space"",""space"",""space"",""space"",""space"",""space"",""space"",""space"",""space"",""space"",""space"",""space"",""space"",""space"",""space"",""space"",""space"",""space"",""space"",""space"",""space""]","[0.2555149999971036,0.6940099999919767,1.0558400000008987,1.4678750000020955,1.917170000000624,2.3014449999900535,2.7356650000001537,3.1339999999909196,3.5590099999972153,4.022809999994934,4.4518649999954505,4.84991999999329,5.260769999993499,5.637424999993527,6.100884999992559,6.549659999989672,6.939480000000913,7.356350000001839,7.792419999997946,8.154689999995753,8.63419499999145,9.110480000003008,9.572419999996782,10.501819999990403]",space,2.121725,0.0,3.0,3.0,13.0,1.0,,,,,,,,,,,,,
,,,,,,,,,,,block_1/none_t_119_3.wav,timbre,t,none,119.0,1.169893331,12.28885025,,,,yes,"Turtle beach, Ear Force Recon 50x Over-the-Ear Wired Gaming Headset",0,No,m,30,R,Yes,1,2020-09-07_12h08.36.208,kura-B2,2020.1.2,MacIntel,60,,,"[""space"",""space"",""space"",""space"",""space"",""space"",""space"",""space"",""space"",""space"",""space"",""space"",""space"",""space"",""space"",""space"",""space"",""space"",""space"",""space"",""space"",""space"",""space"",""space"",""space"",""space"",""space"",""space"",""space"",""space"",""space""]","[0.2920400000002701,0.7010350000055041,1.0184050000098068,1.3497999999963213,1.7014849999977741,2.0501950000034412,2.4001050000078976,2.7859650000027614,3.131869999997434,3.474400000006426,3.869940000004135,4.250935000003665,4.637310000005527,5.024460000000545,5.400040000007721,5.787635000000591,6.169070000003558,6.551545000009355,6.917329999996582,7.322650000001886,7.667045000009239,8.037400000001071,8.432509999998729,8.831829999995534,9.20625000000291,9.599775000009686,9.970170000000508,10.332915000006324,10.717310000007274,11.083985000004759,11.567095000005793]",space,0.495605,0.0,4.0,4.0,32.0,1.0,,,,,,,,,,,,,
,,,,,,,,,,,block_1/strong_t_72_3.wav,timbre,t,strong,72.0,1.503157527,17.98057249,,,,yes,"Turtle beach, Ear Force Recon 50x Over-the-Ear Wired Gaming Headset",0,No,m,30,R,Yes,1,2020-09-07_12h08.36.208,kura-B2,2020.1.2,MacIntel,60,,,"[""space"",""space"",""space"",""space"",""space"",""space"",""space"",""space"",""space"",""space"",""space"",""space"",""space"",""space"",""space"",""space"",""space"",""space"",""space"",""space""]","[0.938769999993383,1.8176450000028126,2.601670000003651,3.451115000003483,4.308919999995851,5.117440000001807,5.965259999997215,6.799574999997276,7.650049999996554,8.55116000000271,9.34020999999484,10.18828499999654,11.038289999996778,11.91731499999878,12.699070000002393,13.550875000000815,14.388099999996484,15.23791500000516,16.091534999999567,16.90599499999371]",space,0.70579,0.0,5.0,5.0,5.0,1.0,,,,,,,,,,,,,
,,,,,,,,,,,block_1/weak_t_81_4.wav,timbre,t,weak,81.0,2.31768599,15.5134683,,,,yes,"Turtle beach, Ear Force Recon 50x Over-the-Ear Wired Gaming Headset",0,No,m,30,R,Yes,1,2020-09-07_12h08.36.208,kura-B2,2020.1.2,MacIntel,60,,,"[""space"",""space"",""space"",""space"",""space"",""space"",""space"",""space"",""space"",""space"",""space"",""space"",""space"",""space"",""space"",""space"",""space"",""space"",""space"",""space"",""space"",""space"",""space"",""space"",""space"",""space"",""space"",""space"",""space"",""space""]","[0.43396999999822583,0.7403999999951338,1.1332799999945564,1.5723399999988033,1.9666549999965355,2.3743949999916367,2.8163099999947008,3.267070000001695,3.8483649999980116,4.308850000001257,4.8335299999889685,5.284069999994244,5.801614999989397,6.351049999997485,6.833115000001271,7.325014999994892,7.806874999994761,8.285034999993513,8.766640000001644,9.232724999994389,9.751154999990831,10.221179999993183,10.70023499999661,11.184645000001183,11.606694999994943,12.026604999991832,12.503904999990482,12.966619999991963,13.417539999994915,13.883224999997765]",space,0.55573,0.0,6.0,6.0,0.0,1.0,,,,,,,,,,,,,
,,,,,,,,,,,block_1/strong_t_72_4.wav,timbre,t,strong,72.0,1.194355845,16.3115894,,,,yes,"Turtle beach, Ear Force Recon 50x Over-the-Ear Wired Gaming Headset",0,No,m,30,R,Yes,1,2020-09-07_12h08.36.208,kura-B2,2020.1.2,MacIntel,60,,,"[""space"",""space"",""space"",""space"",""space"",""space"",""space"",""space"",""space"",""space"",""space"",""space"",""space"",""space"",""space"",""space"",""space"",""space"",""space""]","[1.1378200000035577,2.082460000005085,2.9387249999999767,3.7369200000102865,4.534330000009504,5.33636000000115,6.050235000002431,6.8751049999991665,7.6820950000110315,8.459700000006706,9.177225000006729,9.997289999999339,10.81279500000528,11.567380000007688,12.384820000006584,13.12329000000318,13.93416000000434,14.720050000003539,15.505575000002864]",space,1.20242,0.0,7.0,7.0,1.0,1.0,,,,,,,,,,,,,
,,,,,,,,,,,block_1/none_t_72_3.wav,timbre,t,none,72.0,1.707698408,21.90234693,,,,yes,"Turtle beach, Ear Force Recon 50x Over-the-Ear Wired Gaming Headset",0,No,m,30,R,Yes,1,2020-09-07_12h08.36.208,kura-B2,2020.1.2,MacIntel,60,,,"[""space"",""space"",""space"",""space"",""space"",""space"",""space"",""space"",""space"",""space"",""space"",""space"",""space"",""space"",""space"",""space"",""space"",""space"",""space"",""space"",""space"",""space"",""space"",""space"",""space"",""space"",""space"",""space"",""space"",""space"",""space"",""space"",""space"",""space"",""space"",""space"",""space"",""space"",""space"",""space"",""space"",""space"",""space"",""space"",""space"",""space"",""space"",""space"",""space"",""space"",""space"",""space"",""space"",""space"",""space"",""space"",""space"",""space"",""space"",""space"",""space"",""space"",""space"",""space"",""space"",""space"",""space"",""space"",""space"",""space"",""space"",""space"",""space"",""space"",""space"",""space"",""space"",""space"",""space"",""space"",""space""]","[0.38667500000155997,0.7041400000016438,0.9352550000039628,1.1594550000008894,1.4032500000030268,1.6524199999985285,1.8914250000088941,2.12278000000515,2.3713300000090385,2.6295850000024075,2.8751699999993434,3.1215200000006007,3.361465000009048,3.6200950000056764,3.8709900000103517,4.110285000002477,4.357289999999921,4.618979999999283,4.861590000000433,5.111285000006319,5.343365000007907,5.6064750000077765,5.852450000005774,6.103945000009844,6.34231500000169,6.602250000010827,6.870060000001104,7.136145000011311,7.385260000010021,7.653740000008838,7.909045000007609,8.170194999998785,8.421025000003283,8.670729999998002,8.920635000002221,9.176980000003823,9.438645000001998,9.685150000004796,9.937300000005052,10.187130000005709,10.44658500001242,10.703685000000405,10.961920000001555,11.212850000010803,11.474170000001322,11.72014499999932,11.977810000011232,12.244270000010147,12.50371499999892,12.769209999998566,13.001815000010538,13.239155000002938,13.505280000012135,13.759734999999637,13.992890000008629,14.240380000002915,14.50308500000392,14.740434999999707,14.991535000008298,15.242700000002515,15.487000000008265,15.753750000003492,16.002570000011474,16.27069499999925,16.509565000000293,16.757405000011204,16.98687000000791,17.23742000000493,17.4719150000019,17.72001000000455,17.95304500000202,18.172460000001593,18.420370000007097,18.65430500000366,18.868935000005877,19.105875000008382,19.344570000001113,19.60407000000123,19.853930000012042,20.089510000005248,20.33695000001171]",space,0.453765,0.0,8.0,8.0,19.0,1.0,,,,,,,,,,,,,
,,,,,,,,,,,block_1/weak_t_92_4.wav,timbre,t,weak,92.0,1.530875014,13.01332399,,,,yes,"Turtle beach, Ear Force Recon 50x Over-the-Ear Wired Gaming Headset",0,No,m,30,R,Yes,1,2020-09-07_12h08.36.208,kura-B2,2020.1.2,MacIntel,60,,,"[""space"",""space"",""space"",""space"",""space"",""space"",""space"",""space"",""space"",""space"",""space"",""space"",""space"",""space"",""space"",""space"",""space"",""space"",""space""]","[0.6160800000070594,1.22313500000746,1.822134999994887,2.410455000004731,2.98648000000685,3.582810000007157,4.124009999999544,4.7162050000042655,5.269335000004503,5.89106000000902,6.501929999998538,7.093640000006417,7.672805000009248,8.254574999999022,8.833849999995437,9.406750000009197,9.988635000001523,10.582315000006929,11.167799999995623]",space,0.479675,0.0,9.0,9.0,29.0,1.0,,,,,,,,,,,,,
,,,,,,,,,,,block_1/none_t_81_3.wav,timbre,t,none,81.0,2.10326082,21.36648077,,,,yes,"Turtle beach, Ear Force Recon 50x Over-the-Ear Wired Gaming Headset",0,No,m,30,R,Yes,1,2020-09-07_12h08.36.208,kura-B2,2020.1.2,MacIntel,60,,,"[""space"",""space"",""space"",""space"",""space"",""space"",""space"",""space"",""space"",""space"",""space"",""space"",""space"",""space"",""space"",""space"",""space"",""space""]","[0.9550850000086939,1.575250000008964,2.192125000001397,3.5560499999992317,4.18449500000861,5.152440000005299,6.28813000000082,7.356429999999818,8.404790000000503,9.434009999997215,10.694170000002487,11.965844999998808,13.13742500000808,14.438340000007884,15.685060000003432,16.919785000005504,18.086699999999837,19.31694000000425]",space,0.67084,0.0,10.0,10.0,10.0,1.0,,,,,,,,,,,,,
,,,,,,,,,,,block_1/medium_t_105_4.wav,timbre,t,medium,105.0,2.498438995,14.23458412,,,,yes,"Turtle beach, Ear Force Recon 50x Over-the-Ear Wired Gaming Headset",0,No,m,30,R,Yes,1,2020-09-07_12h08.36.208,kura-B2,2020.1.2,MacIntel,60,,,"[""space"",""space"",""space"",""space"",""space"",""space"",""space"",""space"",""space"",""space"",""space"",""space"",""space"",""space"",""space"",""space"",""space"",""space"",""space""]","[0.40029499999945983,0.9835699999966891,1.623185000004014,2.3170399999944493,2.924039999998058,3.539019999996526,4.166389999998501,4.735749999992549,5.401595000002999,6.039869999993243,6.61849500000244,7.219444999995176,7.839859999992768,8.48395999999775,9.108819999994012,9.709835000001476,10.29374999999709,10.900414999996428,11.475800000000163]",space,0.41143,0.0,11.0,11.0,23.0,1.0,,,,,,,,,,,,,
,,,,,,,,,,,block_1/medium_t_72_4.wav,timbre,t,medium,72.0,1.659874932,19.69733525,,,,yes,"Turtle beach, Ear Force Recon 50x Over-the-Ear Wired Gaming Headset",0,No,m,30,R,Yes,1,2020-09-07_12h08.36.208,kura-B2,2020.1.2,MacIntel,60,,,"[""space"",""space"",""space"",""space"",""space"",""space"",""space"",""space"",""space"",""space"",""space"",""space"",""space"",""space"",""space"",""space"",""space"",""space"",""space"",""space""]","[0.6204750000033528,1.1038850000040838,1.9506499999988591,3.108410000000731,4.086779999997816,4.974855000007665,5.938074999998207,6.80283000000054,7.7560300000041025,8.610169999999925,9.502290000003995,10.35395000000426,11.238494999997783,12.236955000000307,13.120380000007572,14.002040000006673,14.857434999998077,15.786565000002156,16.719049999999697,17.55861000000732]",space,0.503775,0.0,12.0,12.0,36.0,1.0,,,,,,,,,,,,,
,,,,,,,,,,,block_1/none_t_92_4.wav,timbre,t,none,92.0,2.400883628,17.24192671,,,,yes,"Turtle beach, Ear Force Recon 50x Over-the-Ear Wired Gaming Headset",0,No,m,30,R,Yes,1,2020-09-07_12h08.36.208,kura-B2,2020.1.2,MacIntel,60,,,"[""space"",""space"",""space"",""space"",""space"",""space"",""space"",""space"",""space"",""space"",""space"",""space"",""space"",""space"",""space"",""space"",""space"",""space"",""space"",""space"",""space"",""space"",""space"",""space"",""space""]","[0.26851999999780674,0.9273249999969266,1.466230000005453,2.0853599999973085,2.7817099999956554,3.3669349999981932,3.984055000008084,4.656780000004801,5.2737900000065565,5.921795000002021,6.602515000005951,7.234605000005104,7.899610000007669,8.499250000008033,9.134170000004815,9.699840000001132,10.368835000001127,11.007194999998319,11.675445000000764,12.309424999999464,12.902100000006612,13.486535000003641,14.099499999996624,14.741439999997965,15.40743000000657]",space,0.318775,0.0,13.0,13.0,22.0,1.0,,,,,,,,,,,,,
,,,,,,,,,,,block_1/none_t_105_3.wav,timbre,t,none,105.0,2.248615294,16.06934092,,,,yes,"Turtle beach, Ear Force Recon 50x Over-the-Ear Wired Gaming Headset",0,No,m,30,R,Yes,1,2020-09-07_12h08.36.208,kura-B2,2020.1.2,MacIntel,60,,,"[""space"",""space"",""space"",""space"",""space"",""space"",""space"",""space"",""space"",""space"",""space"",""space"",""space"",""space"",""space"",""space"",""space"",""space""]","[0.6705450000008568,1.3824449999956414,2.716344999993453,3.583249999996042,4.350479999993695,5.054924999989453,5.837115000002086,6.565889999998035,7.318099999989499,8.049709999992047,8.733645000000251,9.436389999988023,10.151319999989937,10.875839999993332,11.59282499999972,12.270864999998594,13.022394999992684,13.733549999989918]",space,2.13712,0.0,14.0,14.0,14.0,1.0,,,,,,,,,,,,,
,,,,,,,,,,,block_1/strong_t_105_3.wav,timbre,t,strong,105.0,1.518747526,13.05135524,,,,yes,"Turtle beach, Ear Force Recon 50x Over-the-Ear Wired Gaming Headset",0,No,m,30,R,Yes,1,2020-09-07_12h08.36.208,kura-B2,2020.1.2,MacIntel,60,,,"[""space"",""space"",""space"",""space"",""space"",""space"",""space"",""space"",""space"",""space"",""space"",""space"",""space"",""space"",""space"",""space"",""space"",""space"",""space"",""space"",""space"",""space""]","[0.6926649999950314,1.2669999999925494,1.8350749999954132,2.4413599999970756,3.034029999995255,3.60726999999315,4.166799999991781,4.765039999998407,5.353134999997565,5.915179999996326,6.536739999995916,7.104869999995572,7.676900000005844,8.269700000004377,8.849384999994072,9.43351000000257,10.031294999993406,10.610549999997602,11.215500000005704,11.769904999993742,12.383415000003879,12.918504999994184]",space,0.703565,0.0,15.0,15.0,21.0,1.0,,,,,,,,,,,,,
,,,,,,,,,,,block_1/none_t_72_4.wav,timbre,t,none,72.0,1.772355542,25.47190203,,,,yes,"Turtle beach, Ear Force Recon 50x Over-the-Ear Wired Gaming Headset",0,No,m,30,R,Yes,1,2020-09-07_12h08.36.208,kura-B2,2020.1.2,MacIntel,60,,,"[""space"",""space"",""space"",""space"",""space"",""space"",""space"",""space"",""space"",""space"",""space"",""space"",""space"",""space"",""space"",""space"",""space"",""space"",""space"",""space"",""space"",""space""]","[0.7565800000011222,1.8493849999940721,2.8865349999978207,3.9843700000055833,5.024445000002743,6.025789999999688,7.157024999993155,8.317729999995208,9.433399999994435,10.666985000003478,11.734020000003511,12.753704999995534,13.904049999997369,15.004914999997709,16.184519999995246,17.305454999994254,18.381905000002007,19.56699999999546,20.891545000005863,22.050755000003846,23.169429999994463,24.420490000004065]",space,0.47481,0.0,16.0,16.0,15.0,1.0,,,,,,,,,,,,,
,,,,,,,,,,,block_1/weak_t_72_3.wav,timbre,t,weak,72.0,1.571303333,17.03996546,,,,yes,"Turtle beach, Ear Force Recon 50x Over-the-Ear Wired Gaming Headset",0,No,m,30,R,Yes,1,2020-09-07_12h08.36.208,kura-B2,2020.1.2,MacIntel,60,,,"[""space"",""space"",""space"",""space"",""space"",""space"",""space"",""space"",""space"",""space"",""space"",""space"",""space"",""space"",""space"",""space"",""space"",""space"",""space""]","[0.5530600000056438,1.079490000003716,2.161739999995916,3.123279999999795,3.937004999999772,4.720660000006319,5.519220000001951,6.325315000009141,7.076069999995525,7.923945000002277,8.697729999999865,9.503375000000233,10.2270850000059,11.10228000000643,11.870284999997239,12.629880000007688,13.535629999998491,14.258635000005597,15.037179999999353]",space,0.43608,0.0,17.0,17.0,26.0,1.0,,,,,,,,,,,,,
,,,,,,,,,,,block_1/none_t_81_4.wav,timbre,t,none,81.0,1.802900323,17.84380735,,,,yes,"Turtle beach, Ear Force Recon 50x Over-the-Ear Wired Gaming Headset",0,No,m,30,R,Yes,1,2020-09-07_12h08.36.208,kura-B2,2020.1.2,MacIntel,60,,,"[""space"",""space"",""space"",""space"",""space"",""space"",""space"",""space"",""space"",""space"",""space"",""space"",""space"",""space"",""space"",""space"",""space"",""space"",""space"",""space"",""space"",""space"",""space"",""space"",""space"",""space"",""space"",""space"",""space"",""space"",""space""]","[0.5535649999947054,1.0540099999925587,1.5535199999867473,2.082829999999376,2.6514899999892805,3.151350000000093,3.647869999986142,4.227359999989858,4.750934999989113,5.30498999998963,5.8729049999965355,6.384064999991097,6.934294999999111,7.535174999997253,8.068539999992936,8.550514999995357,9.100479999993695,9.616589999990538,10.057559999986552,10.605794999995851,11.15084499999648,11.673589999991236,12.22369999998773,12.789494999989984,13.334104999987176,13.90954999999667,14.455484999998589,14.991434999988996,15.551029999987804,16.11776999999711,16.668774999998277]",space,0.400565,0.0,18.0,18.0,12.0,1.0,,,,,,,,,,,,,
,,,,,,,,,,,block_1/strong_t_119_4.wav,timbre,t,strong,119.0,1.237037075,11.10492823,,,,yes,"Turtle beach, Ear Force Recon 50x Over-the-Ear Wired Gaming Headset",0,No,m,30,R,Yes,1,2020-09-07_12h08.36.208,kura-B2,2020.1.2,MacIntel,60,,,"[""space"",""space"",""space"",""space"",""space"",""space"",""space"",""space"",""space"",""space"",""space"",""space"",""space"",""space"",""space"",""space"",""space"",""space"",""space"",""space"",""space""]","[0.3290700000070501,0.9537500000005821,1.5024499999999534,2.042860000001383,2.529020000001765,3.0427100000088103,3.5364100000006147,4.044080000006943,4.520499999998719,5.025145000006887,5.520745000001625,6.035524999999325,6.556030000007013,7.07060000000638,7.574580000000424,8.070065000007162,8.55647000001045,9.073394999999437,9.586309999998775,10.079595000002882,10.590335000000778]",space,0.451575,0.0,19.0,19.0,39.0,1.0,,,,,,,,,,,,,
,,,,,,,,,,,block_1/medium_t_92_3.wav,timbre,t,medium,92.0,2.360774731,14.34626226,,,,yes,"Turtle beach, Ear Force Recon 50x Over-the-Ear Wired Gaming Headset",0,No,m,30,R,Yes,1,2020-09-07_12h08.36.208,kura-B2,2020.1.2,MacIntel,60,,,"[""space"",""space"",""space"",""space"",""space"",""space"",""space"",""space"",""space"",""space"",""space"",""space"",""space"",""space"",""space"",""space"",""space"",""space"",""space"",""space"",""space""]","[0.27030000000377186,0.7529800000047544,1.4188350000040373,2.019960000005085,2.64545999999973,3.202530000009574,3.859570000000531,4.408155000011902,5.010399999999208,5.686925000001793,6.213770000002114,6.85631000000285,7.443525000009686,8.011655000009341,8.628220000013243,9.253295000002254,9.887540000010631,10.518840000004275,11.091800000009243,11.653950000007171,12.289125000010245]",space,0.462605,0.0,20.0,20.0,35.0,1.0,,,,,,,,,,,,,
,,,,,,,,,,,block_1/strong_t_105_4.wav,timbre,t,strong,105.0,2.094581561,12.21235934,,,,yes,"Turtle beach, Ear Force Recon 50x Over-the-Ear Wired Gaming Headset",0,No,m,30,R,Yes,1,2020-09-07_12h08.36.208,kura-B2,2020.1.2,MacIntel,60,,,"[""space"",""space"",""space"",""space"",""space"",""space"",""space"",""space"",""space"",""space"",""space"",""space"",""space"",""space"",""space"",""space"",""space"",""space"",""space"",""space"",""space""]","[0.5718800000031479,0.970629999996163,1.336714999997639,1.802414999998291,2.3051200000045355,2.8205250000028173,3.3192550000094343,3.8233949999994365,4.320130000007339,4.820350000009057,5.329494999998133,5.845495000001392,6.320764999996754,6.836955000006128,7.34225499999593,7.837064999999711,8.357694999998785,8.83864000000176,9.353300000002491,9.853960000007646,10.36108499999682]",space,0.391975,0.0,21.0,21.0,18.0,1.0,,,,,,,,,,,,,
,,,,,,,,,,,block_1/medium_t_105_3.wav,timbre,t,medium,105.0,1.131854181,11.90867958,,,,yes,"Turtle beach, Ear Force Recon 50x Over-the-Ear Wired Gaming Headset",0,No,m,30,R,Yes,1,2020-09-07_12h08.36.208,kura-B2,2020.1.2,MacIntel,60,,,"[""space"",""space"",""space"",""space"",""space"",""space"",""space"",""space"",""space"",""space"",""space"",""space"",""space"",""space"",""space"",""space"",""space"",""space"",""space"",""space"",""space""]","[0.2437800000043353,1.067430000010063,1.6518350000114879,2.186710000009043,2.766715000005206,3.317909999997937,3.8674949999985984,4.4001550000102725,4.959535000001779,5.524550000001909,6.050895000007586,6.608810000005178,7.166924999997718,7.734490000002552,8.282835000005434,8.848700000002282,9.367935000002035,9.907319999998435,10.517214999999851,11.088140000007115,11.635510000007343]",space,0.544815,0.0,22.0,22.0,16.0,1.0,,,,,,,,,,,,,
,,,,,,,,,,,block_1/none_t_119_4.wav,timbre,t,none,119.0,1.977931805,11.04042614,,,,yes,"Turtle beach, Ear Force Recon 50x Over-the-Ear Wired Gaming Headset",0,No,m,30,R,Yes,1,2020-09-07_12h08.36.208,kura-B2,2020.1.2,MacIntel,60,,,"[""space"",""space"",""space"",""space"",""space"",""space"",""space"",""space"",""space"",""space"",""space"",""space"",""space"",""space""]","[0.3189450000063516,0.9572750000079395,1.7423850000050152,2.6524500000086846,3.4739450000051875,4.087530000004335,4.738575000010314,5.437420000002021,6.122215000010328,6.852965000012773,7.605750000002445,8.269750000006752,9.008825000011711,9.744945000013104]",space,0.40751,0.0,23.0,23.0,27.0,1.0,,,,,,,,,,,,,
,,,,,,,,,,,block_1/medium_t_92_4.wav,timbre,t,medium,92.0,1.590939721,14.58753836,,,,yes,"Turtle beach, Ear Force Recon 50x Over-the-Ear Wired Gaming Headset",0,No,m,30,R,Yes,1,2020-09-07_12h08.36.208,kura-B2,2020.1.2,MacIntel,60,,,"[""space"",""space"",""space"",""space"",""space"",""space"",""space"",""space"",""space"",""space"",""space"",""space"",""space"",""space"",""space"",""space"",""space"",""space"",""space""]","[0.5269799999950919,1.2705600000044797,2.0205799999966985,2.719565000006696,3.4165849999990314,4.069535000002361,4.717610000006971,5.36076999999932,6.030119999995804,6.719500000006519,7.377745000005234,8.053910000002361,8.690484999999171,9.368060000007972,10.019404999999097,10.685935000001336,11.33411999999953,11.990724999996019,12.669810000006692]",space,0.39219,0.0,24.0,24.0,25.0,1.0,,,,,,,,,,,,,
,,,,,,,,,,,block_1/medium_t_81_3.wav,timbre,t,medium,81.0,1.352794873,13.94617356,,,,yes,"Turtle beach, Ear Force Recon 50x Over-the-Ear Wired Gaming Headset",0,No,m,30,R,Yes,1,2020-09-07_12h08.36.208,kura-B2,2020.1.2,MacIntel,60,,,"[""space"",""space"",""space"",""space"",""space"",""space"",""space"",""space"",""space"",""space"",""space"",""space"",""space"",""space"",""space"",""space"",""space"",""space"",""space"",""space""]","[0.5849199999938719,1.139100000000326,1.750480000002426,2.4679699999978766,3.2558699999935925,3.923849999991944,4.630304999998771,5.283209999994142,5.899964999989606,6.558254999996279,7.217994999999064,7.8534099999960745,8.491364999994403,9.151754999998957,9.709384999994654,10.335854999997537,10.969895000001998,11.64488999999594,12.250204999989364,12.933879999996861]",space,0.400605,0.0,25.0,25.0,8.0,1.0,,,,,,,,,,,,,
,,,,,,,,,,,block_1/medium_t_119_3.wav,timbre,t,medium,119.0,2.226222359,10.98477111,,,,yes,"Turtle beach, Ear Force Recon 50x Over-the-Ear Wired Gaming Headset",0,No,m,30,R,Yes,1,2020-09-07_12h08.36.208,kura-B2,2020.1.2,MacIntel,60,,,"[""space"",""space"",""space"",""space"",""space"",""space"",""space"",""space"",""space"",""space"",""space"",""space"",""space"",""space"",""space"",""space"",""space"",""space"",""space"",""space""]","[0.40281499999400694,0.8673549999948591,1.3392599999933736,1.7844099999929313,2.2330799999908777,2.7010149999987334,3.1662799999903655,3.6035749999864493,4.0392399999982445,4.4824249999946915,4.91742999998678,5.388944999998785,5.824089999994612,6.288779999988037,6.749734999990324,7.2159799999935785,7.668994999999995,8.100189999997383,8.567634999999427,9.015574999997625]",space,0.53022,0.0,26.0,26.0,37.0,1.0,,,,,,,,,,,,,
,,,,,,,,,,,block_1/strong_t_81_3.wav,timbre,t,strong,81.0,2.437587677,17.65296183,,,,yes,"Turtle beach, Ear Force Recon 50x Over-the-Ear Wired Gaming Headset",0,No,m,30,R,Yes,1,2020-09-07_12h08.36.208,kura-B2,2020.1.2,MacIntel,60,,,"[""space"",""space"",""space"",""space"",""space"",""space"",""space"",""space"",""space"",""space"",""space"",""space"",""space"",""space"",""space"",""space"",""space"",""space"",""space"",""space"",""space""]","[0.46836500000790693,1.6263299999991432,2.4387800000113202,3.2050149999995483,3.974965000001248,4.760215000002063,5.499355000007199,6.287140000000363,7.075270000001183,7.887249999999767,8.618660000007367,9.400940000006813,10.201404999999795,10.954595000002882,11.750565000009374,12.504565000010189,13.274465000009513,14.008585000003222,14.818090000000666,15.583215000006021,16.41719500000181]",space,0.554165,0.0,27.0,27.0,24.0,1.0,,,,,,,,,,,,,
,,,,,,,,,,,block_1/medium_t_81_4.wav,timbre,t,medium,81.0,1.136743646,13.9322992,,,,yes,"Turtle beach, Ear Force Recon 50x Over-the-Ear Wired Gaming Headset",0,No,m,30,R,Yes,1,2020-09-07_12h08.36.208,kura-B2,2020.1.2,MacIntel,60,,,"[""space"",""space"",""space"",""space"",""space"",""space"",""space"",""space"",""space"",""space"",""space"",""space"",""space"",""space"",""space"",""space"",""space"",""space"",""space"",""space""]","[0.2507949999999255,1.1338350000005448,1.8676350000023376,2.5507849999994505,3.2052499999990687,3.8413699999946402,4.467069999998785,5.115254999996978,5.741730000008829,6.386240000007092,7.100200000000768,7.767535000006319,8.450049999999464,9.102169999998296,9.722844999996596,10.383774999994785,11.1003950000013,11.711575000008452,12.368845000004512,13.050205000006827]",space,0.435725,0.0,28.0,28.0,2.0,1.0,,,,,,,,,,,,,
,,,,,,,,,,,block_1/strong_t_81_4.wav,timbre,t,strong,81.0,1.870008989,16.22765071,,,,yes,"Turtle beach, Ear Force Recon 50x Over-the-Ear Wired Gaming Headset",0,No,m,30,R,Yes,1,2020-09-07_12h08.36.208,kura-B2,2020.1.2,MacIntel,60,,,"[""space"",""space"",""space"",""space"",""space"",""space"",""space"",""space"",""space"",""space"",""space"",""space"",""space"",""space"",""space"",""space"",""space"",""space"",""space"",""space""]","[0.7892299999948591,1.5844599999982165,2.3162849999935133,3.0854200000030687,3.7851150000060443,4.519419999996899,5.2409349999943515,5.983384999999544,6.644805000003544,7.416039999996428,8.134325000006356,8.844505000000936,9.60773999999219,10.319839999996475,11.048754999996163,11.800115000005462,12.505745000002207,13.267724999997881,13.990479999993113,14.689429999998538]",space,0.46824,0.0,29.0,29.0,34.0,1.0,,,,,,,,,,,,,
,,,,,,,,,,,block_1/strong_t_92_3.wav,timbre,t,strong,92.0,1.987733848,15.03440052,,,,yes,"Turtle beach, Ear Force Recon 50x Over-the-Ear Wired Gaming Headset",0,No,m,30,R,Yes,1,2020-09-07_12h08.36.208,kura-B2,2020.1.2,MacIntel,60,,,"[""space"",""space"",""space"",""space"",""space"",""space"",""space"",""space"",""space"",""space"",""space"",""space"",""space"",""space"",""space"",""space"",""space"",""space"",""space"",""space"",""space"",""space""]","[0.22410999999556225,0.7430999999924097,1.3428899999998976,2.0549249999894528,2.651914999994915,3.309045000001788,4.028049999993527,4.659054999996442,5.294029999990016,5.996299999998882,6.6607399999920744,7.3107749999908265,8.040659999998752,8.701984999992419,9.307730000000447,9.973579999990761,10.67480500000238,11.360665000000154,12.0197499999922,12.705269999991287,13.359539999990375,14.12020499999926]",space,0.75633,0.0,30.0,30.0,3.0,1.0,,,,,,,,,,,,,
,,,,,,,,,,,block_1/weak_t_119_4.wav,timbre,t,weak,119.0,1.438381355,12.04736095,,,,yes,"Turtle beach, Ear Force Recon 50x Over-the-Ear Wired Gaming Headset",0,No,m,30,R,Yes,1,2020-09-07_12h08.36.208,kura-B2,2020.1.2,MacIntel,60,,,"[""space"",""space"",""space"",""space"",""space"",""space"",""space"",""space"",""space"",""space"",""space"",""space"",""space"",""space"",""space"",""space"",""space"",""space"",""space"",""space""]","[0.9542199999996228,1.4524099999980535,2.2245850000035716,2.7710800000058953,3.275999999998021,3.7377350000024308,4.22014499999932,4.713415000005625,5.223285000000033,5.7200900000025285,6.245120000006864,6.742465000002994,7.287380000008852,7.853240000011283,8.436450000008335,8.953885000009905,9.447160000010626,9.920985000004293,10.403705000004265,10.936289999997825]",space,0.506815,0.0,31.0,31.0,11.0,1.0,,,,,,,,,,,,,
,,,,,,,,,,,block_1/weak_t_72_4.wav,timbre,t,weak,72.0,1.01386198,17.48964429,,,,yes,"Turtle beach, Ear Force Recon 50x Over-the-Ear Wired Gaming Headset",0,No,m,30,R,Yes,1,2020-09-07_12h08.36.208,kura-B2,2020.1.2,MacIntel,60,,,"[""space"",""space"",""space"",""space"",""space"",""space"",""space"",""space"",""space"",""space"",""space"",""space"",""space"",""space"",""space"",""space"",""space"",""space"",""space"",""space""]","[0.6488949999911711,1.9165099999954691,2.784074999988661,3.6551349999936065,4.4327699999994365,5.298914999992121,6.092339999988326,6.866499999989173,7.73431499999424,8.543504999994184,9.367069999992964,10.308044999997946,11.10084499999357,11.984639999995125,12.807874999998603,13.667244999989634,14.583709999991697,15.375759999995353,16.133319999993546,17.219939999995404]",space,0.667095,0.0,32.0,32.0,33.0,1.0,,,,,,,,,,,,,
,,,,,,,,,,,block_1/weak_t_81_3.wav,timbre,t,weak,81.0,1.53156375,17.80117826,,,,yes,"Turtle beach, Ear Force Recon 50x Over-the-Ear Wired Gaming Headset",0,No,m,30,R,Yes,1,2020-09-07_12h08.36.208,kura-B2,2020.1.2,MacIntel,60,,,"[""space"",""space"",""space"",""space"",""space"",""space"",""space"",""space"",""space"",""space"",""space"",""space"",""space"",""space"",""space"",""space"",""space"",""space"",""space"",""space""]","[0.33405999999376945,1.0659900000027847,2.2318649999942863,3.00589499999478,3.8843899999919813,4.742694999993546,5.566279999999097,6.407605000000331,7.18331500000204,7.976544999997714,8.823264999999083,9.638330000001588,10.383705000000191,11.120045000003302,11.87054000000353,12.619519999992917,13.424384999991162,14.291119999994407,15.048865000004298,15.90009499998996]",space,0.453465,0.0,33.0,33.0,6.0,1.0,,,,,,,,,,,,,
,,,,,,,,,,,block_1/weak_t_105_4.wav,timbre,t,weak,105.0,1.882880114,13.41285744,,,,yes,"Turtle beach, Ear Force Recon 50x Over-the-Ear Wired Gaming Headset",0,No,m,30,R,Yes,1,2020-09-07_12h08.36.208,kura-B2,2020.1.2,MacIntel,60,,,"[""space"",""space"",""space"",""space"",""space"",""space"",""space"",""space"",""space"",""space"",""space"",""space"",""space"",""space"",""space"",""space"",""space"",""space"",""space"",""space"",""space"",""space""]","[0.42733000000589527,0.9686999999976251,1.466824999995879,2.0324749999999767,2.649730000004638,3.1767499999987194,3.7839700000040466,4.303490000005695,4.799480000001495,5.375305000008666,5.940394999997807,6.50217999999586,7.066680000003544,7.633910000004107,8.222170000008191,8.80021499999566,9.353944999995292,9.903630000000703,10.486935000008089,11.115785000001779,11.702785000001313,12.267309999995632]",space,0.35968,0.0,34.0,34.0,7.0,1.0,,,,,,,,,,,,,
,,,,,,,,,,,block_1/strong_t_92_4.wav,timbre,t,strong,92.0,1.022726917,13.26377,,,,yes,"Turtle beach, Ear Force Recon 50x Over-the-Ear Wired Gaming Headset",0,No,m,30,R,Yes,1,2020-09-07_12h08.36.208,kura-B2,2020.1.2,MacIntel,60,,,"[""space"",""space"",""space"",""space"",""space"",""space"",""space"",""space"",""space"",""space"",""space"",""space"",""space"",""space"",""space"",""space"",""space"",""space"",""space"",""space""]","[1.025404999993043,1.690374999991036,2.3363099999987753,3.0161300000036135,3.6051949999964563,4.2168950000050245,4.883914999998524,5.520535000003292,6.168324999991455,6.79942999999912,7.41615499999898,8.044439999997849,8.66993000000366,9.303960000004736,9.942974999998114,10.572910000002594,11.189910000000964,11.853384999994887,12.50149500000407,13.201560000001336]",space,0.66817,0.0,35.0,35.0,9.0,1.0,,,,,,,,,,,,,
,,,,,,,,,,,block_1/medium_t_119_4.wav,timbre,t,medium,119.0,1.399295551,11.22011188,,,,yes,"Turtle beach, Ear Force Recon 50x Over-the-Ear Wired Gaming Headset",0,No,m,30,R,Yes,1,2020-09-07_12h08.36.208,kura-B2,2020.1.2,MacIntel,60,,,"[""space"",""space"",""space"",""space"",""space"",""space"",""space"",""space"",""space"",""space"",""space"",""space"",""space"",""space"",""space"",""space"",""space"",""space"",""space""]","[0.5776299999997718,1.6910199999983888,2.325815000003786,2.903535000004922,3.370330000005197,3.8856999999989057,4.374234999995679,4.880000000004657,5.370009999998729,5.8435650000028545,6.344509999995353,6.844519999998738,7.386765000002924,7.904380000007222,8.412565000005998,8.970360000006622,9.469855000003008,9.994189999997616,10.602425000004587]",space,0.427135,0.0,36.0,36.0,30.0,1.0,,,,,,,,,,,,,
,,,,,,,,,,,block_1/medium_t_72_3.wav,timbre,t,medium,72.0,2.203768917,18.98399567,,,,yes,"Turtle beach, Ear Force Recon 50x Over-the-Ear Wired Gaming Headset",0,No,m,30,R,Yes,1,2020-09-07_12h08.36.208,kura-B2,2020.1.2,MacIntel,60,,,"[""space"",""space"",""space"",""space"",""space"",""space"",""space"",""space"",""space"",""space"",""space"",""space"",""space"",""space"",""space"",""space"",""space"",""space"",""space"",""space""]","[0.520040000003064,1.5763549999974202,2.524214999997639,3.3206950000021607,4.187084999997751,5.105670000004466,6.024950000006356,6.878010000000359,7.690455000003567,8.558904999998049,9.376734999998007,10.238075000001118,11.084535000001779,11.943735000008019,12.780070000007981,13.671145000000251,14.538295000005746,15.424605000007432,16.354260000007343,17.33673500000441]",space,0.548685,0.0,37.0,37.0,31.0,1.0,,,,,,,,,,,,,
,,,,,,,,,,,block_1/weak_t_92_3.wav,timbre,t,weak,92.0,1.190820523,16.55263458,,,,yes,"Turtle beach, Ear Force Recon 50x Over-the-Ear Wired Gaming Headset",0,No,m,30,R,Yes,1,2020-09-07_12h08.36.208,kura-B2,2020.1.2,MacIntel,60,,,"[""space"",""space"",""space"",""space"",""space"",""space"",""space"",""space"",""space"",""space"",""space"",""space"",""space"",""space"",""space"",""space"",""space"",""space"",""space""]","[0.5372199999983422,1.5888950000080513,2.392405000005965,3.278070000000298,4.022964999996475,4.802170000009937,5.622755000003963,6.380155000006198,7.256355000004987,8.027740000004997,8.770790000009583,9.4866949999996,10.244735000000219,11.137000000002445,11.890225000010105,12.677500000005239,13.497190000009141,14.268255000002682,14.986860000004526]",space,1.153565,0.0,38.0,38.0,38.0,1.0,,,,,,,,,,,,,
,,,,,,,,,,,block_1/none_t_92_3.wav,timbre,t,none,92.0,1.813425609,13.88349364,,,,yes,"Turtle beach, Ear Force Recon 50x Over-the-Ear Wired Gaming Headset",0,No,m,30,R,Yes,1,2020-09-07_12h08.36.208,kura-B2,2020.1.2,MacIntel,60,,,"[""space"",""space"",""space"",""space"",""space"",""space"",""space"",""space"",""space"",""space"",""space"",""space"",""space"",""space"",""space"",""space"",""space"",""space"",""space"",""space"",""space"",""space"",""space""]","[0.2673099999956321,0.8381199999857927,1.1741449999972247,1.6401849999965634,2.1241049999953248,2.8025499999930616,3.353704999986803,3.9003849999862723,4.38511999999173,5.025009999997565,5.557170000000042,6.075864999991609,6.57684499998868,7.086019999987911,7.6262449999921955,8.153999999994994,8.716289999996661,9.251369999998133,9.826269999990473,10.404744999992545,10.871849999995902,11.37200999999186,11.832159999990836]",space,0.34981,0.0,39.0,39.0,17.0,1.0,,,,,,,,,,,,,
,,,,,,,,,,,block_2/medium_n_119_4.wav,no,n,medium,119.0,1.918272059,10.22534689,,,,yes,"Turtle beach, Ear Force Recon 50x Over-the-Ear Wired Gaming Headset",0,No,m,30,R,Yes,1,2020-09-07_12h08.36.208,kura-B2,2020.1.2,MacIntel,60,,,,,,,,,,,,space,2.185235,"[""space"",""space"",""space"",""space"",""space"",""space"",""space"",""space"",""space"",""space"",""space"",""space"",""space"",""space"",""space"",""space"",""space"",""space"",""space"",""space"",""space""]","[0.38485499999660533,0.8007650000072317,1.1060549999965588,1.5177300000068499,1.8887499999982538,2.3199150000000373,2.735274999999092,3.151784999994561,3.5583199999964563,3.950265000006766,4.384875000003376,4.936444999999367,5.35859000000346,5.8366600000008475,6.286905000000843,6.732185000000754,7.200179999999818,7.632824999993318,8.07478500000434,8.539569999993546,9.017934999996214]",space,0.559245,0.0,0.0,0.0,17.0,1.0,,
,,,,,,,,,,,block_2/weak_n_119_3.wav,no,n,weak,119.0,1.689359171,10.04573105,,,,yes,"Turtle beach, Ear Force Recon 50x Over-the-Ear Wired Gaming Headset",0,No,m,30,R,Yes,1,2020-09-07_12h08.36.208,kura-B2,2020.1.2,MacIntel,60,,,,,,,,,,,,,,"[""space"",""space"",""space"",""space"",""space"",""space"",""space"",""space"",""space"",""space"",""space"",""space"",""space"",""space"",""space"",""space"",""space"",""space"",""space"",""space""]","[0.3070200000074692,0.8551900000020396,1.2682449999992969,1.6684649999951944,2.0889049999968847,2.5207999999984168,2.9530700000032084,3.3825400000059744,3.8055500000045868,4.21963500000129,4.633705000000191,5.083039999997709,5.499330000006012,5.908819999996922,6.339645000000019,6.760934999998426,7.205839999995078,7.6397500000020955,8.084155000004102,8.534075000003213]",space,0.316985,0.0,1.0,1.0,37.0,1.0,,
,,,,,,,,,,,block_2/medium_n_92_3.wav,no,n,medium,92.0,2.163023573,13.84869251,,,,yes,"Turtle beach, Ear Force Recon 50x Over-the-Ear Wired Gaming Headset",0,No,m,30,R,Yes,1,2020-09-07_12h08.36.208,kura-B2,2020.1.2,MacIntel,60,,,,,,,,,,,,,,"[""space"",""space"",""space"",""space"",""space"",""space"",""space"",""space"",""space"",""space"",""space"",""space"",""space"",""space"",""space"",""space"",""space"",""space"",""space"",""space""]","[0.27035500000056345,0.8579749999917112,1.6366399999969872,2.273609999989276,2.8127649999951245,3.41925999999512,4.058279999997467,4.673604999989038,5.304250000001048,5.8905850000010105,6.4616600000008475,7.102484999995795,7.6857899999886286,8.289814999996452,8.90394999999262,9.526424999989104,10.119189999997616,10.753179999999702,11.271364999993239,11.904154999996535]",space,0.35154,0.0,2.0,2.0,2.0,1.0,,
,,,,,,,,,,,block_2/none_n_81_3.wav,no,n,none,81.0,2.161532659,18.80565964,,,,yes,"Turtle beach, Ear Force Recon 50x Over-the-Ear Wired Gaming Headset",0,No,m,30,R,Yes,1,2020-09-07_12h08.36.208,kura-B2,2020.1.2,MacIntel,60,,,,,,,,,,,,,,"[""space"",""space"",""space"",""space"",""space"",""space"",""space"",""space"",""space"",""space"",""space"",""space"",""space"",""space"",""space"",""space"",""space"",""space"",""space"",""space"",""space"",""space"",""space"",""space"",""space"",""space"",""space"",""space"",""space"",""space"",""space"",""space"",""space"",""space"",""space""]","[0.31893000000854954,0.7594499999977415,1.2745450000074925,1.7189300000027288,2.168904999998631,2.6349650000047404,3.071219999997993,3.4856549999967683,3.937369999999646,4.397590000007767,4.857405000002473,5.321760000006179,5.803119999996852,6.27947999999742,6.752720000004047,7.230555000001914,7.775370000003022,8.252860000007786,8.739735000010114,9.277245000004768,9.78671500000928,10.262195000002976,10.73724499999662,11.220650000002934,11.713224999999511,12.203569999997853,12.692030000005616,13.158735000004526,13.619720000002417,14.103195000003325,14.558069999999134,15.037290000007488,15.50322500000766,16.00192500000412,16.472615000006044]",space,0.533045,0.0,3.0,3.0,29.0,1.0,,
,,,,,,,,,,,block_2/weak_n_92_4.wav,no,n,weak,92.0,2.26710089,14.35326869,,,,yes,"Turtle beach, Ear Force Recon 50x Over-the-Ear Wired Gaming Headset",0,No,m,30,R,Yes,1,2020-09-07_12h08.36.208,kura-B2,2020.1.2,MacIntel,60,,,,,,,,,,,,,,"[""space"",""space"",""space"",""space"",""space"",""space"",""space"",""space"",""space"",""space"",""space"",""space"",""space"",""space"",""space"",""space"",""space"",""space"",""space"",""space""]","[0.7366850000107661,1.4196000000083586,2.0684000000037486,2.6690100000123493,3.27113000000827,3.8712000000086846,4.437495000005583,5.0434300000051735,5.671605000010459,6.259315000002971,6.876300000003539,7.490130000005593,8.106200000009267,8.720339999999851,9.326460000011139,9.905445000011241,10.505590000000666,11.120690000010654,11.729320000013104,12.358185000004596]",space,0.38085,0.0,4.0,4.0,15.0,1.0,,
,,,,,,,,,,,block_2/weak_n_105_3.wav,no,n,weak,105.0,2.432347709,14.10785791,,,,yes,"Turtle beach, Ear Force Recon 50x Over-the-Ear Wired Gaming Headset",0,No,m,30,R,Yes,1,2020-09-07_12h08.36.208,kura-B2,2020.1.2,MacIntel,60,,,,,,,,,,,,,,"[""space"",""space"",""space"",""space"",""space"",""space"",""space"",""space"",""space"",""space"",""space"",""space"",""space"",""space"",""space"",""space"",""space"",""space"",""space""]","[0.8084400000079768,1.4000700000033248,2.003385000003618,2.5177499999990687,3.0401249999995343,3.9435650000086753,4.671740000005229,5.232770000002347,5.92398000000685,6.716715000002296,7.404894999999669,8.034265000009327,8.59178499999689,9.187004999999772,9.793055000001914,10.290730000007898,10.841730000000098,11.386545000001206,11.940759999997681]",space,0.373505,0.0,5.0,5.0,27.0,1.0,,
,,,,,,,,,,,block_2/strong_n_81_3.wav,no,n,strong,81.0,2.384474622,16.38941793,,,,yes,"Turtle beach, Ear Force Recon 50x Over-the-Ear Wired Gaming Headset",0,No,m,30,R,Yes,1,2020-09-07_12h08.36.208,kura-B2,2020.1.2,MacIntel,60,,,,,,,,,,,,,,"[""space"",""space"",""space"",""space"",""space"",""space"",""space"",""space"",""space"",""space"",""space"",""space"",""space"",""space"",""space"",""space"",""space"",""space"",""space"",""space""]","[0.6581000000005588,1.5171400000108406,2.2339449999999488,2.9377349999995204,3.650325000009616,4.372515000010026,5.084224999998696,5.784085000006598,6.483879999999772,7.2079349999985425,7.9181400000088615,8.700890000007348,9.353010000005952,10.042440000004945,10.741520000010496,11.450075000000652,12.20686000000569,12.918669999999338,13.601265000004787,14.337905000007368]",space,0.351855,0.0,6.0,6.0,10.0,1.0,,
,,,,,,,,,,,block_2/none_n_92_4.wav,no,n,none,92.0,2.009431863,15.90199422,,,,yes,"Turtle beach, Ear Force Recon 50x Over-the-Ear Wired Gaming Headset",0,No,m,30,R,Yes,1,2020-09-07_12h08.36.208,kura-B2,2020.1.2,MacIntel,60,,,,,,,,,,,,,,"[""space"",""space"",""space"",""space"",""space"",""space"",""space"",""space"",""space"",""space"",""space"",""space"",""space"",""space"",""space"",""space"",""space"",""space"",""space"",""space"",""space"",""space"",""space"",""space""]","[0.23738500000058593,0.6500450000023648,1.1945850000049631,1.917850000012777,2.551265000002104,3.145065000004479,4.094810000010057,4.7545250000114265,5.385280000002467,5.995074999999133,6.6252550000065185,7.184930000003305,7.7670900000089205,8.45143000000121,9.051514999999199,9.653350000008231,10.25725000000989,10.8614150000069,11.486910000007356,12.051900000006071,12.637190000009014,13.155895000003966,13.718665000007832,14.317915000007133]",space,0.35906,0.0,7.0,7.0,19.0,1.0,,
,,,,,,,,,,,block_2/strong_n_119_4.wav,no,n,strong,119.0,2.003027148,12.07137182,,,,yes,"Turtle beach, Ear Force Recon 50x Over-the-Ear Wired Gaming Headset",0,No,m,30,R,Yes,1,2020-09-07_12h08.36.208,kura-B2,2020.1.2,MacIntel,60,,,,,,,,,,,,,,"[""space"",""space"",""space"",""space"",""space"",""space"",""space"",""space"",""space"",""space"",""space"",""space"",""space"",""space"",""space"",""space"",""space"",""space"",""space"",""space"",""space""]","[0.8018350000058945,1.204954999993788,1.6874300000056337,2.2087999999930616,2.683179999992717,3.1842299999987063,3.6921949999957633,4.201270000004797,4.735830000004853,5.234404999995604,5.744680000003427,6.242679999995744,6.755204999994021,7.287630000006175,7.784499999994068,8.301865000001499,8.784134999994421,9.285000000003492,9.785029999999097,10.284820000000764,10.78396499999485]",space,0.403185,0.0,8.0,8.0,23.0,1.0,,
,,,,,,,,,,,block_2/medium_n_119_3.wav,no,n,medium,119.0,2.317779723,12.17918562,,,,yes,"Turtle beach, Ear Force Recon 50x Over-the-Ear Wired Gaming Headset",0,No,m,30,R,Yes,1,2020-09-07_12h08.36.208,kura-B2,2020.1.2,MacIntel,60,,,,,,,,,,,,,,"[""space"",""space"",""space"",""space"",""space"",""space"",""space"",""space"",""space"",""space"",""space"",""space"",""space"",""space"",""space"",""space"",""space"",""space"",""space"",""space""]","[1.782705000004853,2.276375000001053,2.7664000000074793,3.2393050000102903,3.61829500000772,4.08502500000759,4.5663550000024316,5.083215000006248,5.619295000011334,6.1165550000002895,6.65924000000814,7.105855000001611,7.607435000012629,8.08798999999999,8.583310000001575,9.074345000000903,9.556910000013886,10.035025000004907,10.520245000006753,11.01804500000435]",space,0.48433,0.0,9.0,9.0,22.0,1.0,,
,,,,,,,,,,,block_2/strong_n_105_3.wav,no,n,strong,105.0,2.095458379,13.32602527,,,,yes,"Turtle beach, Ear Force Recon 50x Over-the-Ear Wired Gaming Headset",0,No,m,30,R,Yes,1,2020-09-07_12h08.36.208,kura-B2,2020.1.2,MacIntel,60,,,,,,,,,,,,,,"[""space"",""space"",""space"",""space"",""space"",""space"",""space"",""space"",""space"",""space"",""space"",""space"",""space"",""space"",""space"",""space"",""space"",""space"",""space"",""space"",""space""]","[0.5079450000046108,1.1016749999982949,1.6892950000039946,2.2719399999912184,2.867350000000215,3.453070000003436,3.9917249999998603,4.579109999991488,5.186730000001035,5.788065000000643,6.342479999992065,6.906199999997625,7.469935000000987,8.076929999995855,8.656139999992092,9.193490000005113,9.754399999990937,10.33749499999999,10.95262499999103,11.511289999994915,12.126300000003539]",space,0.390965,0.0,10.0,10.0,9.0,1.0,,
,,,,,,,,,,,block_2/weak_n_81_3.wav,no,n,weak,81.0,2.376095497,17.43405468,,,,yes,"Turtle beach, Ear Force Recon 50x Over-the-Ear Wired Gaming Headset",0,No,m,30,R,Yes,1,2020-09-07_12h08.36.208,kura-B2,2020.1.2,MacIntel,60,,,,,,,,,,,,,,"[""space"",""space"",""space"",""space"",""space"",""space"",""space"",""space"",""space"",""space"",""space"",""space"",""space"",""space"",""space"",""space"",""space"",""space""]","[1.501145000002225,2.4025499999988824,3.4485450000067885,4.322795000000269,4.9773549999956685,5.687965000004851,6.42598500000895,7.1256250000008095,7.884275000003754,8.634200000000419,9.35294500000623,10.140285000001313,10.934655000004796,11.668669999999338,12.433680000001686,13.15331000000856,13.910205000007181,14.675310000005766]",space,0.454135,0.0,11.0,11.0,30.0,1.0,,
,,,,,,,,,,,block_2/medium_n_81_4.wav,no,n,medium,81.0,1.594727623,16.1032537,,,,yes,"Turtle beach, Ear Force Recon 50x Over-the-Ear Wired Gaming Headset",0,No,m,30,R,Yes,1,2020-09-07_12h08.36.208,kura-B2,2020.1.2,MacIntel,60,,,,,,,,,,,,,,"[""space"",""space"",""space"",""space"",""space"",""space"",""space"",""space"",""space"",""space"",""space"",""space"",""space"",""space"",""space"",""space"",""space"",""space"",""space"",""space"",""space""]","[0.2361150000069756,0.6704400000019177,1.440914999998995,2.2055450000043493,2.988209999995661,3.7756700000027195,4.528980000002775,5.276295000003074,5.979755000007572,6.692530000000261,7.440050000004703,8.175950000004377,8.923450000002049,9.66973500000313,10.404085000001714,11.121060000004945,11.853445000000875,12.57079500000691,13.355445000008103,14.051395000002458,14.744025000007468]",space,0.605665,0.0,12.0,12.0,38.0,1.0,,
,,,,,,,,,,,block_2/strong_n_119_3.wav,no,n,strong,119.0,2.299979207,12.06555744,,,,yes,"Turtle beach, Ear Force Recon 50x Over-the-Ear Wired Gaming Headset",0,No,m,30,R,Yes,1,2020-09-07_12h08.36.208,kura-B2,2020.1.2,MacIntel,60,,,,,,,,,,,,,,"[""space"",""space"",""space"",""space"",""space"",""space"",""space"",""space"",""space"",""space"",""space"",""space"",""space"",""space"",""space"",""space"",""space"",""space"",""space"",""space"",""space""]","[0.7846100000028855,1.2152750000097967,1.666920000003529,2.150885000010021,2.63384500000393,3.1548450000118464,3.634500000000344,4.118580000009388,4.617570000002161,5.082865000003949,5.6156250000062755,6.0858300000111285,6.56758000000309,7.082550000006677,7.542255000008026,8.032550000003539,8.534555000005867,9.04879000000119,9.500605000008363,10.000695000009955,10.502500000002328]",space,0.33731,0.0,13.0,13.0,16.0,1.0,,
,,,,,,,,,,,block_2/weak_n_72_4.wav,no,n,weak,72.0,1.671954957,17.64637673,,,,yes,"Turtle beach, Ear Force Recon 50x Over-the-Ear Wired Gaming Headset",0,No,m,30,R,Yes,1,2020-09-07_12h08.36.208,kura-B2,2020.1.2,MacIntel,60,,,,,,,,,,,,,,"[""space"",""space"",""space"",""space"",""space"",""space"",""space"",""space"",""space"",""space"",""space"",""space"",""space"",""space"",""space"",""space"",""space"",""space"",""space"",""space""]","[0.5341299999997773,1.2867499999993015,2.101215000002412,3.028139999995119,3.86757499999635,4.7510849999962375,5.607569999992847,6.390320000005886,7.242295000003651,8.034929999994347,8.867230000003474,9.638250000003836,10.505065000004834,11.368354999998473,12.176229999997076,13.011020000005374,13.866735000003018,14.735140000004321,15.539934999993648,16.391805000006798]",space,0.353275,0.0,14.0,14.0,4.0,1.0,,
,,,,,,,,,,,block_2/medium_n_92_4.wav,no,n,medium,92.0,1.021723279,13.61201806,,,,yes,"Turtle beach, Ear Force Recon 50x Over-the-Ear Wired Gaming Headset",0,No,m,30,R,Yes,1,2020-09-07_12h08.36.208,kura-B2,2020.1.2,MacIntel,60,,,,,,,,,,,,,,"[""space"",""space"",""space"",""space"",""space"",""space"",""space"",""space"",""space"",""space"",""space"",""space"",""space"",""space"",""space"",""space"",""space"",""space"",""space"",""space"",""space""]","[0.3224049999992076,0.9907899999959682,1.4689799999903244,2.1669599999875118,2.775204999997868,3.4013449999911245,4.101699999999255,4.714929999987362,5.318074999988312,5.916624999997794,6.555349999995315,7.209419999999227,7.81636499999172,8.432065000000875,9.043525000001182,9.699589999989485,10.323179999991908,10.94988499999431,11.56723000000079,12.177574999994476,13.11994499999878]",space,0.38803,0.0,15.0,15.0,11.0,1.0,,
,,,,,,,,,,,block_2/weak_n_119_4.wav,no,n,weak,119.0,1.653391966,12.42708811,,,,yes,"Turtle beach, Ear Force Recon 50x Over-the-Ear Wired Gaming Headset",0,No,m,30,R,Yes,1,2020-09-07_12h08.36.208,kura-B2,2020.1.2,MacIntel,60,,,,,,,,,,,,,,"[""space"",""space"",""space"",""space"",""space"",""space"",""space"",""space"",""space"",""space"",""space"",""space"",""space"",""space"",""space"",""space"",""space"",""space"",""space"",""space"",""space"",""space"",""space"",""space""]","[0.507815000004257,0.9068700000061654,1.2440800000040326,1.5289650000049733,1.8120100000089678,2.104730000006157,2.402929999996786,2.8802050000088,3.4419049999994513,4.063210000007757,4.506775000001426,5.0377450000087265,5.652994999996508,6.220295000006445,6.763915000002953,7.253725000002078,7.752785000003996,8.321340000009286,8.879840000008699,9.386494999999059,9.89259000000311,10.50209000000882,11.035210000001825,11.6374599999981]",space,0.46763,0.0,16.0,16.0,31.0,1.0,,
,,,,,,,,,,,block_2/strong_n_72_4.wav,no,n,strong,72.0,1.689031128,17.05764791,,,,yes,"Turtle beach, Ear Force Recon 50x Over-the-Ear Wired Gaming Headset",0,No,m,30,R,Yes,1,2020-09-07_12h08.36.208,kura-B2,2020.1.2,MacIntel,60,,,,,,,,,,,,,,"[""space"",""space"",""space"",""space"",""space"",""space"",""space"",""space"",""space"",""space"",""space"",""space"",""space"",""space"",""space"",""space"",""space"",""space"",""space"",""space"",""space""]","[0.8611849999870174,1.4315699999860954,2.2681849999935366,3.0885399999970105,3.91728999999782,4.6574049999910585,5.491339999993443,6.275324999995064,7.033554999987018,7.853199999997969,8.625189999991562,9.40495499999065,10.187244999993482,10.986804999993183,11.785804999992251,12.56015499999944,13.376029999999218,14.183444999987614,14.976104999994504,15.751389999990351,16.592049999991787]",space,0.5061,0.0,17.0,17.0,35.0,1.0,,
,,,,,,,,,,,block_2/none_n_105_3.wav,no,n,none,105.0,1.200203838,13.86165508,,,,yes,"Turtle beach, Ear Force Recon 50x Over-the-Ear Wired Gaming Headset",0,No,m,30,R,Yes,1,2020-09-07_12h08.36.208,kura-B2,2020.1.2,MacIntel,60,,,,,,,,,,,,,,"[""space"",""space"",""space"",""space"",""space"",""space"",""space"",""space"",""space"",""space"",""space"",""space"",""space"",""space"",""space"",""space"",""space"",""space"",""space"",""space"",""space"",""space"",""space""]","[0.48983000000589527,0.9288649999944028,1.8217049999946084,2.625019999992446,3.2586100000041824,3.8949849999917205,4.418879999997216,4.940184999999246,5.429294999994681,5.979514999998855,6.574674999996432,7.077590000000782,7.628865000006044,8.189574999996694,8.744229999996378,9.322384999991982,9.924104999998463,10.48519999999553,11.03904999999213,11.574150000000373,12.11969500000123,12.652294999992819,13.187630000000354]",space,0.409775,0.0,18.0,18.0,6.0,1.0,,
,,,,,,,,,,,block_2/none_n_105_4.wav,no,n,none,105.0,1.256367297,16.73296594,,,,yes,"Turtle beach, Ear Force Recon 50x Over-the-Ear Wired Gaming Headset",0,No,m,30,R,Yes,1,2020-09-07_12h08.36.208,kura-B2,2020.1.2,MacIntel,60,,,,,,,,,,,,,,"[""space"",""space"",""space"",""space"",""space"",""space"",""space"",""space"",""space"",""space"",""space"",""space"",""space"",""space"",""space"",""space"",""space"",""space"",""space"",""space"",""space"",""space"",""space"",""space""]","[0.5364750000007916,1.0994149999899037,1.701969999994617,2.9415949999963686,3.659904999993387,4.385994999989634,5.083859999999049,5.766049999990855,6.501104999988229,7.215429999996331,7.817279999988386,8.508129999987204,9.119454999992513,9.783969999989495,10.401024999999208,11.053159999996069,11.669394999989663,12.327724999995326,12.970014999998966,13.633759999996983,14.343334999997523,14.959989999988693,15.5852499999894,16.24299999998766]",space,0.50316,0.0,19.0,19.0,14.0,1.0,,
,,,,,,,,,,,block_2/medium_n_105_4.wav,no,n,medium,105.0,2.115061775,16.52181914,,,,yes,"Turtle beach, Ear Force Recon 50x Over-the-Ear Wired Gaming Headset",0,No,m,30,R,Yes,1,2020-09-07_12h08.36.208,kura-B2,2020.1.2,MacIntel,60,,,,,,,,,,,,,,"[""space"",""space"",""space"",""space"",""space"",""space"",""space"",""space"",""space"",""space"",""space"",""space"",""space"",""space"",""space"",""space"",""space"",""space"",""space"",""space"",""space""]","[0.20709500000498338,0.7079950000043027,1.2853449999968234,2.0738350000031005,2.970789999992121,3.7237500000046566,4.517349999994849,5.287889999992558,6.089810000004945,6.870735000004061,7.570485000003828,8.333859999998595,9.04964499999187,9.722500000003492,10.435769999996637,11.091465000004973,11.859540000004927,12.617559999999003,13.30357499999809,14.015769999998156,14.848904999991646]",space,0.33801,0.0,20.0,20.0,12.0,1.0,,
,,,,,,,,,,,block_2/medium_n_105_3.wav,no,n,medium,105.0,2.480661226,14.16274739,,,,yes,"Turtle beach, Ear Force Recon 50x Over-the-Ear Wired Gaming Headset",0,No,m,30,R,Yes,1,2020-09-07_12h08.36.208,kura-B2,2020.1.2,MacIntel,60,,,,,,,,,,,,,,"[""space"",""space"",""space"",""space"",""space"",""space"",""space"",""space"",""space"",""space"",""space"",""space"",""space"",""space"",""space"",""space"",""space"",""space"",""space"",""space"",""space""]","[0.4721750000026077,0.9423400000086986,1.4530500000109896,2.0502400000113994,2.614995000010822,3.216870000003837,3.820105000005924,4.333885000000009,4.921035000006668,5.506095000004507,6.100944999998546,6.700640000009798,7.270870000007562,7.855875000008382,8.400805000012042,9.002780000009807,9.621805000002496,10.18301500000257,10.786164999997709,11.337429999999813,11.932209999999031]",space,0.36847,0.0,21.0,21.0,0.0,1.0,,
,,,,,,,,,,,block_2/none_n_119_4.wav,no,n,none,119.0,1.538189981,14.89986799,,,,yes,"Turtle beach, Ear Force Recon 50x Over-the-Ear Wired Gaming Headset",0,No,m,30,R,Yes,1,2020-09-07_12h08.36.208,kura-B2,2020.1.2,MacIntel,60,,,,,,,,,,,,,,"[""space"",""space"",""space"",""space"",""space"",""space"",""space"",""space"",""space"",""space"",""space"",""space"",""space"",""space"",""space"",""space"",""space"",""space"",""space"",""space"",""space""]","[0.6268600000041715,1.234534999995958,2.1534400000093683,2.801435000001675,3.5097550000064075,4.124555000002374,4.754589999997279,5.4376250000061646,6.0922700000085115,6.801090000008344,7.517464999997401,8.185219999999617,8.834165000007488,9.567624999996497,10.293420000001788,11.033454999997502,11.685200000007171,12.349560000002384,13.018070000005764,13.721659999995836,14.36767000000691]",space,0.442475,0.0,22.0,22.0,20.0,1.0,,
,,,,,,,,,,,block_2/medium_n_72_3.wav,no,n,medium,72.0,1.994146771,18.06802432,,,,yes,"Turtle beach, Ear Force Recon 50x Over-the-Ear Wired Gaming Headset",0,No,m,30,R,Yes,1,2020-09-07_12h08.36.208,kura-B2,2020.1.2,MacIntel,60,,,,,,,,,,,,,,"[""space"",""space"",""space"",""space"",""space"",""space"",""space"",""space"",""space"",""space"",""space"",""space"",""space"",""space"",""space"",""space"",""space"",""space"",""space"",""space""]","[0.28325999999651685,1.6167849999906139,2.4431550000006155,3.2834799999980078,4.067324999996117,4.9187949999902685,5.784634999989066,6.584514999995008,7.401109999991377,8.226014999992458,9.084589999998343,9.867654999994329,10.719245,11.517939999990631,12.352350000001024,13.13822999999661,13.97133999998914,14.800919999993994,15.591164999990724,16.469444999995176]",space,0.38523,0.0,23.0,23.0,13.0,1.0,,
,,,,,,,,,,,block_2/none_n_72_4.wav,no,n,none,72.0,1.743803892,24.48607147,,,,yes,"Turtle beach, Ear Force Recon 50x Over-the-Ear Wired Gaming Headset",0,No,m,30,R,Yes,1,2020-09-07_12h08.36.208,kura-B2,2020.1.2,MacIntel,60,,,,,,,,,,,,,,"[""space"",""space"",""space"",""space"",""space"",""space"",""space"",""space"",""space"",""space"",""space"",""space"",""space"",""space"",""space"",""space"",""space"",""space"",""space"",""space"",""space"",""space"",""space"",""space"",""space"",""space"",""space"",""space"",""space"",""space"",""space"",""space"",""space"",""space"",""space"",""space"",""space"",""space"",""space"",""space""]","[0.4352800000051502,0.8357450000037261,1.4602900000029422,2.006275000006781,2.7033000000080847,3.6792350000030183,4.307184999997617,4.937019999997801,5.536099999997532,6.170905000006314,6.736434999998892,7.2707599999992,7.904024999996182,8.535650000005262,9.170695000007981,9.753429999996797,10.337509999997337,10.937300000004825,11.522485000008828,12.13521500000229,12.694784999999683,13.244975000008708,13.796809999999823,14.361430000004248,14.908830000000307,15.457049999997253,16.021884999994654,16.56905000000529,17.129650000002812,17.693265000008978,18.30646500000148,18.88910499999497,19.43989500000339,19.99354999999946,20.561340000000428,21.07206500000052,21.61849500000244,22.139750000002095,22.645065000004024,23.271269999997457]",space,0.59073,0.0,24.0,24.0,21.0,1.0,,
,,,,,,,,,,,block_2/strong_n_92_3.wav,no,n,strong,92.0,1.019287146,13.50967263,,,,yes,"Turtle beach, Ear Force Recon 50x Over-the-Ear Wired Gaming Headset",0,No,m,30,R,Yes,1,2020-09-07_12h08.36.208,kura-B2,2020.1.2,MacIntel,60,,,,,,,,,,,,,,"[""space"",""space"",""space"",""space"",""space"",""space"",""space"",""space"",""space"",""space"",""space"",""space"",""space"",""space"",""space"",""space"",""space"",""space"",""space"",""space"",""space""]","[0.7792500000070959,1.428165000004583,2.0378700000001118,2.6961949999968056,3.287244999999757,3.923250000006874,4.585115000009182,5.221420000001899,5.8768450000063694,6.5050500000070315,7.127625000008493,7.739524999997002,8.338134999998147,8.991359999999759,9.635840000002645,10.254079999998567,10.869294999996555,11.519190000006574,12.162345000004507,12.786644999999908,13.4604499999989]",space,0.619365,0.0,25.0,25.0,39.0,1.0,,
,,,,,,,,,,,block_2/strong_n_81_4.wav,no,n,strong,81.0,1.736263272,17.70810001,,,,yes,"Turtle beach, Ear Force Recon 50x Over-the-Ear Wired Gaming Headset",0,No,m,30,R,Yes,1,2020-09-07_12h08.36.208,kura-B2,2020.1.2,MacIntel,60,,,,,,,,,,,,,,"[""space"",""space"",""space"",""space"",""space"",""space"",""space"",""space"",""space"",""space"",""space"",""space"",""space"",""space"",""space"",""space"",""space"",""space"",""space"",""space""]","[0.8022449999989476,1.7783650000055786,2.620965000009164,3.4032450000088375,4.213060000009136,5.0365250000031665,5.845230000006268,6.622279999995726,7.461760000005597,8.257809999995743,9.059779999995726,9.843565000003082,10.629035000005615,11.438680000006343,12.31050999999593,13.168659999995725,13.972930000003771,14.73844000000122,15.561484999998129,16.35334499999567]",space,0.43506,0.0,26.0,26.0,1.0,1.0,,
,,,,,,,,,,,block_2/strong_n_92_4.wav,no,n,strong,92.0,1.480736093,15.18463632,,,,yes,"Turtle beach, Ear Force Recon 50x Over-the-Ear Wired Gaming Headset",0,No,m,30,R,Yes,1,2020-09-07_12h08.36.208,kura-B2,2020.1.2,MacIntel,60,,,,,,,,,,,,,,"[""space"",""space"",""space"",""space"",""space"",""space"",""space"",""space"",""space"",""space"",""space"",""space"",""space"",""space"",""space"",""space"",""space"",""space"",""space"",""space""]","[0.8021500000031665,1.4208000000069205,2.0289950000005774,2.6872799999980543,3.412060000002384,4.153745000003028,4.902994999996508,5.535675000006222,6.2371899999996,6.986275000002479,7.65963999999758,8.373389999992924,9.107445000001007,9.818790000004583,10.492780000000039,11.190350000004173,11.929390000004787,12.654599999994161,13.36926500000095,14.037060000002384]",space,0.80343,0.0,27.0,27.0,34.0,1.0,,
,,,,,,,,,,,block_2/none_n_92_3.wav,no,n,none,92.0,2.008897919,17.90894327,,,,yes,"Turtle beach, Ear Force Recon 50x Over-the-Ear Wired Gaming Headset",0,No,m,30,R,Yes,1,2020-09-07_12h08.36.208,kura-B2,2020.1.2,MacIntel,60,,,,,,,,,,,,,,"[""space"",""space"",""space"",""space"",""space"",""space"",""space"",""space"",""space"",""space"",""space"",""space"",""space"",""space"",""space"",""space"",""space"",""space"",""space"",""space"",""space"",""space""]","[0.2619999999878928,0.944099999993341,1.610204999989719,2.4353849999897648,3.368209999985993,4.245734999989736,5.037364999996498,5.813784999991412,6.6776749999987715,7.772364999996853,8.52601999999024,9.319594999993797,10.056569999986095,10.708344999991823,11.427164999986644,12.125409999993053,12.876014999987092,13.631019999985938,14.409254999991617,15.226279999988265,16.007099999987986,16.739094999997178]",space,0.343475,0.0,28.0,28.0,25.0,1.0,,
,,,,,,,,,,,block_2/none_n_119_3.wav,no,n,none,119.0,1.37370001,14.3364211,,,,yes,"Turtle beach, Ear Force Recon 50x Over-the-Ear Wired Gaming Headset",0,No,m,30,R,Yes,1,2020-09-07_12h08.36.208,kura-B2,2020.1.2,MacIntel,60,,,,,,,,,,,,,,"[""space"",""space"",""space"",""space"",""space"",""space"",""space"",""space"",""space"",""space"",""space"",""space"",""space"",""space"",""space"",""space"",""space"",""space"",""space"",""space"",""space"",""space"",""space"",""space"",""space"",""space"",""space"",""space"",""space"",""space""]","[0.3194250000090051,1.1399249999958556,1.735830000004853,2.01248499999906,2.4038799999980256,2.819124999994756,3.292085000008001,3.7433849999945323,4.162440000000288,4.612259999994421,5.0580100000079256,5.458144999997103,5.903810000003659,6.346350000007078,6.786175000000867,7.25782500000787,7.668480000007776,8.107550000000401,8.544055000005756,8.986665000003995,9.412100000001146,9.872344999996358,10.303415000002133,10.751189999995631,11.203980000005913,11.654040000008763,12.086989999996376,12.569709999995894,13.018670000004704,13.487965000007534]",space,0.35616,0.0,29.0,29.0,24.0,1.0,,
,,,,,,,,,,,block_2/weak_n_72_3.wav,no,n,weak,72.0,1.604938988,17.47283014,,,,yes,"Turtle beach, Ear Force Recon 50x Over-the-Ear Wired Gaming Headset",0,No,m,30,R,Yes,1,2020-09-07_12h08.36.208,kura-B2,2020.1.2,MacIntel,60,,,,,,,,,,,,,,"[""space"",""space"",""space"",""space"",""space"",""space"",""space"",""space"",""space"",""space"",""space"",""space"",""space"",""space"",""space"",""space"",""space"",""space"",""space"",""space"",""space""]","[0.3669649999937974,1.0348450000017237,1.9992550000019946,2.722970000002533,3.434265000003279,4.220269999990705,5.020709999996825,5.839019999999209,6.634460000000672,7.437355000001844,8.250254999991284,9.019749999991973,9.800795000002609,10.550594999993109,11.299324999999499,12.073720000000094,12.888454999992746,13.674224999994749,14.484609999999293,15.267475000000559,16.087220000001025]",space,0.4568,0.0,30.0,30.0,8.0,1.0,,
,,,,,,,,,,,block_2/strong_n_72_3.wav,no,n,strong,72.0,2.337906276,17.4032124,,,,yes,"Turtle beach, Ear Force Recon 50x Over-the-Ear Wired Gaming Headset",0,No,m,30,R,Yes,1,2020-09-07_12h08.36.208,kura-B2,2020.1.2,MacIntel,60,,,,,,,,,,,,,,"[""space"",""space"",""space"",""space"",""space"",""space"",""space"",""space"",""space"",""space"",""space"",""space"",""space"",""space"",""space"",""space"",""space"",""space"",""space"",""space""]","[0.5732900000002701,1.5234400000047117,2.2925700000048437,3.0784600000040427,3.820534999991878,4.646450000000186,5.4030849999981,6.207184999992251,6.953259999994543,7.7091399999917485,8.491909999996778,9.26320499999565,10.003559999997151,10.797364999991487,11.54714500000432,12.330119999998715,13.109784999993053,13.859660000002123,14.636675000001787,15.456239999999525]",space,0.41843,0.0,31.0,31.0,32.0,1.0,,
,,,,,,,,,,,block_2/medium_n_72_4.wav,no,n,medium,72.0,1.35197092,15.86054235,,,,yes,"Turtle beach, Ear Force Recon 50x Over-the-Ear Wired Gaming Headset",0,No,m,30,R,Yes,1,2020-09-07_12h08.36.208,kura-B2,2020.1.2,MacIntel,60,,,,,,,,,,,,,,"[""space"",""space"",""space"",""space"",""space"",""space"",""space"",""space"",""space"",""space"",""space"",""space"",""space"",""space"",""space"",""space"",""space"",""space"",""space"",""space""]","[0.5413049999915529,1.5682549999910407,2.25652999999852,3.0376949999915723,3.768374999999878,4.50017499999376,5.185384999989765,5.950939999994944,6.733874999991031,7.449874999991152,8.203679999991664,8.892159999988507,9.641264999998612,10.373344999999972,11.134794999990845,11.872189999994589,12.604849999988573,13.30086499999743,14.018094999991945,14.78244499998982]",space,0.33505,0.0,32.0,32.0,7.0,1.0,,
,,,,,,,,,,,block_2/strong_n_105_4.wav,no,n,strong,105.0,1.723608797,13.55862014,,,,yes,"Turtle beach, Ear Force Recon 50x Over-the-Ear Wired Gaming Headset",0,No,m,30,R,Yes,1,2020-09-07_12h08.36.208,kura-B2,2020.1.2,MacIntel,60,,,,,,,,,,,,,,"[""space"",""space"",""space"",""space"",""space"",""space"",""space"",""space"",""space"",""space"",""space"",""space"",""space"",""space"",""space"",""space"",""space"",""space"",""space"",""space"",""space""]","[0.3944999999948777,0.8399199999985285,1.3156250000031378,1.9056850000051782,2.5257249999997384,3.1536700000001474,3.7502249999965898,4.317399999999907,4.934624999994412,5.550799999997707,6.153544999993983,6.700834999996459,7.29889000000594,7.916440000000875,8.520405000003166,9.137474999995902,9.766570000007505,10.349499999996851,10.922214999999142,11.519534999999905,12.126359999994747]",space,0.44709,0.0,33.0,33.0,3.0,1.0,,
,,,,,,,,,,,block_2/weak_n_81_4.wav,no,n,weak,81.0,1.139338257,16.19847658,,,,yes,"Turtle beach, Ear Force Recon 50x Over-the-Ear Wired Gaming Headset",0,No,m,30,R,Yes,1,2020-09-07_12h08.36.208,kura-B2,2020.1.2,MacIntel,60,,,,,,,,,,,,,,"[""space"",""space"",""space"",""space"",""space"",""space"",""space"",""space"",""space"",""space"",""space"",""space"",""space"",""space"",""space"",""space"",""space"",""space"",""space"",""space""]","[0.20633499999530613,1.1409449999919161,1.9041149999973186,2.667449999993323,3.4335649999991347,4.222849999990558,5.0183149999938905,5.769344999993109,6.603499999996984,7.582254999986162,8.342759999999089,9.103359999993472,9.89167499999121,10.649849999987055,11.39017499999295,12.159619999991264,12.93395999999484,13.751144999987446,14.538949999986926,15.365579999997635]",space,0.35438,0.0,34.0,34.0,36.0,1.0,,
,,,,,,,,,,,block_2/weak_n_92_3.wav,no,n,weak,92.0,2.16711471,14.91038002,,,,yes,"Turtle beach, Ear Force Recon 50x Over-the-Ear Wired Gaming Headset",0,No,m,30,R,Yes,1,2020-09-07_12h08.36.208,kura-B2,2020.1.2,MacIntel,60,,,,,,,,,,,,,,"[""space"",""space"",""space"",""space"",""space"",""space"",""space"",""space"",""space"",""space"",""space"",""space"",""space"",""space"",""space"",""space"",""space"",""space"",""space"",""space""]","[0.35164999999688007,1.2079550000050858,1.8908050000027288,2.551424999998062,3.2191949999980807,3.922900000005029,4.5191500000073574,5.160920000009128,5.791695000007394,6.459745000000112,7.11002000000758,7.8387099999961265,8.510909999997466,9.12227999999618,9.776379999995697,10.41973500000313,11.100365000005922,11.71904500000528,12.368524999998044,13.115950000006706]",space,0.62504,0.0,35.0,35.0,5.0,1.0,,
,,,,,,,,,,,block_2/medium_n_81_3.wav,no,n,medium,81.0,2.235189468,17.75582439,,,,yes,"Turtle beach, Ear Force Recon 50x Over-the-Ear Wired Gaming Headset",0,No,m,30,R,Yes,1,2020-09-07_12h08.36.208,kura-B2,2020.1.2,MacIntel,60,,,,,,,,,,,,,,"[""space"",""space"",""space"",""space"",""space"",""space"",""space"",""space"",""space"",""space"",""space"",""space"",""space"",""space"",""space"",""space"",""space"",""space"",""space"",""space""]","[0.6270649999930811,1.1706449999908273,2.153674999993882,2.953179999996564,3.852294999989681,4.659780000001547,5.453584999995428,6.253469999996014,7.0874249999903896,7.86934499999893,8.67773499998998,9.406929999997374,10.219205000000784,11.069909999990614,11.887074999991228,12.653179999993426,13.52800999999431,14.253479999999172,15.069559999988769,15.905859999998938]",space,0.51786,0.0,36.0,36.0,33.0,1.0,,
,,,,,,,,,,,block_2/none_n_72_3.wav,no,n,none,72.0,2.393872505,24.12062987,,,,yes,"Turtle beach, Ear Force Recon 50x Over-the-Ear Wired Gaming Headset",0,No,m,30,R,Yes,1,2020-09-07_12h08.36.208,kura-B2,2020.1.2,MacIntel,60,,,,,,,,,,,,,,"[""space"",""space"",""space"",""space"",""space"",""space"",""space"",""space"",""space"",""space"",""space"",""space"",""space"",""space"",""space"",""space"",""space"",""space"",""space"",""space"",""space"",""space"",""space"",""space"",""space"",""space"",""space"",""space"",""space"",""space"",""space"",""space"",""space"",""space"",""space"",""space"",""space""]","[0.41707999999948697,0.9583900000000085,1.925264999998035,2.6351399999985006,3.2852899999998044,3.9883699999920736,4.574154999995017,5.2007299999970655,5.817729999994981,6.38491999999701,7.021229999998241,7.624289999992243,8.258014999999432,8.836584999997513,9.435224999993807,9.975944999998092,10.584884999989299,11.150150000001304,11.767930000001797,12.318999999988591,12.86961999999744,13.434844999996358,13.972604999988107,14.542994999996154,15.104884999993601,15.65737000000081,16.210664999991423,16.751794999989215,17.242245000001276,17.835344999999506,18.35640999999282,18.91870499998913,19.453569999997626,20.026324999999133,20.543439999994234,21.099940000000288,21.674509999997326]",space,0.369795,0.0,37.0,37.0,18.0,1.0,,
,,,,,,,,,,,block_2/weak_n_105_4.wav,no,n,weak,105.0,1.277365727,12.0504723,,,,yes,"Turtle beach, Ear Force Recon 50x Over-the-Ear Wired Gaming Headset",0,No,m,30,R,Yes,1,2020-09-07_12h08.36.208,kura-B2,2020.1.2,MacIntel,60,,,,,,,,,,,,,,"[""space"",""space"",""space"",""space"",""space"",""space"",""space"",""space"",""space"",""space"",""space"",""space"",""space"",""space"",""space"",""space"",""space"",""space"",""space"",""space"",""space"",""space""]","[0.3208149999993566,0.9496599999986302,1.4360100000048988,1.9408600000028855,2.5339000000099077,3.070110000001023,3.618215000009741,4.215725000002067,4.767500000001974,5.268830000001117,5.816995000001043,6.332725000000437,6.808590000001004,7.367270000002691,7.850370000000112,8.36899499999754,8.935415000000148,9.451385000007804,9.975315000003548,10.459654999998975,10.983005000002095,11.55086000000324]",space,0.391715,0.0,38.0,38.0,28.0,1.0,,
,,,,,,,,,,,block_2/none_n_81_4.wav,no,n,none,81.0,1.032736778,20.98466422,,,,yes,"Turtle beach, Ear Force Recon 50x Over-the-Ear Wired Gaming Headset",0,No,m,30,R,Yes,1,2020-09-07_12h08.36.208,kura-B2,2020.1.2,MacIntel,60,,,,,,,,,,,,,,"[""space"",""space"",""space"",""space"",""space"",""space"",""space"",""space"",""space"",""space"",""space"",""space"",""space"",""space"",""space"",""space"",""space"",""space"",""space"",""space"",""space"",""space"",""space"",""space"",""space"",""space"",""space"",""space"",""space"",""space"",""space"",""space"",""space"",""space"",""space"",""space"",""space"",""space""]","[0.5213899999946534,0.9892200000033426,1.4676449999974466,1.9174749999951928,2.4550799999999526,3.1525399999957244,3.784379999997782,4.410300000003417,4.93498000000568,5.508650000003854,6.04114499999605,6.619705000004842,7.141965000002756,7.734355000008009,8.30813499999931,8.825125000003482,9.350755000006984,9.900924999994913,10.438800000003539,10.967355000001135,11.488704999996571,12.020944999996573,12.568480000001955,13.111260000005586,13.619455000007747,14.16810999999916,14.70671500000799,15.217709999997169,15.751440000007506,16.252320000000054,16.751109999997652,17.299280000007002,17.83457000000635,18.323575000002393,18.800019999995584,19.306259999997792,19.85097499999415,20.40931499999715]",space,0.500495,0.0,39.0,39.0,26.0,1.0,,
,,,,,,,,,,,,,,,,,,,,,yes,"Turtle beach, Ear Force Recon 50x Over-the-Ear Wired Gaming Headset",0,No,m,30,R,Yes,1,2020-09-07_12h08.36.208,kura-B2,2020.1.2,MacIntel,60,,,,,,,,,,,,,,,,,,,,,,,space,6.618115
