key_resp.keys,key_resp.rt,practice_taps.keys,practice_taps.rt,keyresp.keys,keyresp.rt,practice_stims_loop.thisRepN,practice_stims_loop.thisTrialN,practice_stims_loop.thisN,practice_stims_loop.thisIndex,practice_stims_loop.ran,sndfile,type,tempo,cond,version,delay,dur,Participant Initials,"If you are a MTurk worker, what is your MTurk worker ID?","If you are not an MTurk worker, please provide your email address",Are you wearing headphones?,What are the headphone make and model?,"How many years of musical training, if any, do you have?",Do you have any hearing problems? Please describe,What is your sex (f/m/decline)?,What is your age?,What is your handedness (R/L/ambi)?,Are you currently in a secure and quiet room without a possible interruption?,session,date,expName,psychopyVersion,OS,frameRate,instructions_prompt.keys,instructions_prompt.rt,block1_taps.keys,block1_taps.rt,key_resp_2.keys,key_resp_2.rt,trials.thisRepN,trials.thisTrialN,trials.thisN,trials.thisIndex,trials.ran,key_resp2.keys,key_resp2.rt,block2_taps.keys,block2_taps.rt,key_resp_3.keys,key_resp_3.rt,trials_2.thisRepN,trials_2.thisTrialN,trials_2.thisN,trials_2.thisIndex,trials_2.ran,key_resp_4.keys,key_resp_4.rt
space,14.25,"[""space"",""space"",""space"",""space"",""space"",""space"",""space"",""space"",""space"",""space"",""space"",""space"",""space"",""space"",""space"",""space"",""space"",""space"",""space"",""space""]","[1.0470000000000113,1.6500000000000057,2.2989999999999995,2.990000000000002,3.836999999999996,4.689,5.586999999999996,6.255000000000003,6.988000000000007,7.788999999999994,8.571999999999996,9.288999999999994,10.041000000000004,10.842999999999996,11.574999999999996,12.326,13.077999999999996,13.845000000000006,14.529000000000003,15.300000000000004]",space,1.689,0.0,0.0,0.0,1.0,1.0,block_2/strong_n_81_1.wav,no,n,strong,81.0,1.854905178,16.81653783,,,,yes,"Cowin, don't know the model",0,,,,,,1,2020-09-16_15h23.50.906,kura-B1,2020.1.2,Win32,60,,,,,,,,,,,,,,,,,,,,,,,,
,,"[""space"",""space"",""space"",""space"",""space"",""space"",""space"",""space"",""space"",""space"",""space"",""space"",""space"",""space"",""space"",""space"",""space"",""space"",""space"",""space"",""space"",""space"",""space"",""space"",""space"",""space"",""space"",""space"",""space"",""space"",""space"",""space"",""space"",""space"",""space"",""space"",""space"",""space"",""space"",""space"",""space"",""space"",""space"",""space"",""space"",""space"",""space"",""space"",""space"",""space"",""space"",""space"",""space"",""space"",""space"",""space"",""space"",""space"",""space"",""space"",""space"",""space"",""space"",""space"",""space"",""space"",""space"",""space"",""space"",""space"",""space"",""space"",""space"",""space"",""space"",""space"",""space"",""space"",""space"",""space"",""space"",""space"",""space"",""space"",""space"",""space"",""space"",""space"",""space"",""space"",""space"",""space"",""space"",""space"",""space"",""space"",""space"",""space"",""space"",""space"",""space"",""space"",""space""]","[0.7010000000000076,0.8850000000000051,1.085000000000008,1.4520000000000124,1.6210000000000093,1.7890000000000015,1.9380000000000024,2.0870000000000033,2.2700000000000102,2.4520000000000124,2.622,2.805000000000007,3.004000000000005,3.190000000000012,3.3900000000000006,3.5740000000000123,3.7720000000000056,3.939000000000007,4.122,4.2890000000000015,4.4879999999999995,4.689000000000007,4.873000000000005,5.038000000000011,5.2379999999999995,5.423000000000002,5.590000000000003,5.790000000000006,5.957999999999998,6.157000000000011,6.338999999999999,6.524000000000001,6.7109999999999985,6.910000000000011,7.121000000000009,7.291000000000011,7.478000000000009,7.675000000000011,7.8629999999999995,8.047000000000011,8.229,8.408000000000001,8.591999999999999,8.777000000000001,8.960000000000008,9.14500000000001,9.310000000000002,9.478000000000009,9.662000000000006,9.844999999999999,10.031000000000006,10.213000000000008,10.381,10.565000000000012,10.762,10.946000000000012,11.129000000000005,11.313000000000002,11.527000000000001,11.699000000000012,11.894000000000005,12.12700000000001,12.300000000000011,12.516000000000005,12.716000000000008,12.913000000000011,13.135000000000005,13.331000000000003,13.518,13.734000000000009,13.951000000000008,14.149000000000001,14.334000000000003,14.548000000000002,14.733000000000004,14.932000000000002,15.117000000000004,15.318000000000012,15.503,15.719000000000008,15.902000000000001,16.117000000000004,16.30000000000001,16.48400000000001,16.66600000000001,16.866,17.068000000000012,17.251000000000005,17.421000000000006,17.62100000000001,17.834000000000003,18.022000000000006,18.207000000000008,18.423000000000002,18.620000000000005,18.819000000000003,19.036,19.22200000000001,19.436000000000007,19.63600000000001,19.838000000000008,20.03800000000001,20.22200000000001]",space,2.37,0.0,1.0,1.0,3.0,1.0,block_2/weak_n_72_2.wav,no,n,weak,72.0,1.63372301,21.59472074,,,,yes,"Cowin, don't know the model",0,,,,,,1,2020-09-16_15h23.50.906,kura-B1,2020.1.2,Win32,60,,,,,,,,,,,,,,,,,,,,,,,,
,,"[""space"",""space"",""space"",""space"",""space"",""space"",""space"",""space"",""space"",""space"",""space"",""space"",""space"",""space"",""space"",""space"",""space"",""space"",""space"",""space"",""space"",""space"",""space"",""space"",""space"",""space"",""space"",""space"",""space"",""space"",""space"",""space"",""space"",""space"",""space"",""space"",""space"",""space"",""space"",""space"",""space"",""space"",""space"",""space"",""space"",""space"",""space"",""space"",""space"",""space"",""space"",""space"",""space"",""space"",""space"",""space"",""space"",""space"",""space"",""space""]","[1.3670000000000044,1.5889999999999986,1.7860000000000014,1.9369999999999976,2.103999999999999,2.3359999999999985,2.5420000000000016,2.719999999999999,3.0360000000000014,3.2220000000000084,3.4210000000000065,3.653000000000006,3.8710000000000093,4.063000000000002,4.256,4.4879999999999995,4.688000000000002,4.89200000000001,5.091000000000008,5.308000000000007,5.50800000000001,5.7250000000000085,5.924000000000007,6.109999999999999,6.328000000000003,6.527000000000001,6.7250000000000085,6.942999999999998,7.158000000000001,7.376000000000005,7.575000000000003,7.759,7.9750000000000085,8.161000000000001,8.369,8.563000000000002,8.77600000000001,8.994,9.194000000000003,9.394000000000005,9.594000000000008,9.798000000000002,10.078000000000003,10.302999999999997,10.51100000000001,10.712000000000003,10.944000000000003,11.165999999999997,11.396,11.613,11.829000000000008,12.046000000000006,12.247,12.430000000000007,12.63000000000001,12.829999999999998,13.064000000000007,13.231000000000009,13.448000000000008,13.64800000000001]",space,1.056,0.0,2.0,2.0,2.0,1.0,block_1/weak_t_92_1.wav,timbre,t,weak,92.0,2.207238706,15.60342918,,,,yes,"Cowin, don't know the model",0,,,,,,1,2020-09-16_15h23.50.906,kura-B1,2020.1.2,Win32,60,,,,,,,,,,,,,,,,,,,,,,,,
,,"[""space"",""space"",""space"",""space"",""space"",""space"",""space"",""space"",""space"",""space"",""space"",""space"",""space"",""space"",""space"",""space"",""space"",""space"",""space"",""space"",""space"",""space"",""space"",""space"",""space"",""space"",""space"",""space"",""space"",""space"",""space"",""space"",""space"",""space"",""space"",""space"",""space"",""space"",""space"",""space"",""space"",""space"",""space""]","[0.7540000000000191,1.021000000000015,1.3880000000000052,1.5260000000000105,1.9879999999999995,2.1580000000000155,2.3389999999999986,2.772999999999996,2.921999999999997,3.3070000000000164,3.4610000000000127,3.8610000000000184,4.046000000000021,4.540999999999997,4.7590000000000146,4.9410000000000025,5.342000000000013,5.510000000000019,5.692000000000007,6.061000000000007,6.228000000000009,6.677000000000021,6.861000000000018,7.397999999999996,7.564999999999998,7.998999999999995,8.182000000000016,8.662000000000006,8.846000000000004,9.313000000000017,9.485000000000014,10.030000000000001,10.213999999999999,10.664000000000016,10.847000000000008,11.265000000000015,11.437000000000012,11.882000000000005,12.069000000000017,12.533000000000015,12.717000000000013,13.167000000000002,13.350000000000023]",space,1.619,0.0,3.0,3.0,0.0,1.0,block_1/medium_t_92_2.wav,timbre,t,medium,92.0,1.17246814,14.21682188,,,,yes,"Cowin, don't know the model",0,,,,,,1,2020-09-16_15h23.50.906,kura-B1,2020.1.2,Win32,60,,,,,,,,,,,,,,,,,,,,,,,,
,,,,,,,,,,,block_1/medium_t_81_2.wav,timbre,t,medium,81.0,1.849325936,17.01676358,,,,yes,"Cowin, don't know the model",0,,,,,,1,2020-09-16_15h23.50.906,kura-B1,2020.1.2,Win32,60,space,8.08,"[""space"",""space"",""space"",""space"",""space"",""space"",""space"",""space"",""space"",""space"",""space"",""space"",""space"",""space"",""space"",""space"",""space"",""space"",""space"",""space"",""space"",""space"",""space"",""space"",""space"",""space"",""space"",""space"",""space"",""space"",""space"",""space"",""space"",""space"",""space"",""space"",""space"",""space"",""space"",""space"",""space"",""space"",""space"",""space"",""space"",""space"",""space"",""space"",""space"",""space"",""space"",""space""]","[0.8019999999999925,1.0360000000000014,1.2510000000000048,1.4039999999999964,1.867999999999995,2.016999999999996,2.187999999999988,2.608000000000004,2.771000000000015,2.959000000000003,3.490000000000009,3.671999999999997,3.8259999999999934,4.253999999999991,4.4269999999999925,4.593999999999994,5.106999999999999,5.289999999999992,5.456999999999994,5.923000000000002,6.074999999999989,6.641999999999996,6.794000000000011,6.957999999999998,7.542000000000002,7.692000000000007,8.244,8.411000000000001,8.578000000000003,9.066000000000003,9.244,9.409999999999997,9.86699999999999,10.049000000000007,10.259999999999991,10.695999999999998,10.834000000000003,11.346000000000004,11.51400000000001,11.667000000000002,12.213999999999999,12.397999999999996,12.566000000000003,12.980999999999995,13.164000000000016,13.665999999999997,13.834000000000003,13.998999999999995,14.533999999999992,14.699000000000012,15.40100000000001,15.586000000000013]",space,0.848,0.0,0.0,0.0,7.0,1.0,,,,,,,,,,,,,
,,,,,,,,,,,block_1/none_t_119_1.wav,timbre,t,none,119.0,1.970403652,15.3319456,,,,yes,"Cowin, don't know the model",0,,,,,,1,2020-09-16_15h23.50.906,kura-B1,2020.1.2,Win32,60,,,"[""space"",""space"",""space"",""space"",""space"",""space"",""space"",""space"",""space"",""space"",""space"",""space"",""space"",""space"",""space"",""space"",""space"",""space"",""space"",""space"",""space"",""space"",""space"",""space"",""space"",""space"",""space"",""space"",""space"",""space"",""space"",""space"",""space"",""space"",""space"",""space"",""space"",""space"",""space"",""space"",""space"",""space"",""space"",""space"",""space"",""space"",""space"",""space"",""space"",""space"",""space"",""space"",""space"",""space"",""space"",""space"",""space"",""space"",""space"",""space"",""space"",""space"",""space"",""space"",""space"",""space""]","[0.5699999999999932,0.7860000000000014,0.9399999999999977,1.2369999999999948,1.4029999999999916,1.5699999999999932,1.7399999999999807,1.9029999999999916,2.086999999999989,2.269999999999982,2.47199999999998,2.671999999999997,2.8549999999999898,3.0049999999999955,3.187999999999988,3.3719999999999857,3.555000000000007,3.7390000000000043,3.921999999999997,4.1089999999999804,4.305999999999983,4.494,4.674000000000007,4.8559999999999945,5.043999999999983,5.222999999999985,5.406999999999982,5.590000000000003,5.790999999999997,6.007999999999981,6.1910000000000025,6.409999999999997,6.608000000000004,6.792000000000002,7.007999999999981,7.209000000000003,7.393000000000001,7.6129999999999995,7.813999999999993,8.013000000000005,8.227000000000004,8.430000000000007,8.644999999999982,8.859999999999985,9.076999999999998,9.260999999999996,9.460999999999984,9.662000000000006,9.86099999999999,10.061999999999983,10.280000000000001,10.513000000000005,10.71799999999999,10.947999999999979,11.180000000000007,11.395999999999987,11.629999999999995,11.863,12.068999999999988,12.300999999999988,12.516999999999996,12.73399999999998,12.948999999999984,13.165999999999997,13.394999999999982,13.61499999999998]",space,0.968,0.0,1.0,1.0,39.0,1.0,,,,,,,,,,,,,
,,,,,,,,,,,block_1/weak_t_92_2.wav,timbre,t,weak,92.0,1.028761509,16.1946572,,,,yes,"Cowin, don't know the model",0,,,,,,1,2020-09-16_15h23.50.906,kura-B1,2020.1.2,Win32,60,,,"[""space"",""space"",""space"",""space"",""space"",""space"",""space"",""space"",""space"",""space"",""space"",""space"",""space"",""space"",""space"",""space"",""space"",""space"",""space"",""space"",""space"",""space"",""space"",""space"",""space"",""space"",""space"",""space"",""space"",""space"",""space"",""space"",""space"",""space"",""space"",""space"",""space"",""space"",""space"",""space"",""space"",""space"",""space"",""space"",""space"",""space"",""space"",""space"",""space"",""space"",""space"",""space"",""space"",""space"",""space"",""space""]","[0.5689999999999884,0.7709999999999866,0.9519999999999982,1.3529999999999802,1.502999999999986,2.002999999999986,2.1699999999999875,2.703000000000003,2.8549999999999898,3.0219999999999914,3.4879999999999995,3.655000000000001,3.8389999999999986,4.288999999999987,4.454999999999984,4.606999999999999,5.039999999999992,5.207999999999998,5.375,5.774999999999977,5.9739999999999895,6.156999999999982,6.59099999999998,6.758999999999986,6.941999999999979,7.359999999999985,7.542999999999978,7.758999999999986,8.175999999999988,8.359999999999985,8.593999999999994,8.994,9.177999999999997,9.36099999999999,9.744999999999976,9.927999999999997,10.111999999999995,10.512999999999977,10.679999999999978,10.895999999999987,11.313999999999993,11.515999999999991,11.712999999999994,12.163999999999987,12.335999999999984,12.581999999999994,12.99799999999999,13.198999999999984,13.399000000000001,13.84899999999999,14.033999999999992,14.282999999999987,14.683999999999997,14.900999999999982,15.283999999999992,15.500999999999976]",space,0.902,0.0,2.0,2.0,37.0,1.0,,,,,,,,,,,,,
,,,,,,,,,,,block_1/weak_t_105_2.wav,timbre,t,weak,105.0,2.298632362,16.24153486,,,,yes,"Cowin, don't know the model",0,,,,,,1,2020-09-16_15h23.50.906,kura-B1,2020.1.2,Win32,60,,,"[""space"",""space"",""space"",""space"",""space"",""space"",""space"",""space"",""space"",""space"",""space"",""space"",""space"",""space"",""space"",""space"",""space"",""space"",""space"",""space"",""space"",""space"",""space"",""space"",""space"",""space"",""space"",""space"",""space"",""space"",""space"",""space"",""space"",""space"",""space"",""space"",""space"",""space"",""space"",""space"",""space"",""space"",""space"",""space"",""space"",""space"",""space"",""space"",""space"",""space"",""space"",""space"",""space"",""space"",""space"",""space""]","[0.6339999999999861,0.8509999999999991,1.0190000000000055,1.4180000000000064,1.5859999999999843,1.752999999999986,2.1709999999999923,2.3389999999999986,2.501999999999981,2.954999999999984,3.1239999999999952,3.287000000000006,3.7229999999999848,3.8870000000000005,4.371999999999986,4.555000000000007,4.724999999999994,5.174000000000007,5.35299999999998,5.489000000000004,5.907999999999987,6.073999999999984,6.272999999999996,6.444999999999993,6.640999999999991,6.86099999999999,7.076999999999998,7.295999999999992,7.525999999999982,7.7379999999999995,8.026999999999987,8.23999999999998,8.475999999999999,8.692000000000007,8.909999999999997,9.126999999999981,9.308999999999997,9.475999999999999,9.659999999999997,10.299000000000007,10.526999999999987,10.730999999999995,11.127999999999986,11.361999999999995,11.596000000000004,11.882999999999981,12.084000000000003,12.32899999999998,12.546999999999997,12.795999999999992,13.063999999999993,13.268,13.480999999999995,13.730999999999995,13.98599999999999,14.23599999999999]",space,1.322,0.0,3.0,3.0,2.0,1.0,,,,,,,,,,,,,
,,,,,,,,,,,block_1/medium_t_72_1.wav,timbre,t,medium,72.0,1.564818535,18.8498072,,,,yes,"Cowin, don't know the model",0,,,,,,1,2020-09-16_15h23.50.906,kura-B1,2020.1.2,Win32,60,,,"[""space"",""space"",""space"",""space"",""space"",""space"",""space"",""space"",""space"",""space"",""space"",""space"",""space"",""space"",""space"",""space"",""space"",""space"",""space"",""space"",""space"",""space"",""space"",""space"",""space"",""space"",""space"",""space"",""space"",""space"",""space"",""space"",""space"",""space"",""space"",""space"",""space"",""space"",""space"",""space"",""space"",""space"",""space"",""space"",""space"",""space"",""space"",""space"",""space"",""space"",""space"",""space"",""space"",""space"",""space"",""space"",""space"",""space""]","[0.9199999999999875,1.1020000000000039,1.5720000000000027,1.7229999999999848,1.88900000000001,2.3700000000000045,2.5219999999999914,2.701999999999998,3.2369999999999948,3.4039999999999964,3.570999999999998,4.203000000000003,4.371000000000009,4.621999999999986,4.889999999999986,5.35499999999999,5.507000000000005,5.689999999999998,6.073999999999984,6.242999999999995,6.411000000000001,6.859000000000009,7.026999999999987,7.194999999999993,7.7239999999999895,7.947000000000003,8.158999999999992,8.776999999999987,8.942999999999984,9.109000000000009,9.626000000000005,9.795999999999992,9.959000000000003,10.494,10.679000000000002,10.844999999999999,11.412000000000006,11.61099999999999,11.762,12.295999999999992,12.461999999999989,12.62700000000001,13.163999999999987,13.347000000000008,13.51400000000001,14.01400000000001,14.198000000000008,14.381,14.931999999999988,15.09899999999999,15.28200000000001,15.865999999999985,16.033999999999992,16.26599999999999,16.766999999999996,16.937999999999988,17.183999999999997,17.685000000000002]",space,2.057,0.0,4.0,4.0,24.0,1.0,,,,,,,,,,,,,
,,,,,,,,,,,block_1/strong_t_72_1.wav,timbre,t,strong,72.0,2.410899129,18.9853209,,,,yes,"Cowin, don't know the model",0,,,,,,1,2020-09-16_15h23.50.906,kura-B1,2020.1.2,Win32,60,,,"[""space"",""space"",""space"",""space"",""space"",""space"",""space"",""space"",""space"",""space"",""space"",""space"",""space"",""space"",""space"",""space"",""space"",""space"",""space"",""space"",""space"",""space""]","[1.4410000000000025,1.6200000000000045,2.209000000000003,2.3700000000000045,2.9219999999999686,3.808999999999969,4.690000000000026,5.507000000000033,6.290000000000049,7.177000000000049,7.977000000000004,8.794000000000011,9.628000000000014,10.465000000000003,11.279000000000025,12.097000000000008,12.880000000000024,13.78600000000003,14.53200000000001,15.337000000000018,16.25000000000003,17.08600000000004]",space,0.734,0.0,5.0,5.0,9.0,1.0,,,,,,,,,,,,,
,,,,,,,,,,,block_1/strong_t_92_2.wav,timbre,t,strong,92.0,1.228007131,14.47607969,,,,yes,"Cowin, don't know the model",0,,,,,,1,2020-09-16_15h23.50.906,kura-B1,2020.1.2,Win32,60,,,"[""space"",""space"",""space"",""space"",""space"",""space"",""space"",""space"",""space"",""space"",""space"",""space"",""space"",""space"",""space"",""space"",""space"",""space"",""space"",""space""]","[0.785000000000025,1.4230000000000018,2.0860000000000127,2.8220000000000027,3.458000000000027,4.110000000000014,4.774000000000001,5.4739999999999895,6.141999999999996,6.793000000000006,7.463000000000022,8.12700000000001,8.793999999999983,9.528999999999996,10.17900000000003,10.828000000000031,11.480999999999995,12.198000000000036,12.831999999999994,13.615000000000009]",space,0.734,0.0,6.0,6.0,3.0,1.0,,,,,,,,,,,,,
,,,,,,,,,,,block_1/weak_t_92_1.wav,timbre,t,weak,92.0,1.851617747,15.24780822,,,,yes,"Cowin, don't know the model",0,,,,,,1,2020-09-16_15h23.50.906,kura-B1,2020.1.2,Win32,60,,,"[""space"",""space"",""space"",""space"",""space"",""space"",""space"",""space"",""space"",""space"",""space"",""space"",""space"",""space"",""space"",""space"",""space"",""space"",""space"",""space"",""space"",""space"",""space"",""space"",""space"",""space"",""space"",""space"",""space"",""space"",""space"",""space"",""space"",""space"",""space"",""space"",""space"",""space"",""space"",""space"",""space"",""space"",""space"",""space"",""space"",""space"",""space"",""space"",""space"",""space"",""space"",""space"",""space"",""space"",""space"",""space"",""space"",""space"",""space"",""space"",""space"",""space"",""space"",""space"",""space"",""space"",""space"",""space"",""space""]","[0.46699999999998454,0.6890000000000214,0.867999999999995,1.0339999999999918,1.2010000000000218,1.367999999999995,1.535000000000025,1.7040000000000077,1.8870000000000005,2.052000000000021,2.2509999999999764,2.4189999999999827,2.6019999999999754,2.819000000000017,3.0020000000000095,3.201999999999998,3.3870000000000005,3.569999999999993,3.752999999999986,3.937000000000012,4.122000000000014,4.303999999999974,4.4879999999999995,4.668999999999983,4.855000000000018,5.038999999999987,5.20799999999997,5.4220000000000255,5.6089999999999804,5.807999999999993,5.992000000000019,6.175999999999988,6.360000000000014,6.572999999999979,6.755999999999972,6.956000000000017,7.139999999999986,7.324000000000012,7.524000000000001,7.723000000000013,7.925999999999988,8.108000000000004,8.307999999999993,8.512,8.742000000000019,8.942999999999984,9.125999999999976,9.309000000000026,9.52800000000002,9.742999999999995,9.942999999999984,10.144000000000005,10.327999999999975,10.526999999999987,10.726999999999975,10.978000000000009,11.177999999999997,11.34499999999997,11.545000000000016,11.745000000000005,11.961000000000013,12.178999999999974,12.411999999999978,12.613,12.802000000000021,13.047000000000025,13.279999999999973,13.547000000000025,13.747000000000014]",space,0.706,0.0,7.0,7.0,33.0,1.0,,,,,,,,,,,,,
,,,,,,,,,,,block_1/strong_t_105_1.wav,timbre,t,strong,105.0,1.984276879,14.42695262,,,,yes,"Cowin, don't know the model",0,,,,,,1,2020-09-16_15h23.50.906,kura-B1,2020.1.2,Win32,60,,,"[""space"",""space"",""space"",""space"",""space"",""space"",""space"",""space"",""space"",""space"",""space"",""space"",""space"",""space"",""space"",""space"",""space"",""space"",""space""]","[1.1659999999999968,1.766999999999996,2.450999999999965,3.0849999999999795,3.7379999999999995,4.388999999999953,5.040999999999997,5.637999999999977,6.358000000000004,6.97199999999998,7.555999999999983,8.222999999999956,8.871999999999957,9.544999999999959,10.142999999999972,10.70799999999997,11.491999999999962,12.08099999999996,12.779999999999973]",space,0.758,0.0,8.0,8.0,20.0,1.0,,,,,,,,,,,,,
,,,,,,,,,,,block_1/weak_t_81_1.wav,timbre,t,weak,81.0,1.734429931,16.79973605,,,,yes,"Cowin, don't know the model",0,,,,,,1,2020-09-16_15h23.50.906,kura-B1,2020.1.2,Win32,60,,,"[""space"",""space"",""space"",""space"",""space"",""space"",""space"",""space"",""space"",""space"",""space"",""space"",""space"",""space"",""space"",""space"",""space"",""space"",""space"",""space"",""space"",""space"",""space"",""space"",""space"",""space"",""space"",""space"",""space"",""space"",""space"",""space"",""space"",""space"",""space"",""space"",""space"",""space"",""space"",""space"",""space"",""space"",""space"",""space"",""space"",""space"",""space"",""space"",""space"",""space"",""space"",""space"",""space"",""space"",""space"",""space"",""space"",""space"",""space"",""space"",""space"",""space"",""space"",""space"",""space"",""space"",""space"",""space"",""space"",""space"",""space"",""space"",""space"",""space"",""space"",""space"",""space""]","[0.867999999999995,1.051999999999964,1.252999999999986,1.4180000000000064,1.585999999999956,1.7409999999999854,1.919999999999959,2.085999999999956,2.2690000000000055,2.4699999999999704,2.6539999999999964,2.8209999999999695,3.0049999999999955,3.187000000000012,3.370999999999981,3.5539999999999736,3.757000000000005,3.954999999999984,4.154999999999973,4.323999999999955,4.521999999999991,4.6889999999999645,4.871999999999957,5.060999999999979,5.255999999999972,5.4389999999999645,5.6229999999999905,5.807999999999993,6.007000000000005,6.189999999999998,6.373999999999967,6.5569999999999595,6.757999999999981,6.95799999999997,7.157999999999959,7.375,7.5569999999999595,7.741999999999962,7.942000000000007,8.142999999999972,8.341999999999985,8.52600000000001,8.725999999999999,8.911000000000001,9.092999999999961,9.276999999999987,9.495000000000005,9.69599999999997,9.889999999999986,10.063999999999965,10.245999999999981,10.44399999999996,10.639999999999986,10.83099999999996,11.044999999999959,11.241999999999962,11.430000000000007,11.613999999999976,11.798000000000002,11.988,12.213999999999999,12.44599999999997,12.663999999999987,12.863999999999976,13.032999999999959,13.230999999999995,13.397999999999968,13.597999999999956,13.814999999999998,14.014999999999986,14.234999999999957,14.460999999999956,14.661000000000001,14.83499999999998,15.032999999999959,15.217999999999961,15.418999999999983]",space,0.902,0.0,9.0,9.0,8.0,1.0,,,,,,,,,,,,,
,,,,,,,,,,,block_1/medium_t_119_1.wav,timbre,t,medium,119.0,1.91338692,12.93819418,,,,yes,"Cowin, don't know the model",0,,,,,,1,2020-09-16_15h23.50.906,kura-B1,2020.1.2,Win32,60,,,"[""space"",""space"",""space"",""space"",""space"",""space"",""space"",""space"",""space"",""space"",""space"",""space"",""space"",""space"",""space"",""space"",""space"",""space"",""space"",""space"",""space"",""space"",""space"",""space"",""space"",""space"",""space"",""space"",""space"",""space"",""space"",""space"",""space"",""space"",""space"",""space"",""space"",""space"",""space"",""space"",""space""]","[0.867999999999995,1.0360000000000014,1.23599999999999,1.4370000000000118,1.6030000000000086,1.7860000000000014,1.9700000000000273,2.319999999999993,2.5370000000000346,2.754000000000019,2.937000000000012,3.1210000000000377,3.3220000000000027,3.657000000000039,4.0049999999999955,4.187999999999988,4.38900000000001,4.739000000000033,4.923000000000002,5.274000000000001,5.573000000000036,6.024000000000001,6.174000000000035,6.540999999999997,6.7239999999999895,7.074000000000012,7.258000000000038,7.576000000000022,7.925999999999988,8.093000000000018,8.492999999999995,8.745000000000005,9.129000000000019,9.478000000000009,9.660000000000025,9.927999999999997,10.162000000000035,10.595000000000027,10.77800000000002,11.225999999999999,11.379000000000019]",space,0.69,0.0,10.0,10.0,34.0,1.0,,,,,,,,,,,,,
,,,,,,,,,,,block_1/weak_t_119_2.wav,timbre,t,weak,119.0,1.131621257,11.40046479,,,,yes,"Cowin, don't know the model",0,,,,,,1,2020-09-16_15h23.50.906,kura-B1,2020.1.2,Win32,60,,,"[""space"",""space"",""space"",""space"",""space"",""space"",""space"",""space"",""space"",""space"",""space"",""space"",""space"",""space"",""space"",""space"",""space"",""space"",""space"",""space"",""space"",""space"",""space"",""space"",""space"",""space"",""space"",""space"",""space"",""space"",""space"",""space"",""space"",""space"",""space"",""space"",""space"",""space""]","[0.82000000000005,0.9680000000000177,1.15300000000002,1.3410000000000082,1.5030000000000427,1.670000000000016,1.8530000000000086,2.0370000000000346,2.2210000000000036,2.3870000000000005,2.5570000000000164,2.754000000000019,2.924000000000035,3.104000000000042,3.288000000000011,3.4700000000000273,3.654000000000053,3.8210000000000264,4.005000000000052,4.189000000000021,4.372000000000014,4.555000000000007,4.723000000000013,4.9080000000000155,5.256000000000029,5.7070000000000505,6.024000000000001,6.473000000000013,6.971000000000004,7.428000000000054,7.925000000000011,8.396000000000015,8.76600000000002,9.19300000000004,9.525000000000034,9.879000000000019,10.244000000000028,10.612000000000023]",space,0.668,0.0,11.0,11.0,13.0,1.0,,,,,,,,,,,,,
,,,,,,,,,,,block_1/none_t_92_2.wav,timbre,t,none,92.0,1.89077586,18.43372371,,,,yes,"Cowin, don't know the model",0,,,,,,1,2020-09-16_15h23.50.906,kura-B1,2020.1.2,Win32,60,,,"[""space"",""space"",""space"",""space"",""space"",""space"",""space"",""space"",""space"",""space"",""space"",""space"",""space"",""space"",""space"",""space"",""space"",""space"",""space"",""space"",""space"",""space"",""space"",""space"",""space"",""space"",""space"",""space"",""space"",""space"",""space"",""space"",""space"",""space"",""space"",""space"",""space"",""space"",""space"",""space"",""space"",""space"",""space"",""space"",""space"",""space"",""space"",""space"",""space"",""space"",""space"",""space"",""space"",""space"",""space"",""space"",""space"",""space"",""space"",""space"",""space"",""space"",""space"",""space"",""space"",""space"",""space"",""space"",""space"",""space"",""space"",""space"",""space"",""space"",""space""]","[0.7849999999999682,0.9689999999999941,1.1850000000000023,1.4249999999999545,1.6519999999999868,1.8689999999999714,2.069999999999993,2.2679999999999723,2.502999999999986,2.7369999999999663,2.9529999999999745,3.186999999999955,3.4039999999999964,3.606999999999971,3.790999999999997,3.9869999999999663,4.30499999999995,4.5049999999999955,4.70599999999996,4.97199999999998,5.22199999999998,5.439999999999998,5.689999999999998,5.98599999999999,6.201999999999998,6.435000000000002,6.640999999999963,6.887999999999977,7.092999999999961,7.310000000000002,7.574999999999989,7.774000000000001,7.958999999999946,8.175999999999988,8.408999999999992,8.642999999999972,8.842999999999961,9.04299999999995,9.244999999999948,9.44399999999996,9.676999999999964,9.94399999999996,10.12299999999999,10.345999999999947,10.512999999999977,10.708999999999946,10.92999999999995,11.142999999999972,11.326999999999998,11.527999999999963,11.744999999999948,11.961999999999989,12.16799999999995,12.392999999999972,12.599999999999966,12.812999999999988,12.99799999999999,13.198999999999955,13.382999999999981,13.56699999999995,13.799999999999955,14.030999999999949,14.266999999999996,14.482999999999947,14.698999999999955,14.933999999999969,15.163999999999987,15.399999999999977,15.599999999999966,15.799999999999955,16.016999999999996,16.248999999999967,16.43399999999997,16.670999999999992,16.887999999999977]",space,0.703,0.0,12.0,12.0,18.0,1.0,,,,,,,,,,,,,
,,,,,,,,,,,block_1/strong_t_105_2.wav,timbre,t,strong,105.0,1.268100708,12.09472202,,,,yes,"Cowin, don't know the model",0,,,,,,1,2020-09-16_15h23.50.906,kura-B1,2020.1.2,Win32,60,,,"[""space"",""space"",""space"",""space"",""space"",""space"",""space"",""space"",""space"",""space"",""space"",""space"",""space"",""space"",""space"",""space"",""space"",""space"",""space"",""space""]","[0.6550000000000296,1.122000000000014,1.6890000000000214,2.257000000000005,2.8240000000000123,3.358000000000004,3.9250000000000114,4.478000000000009,5.026999999999987,5.560000000000002,6.093999999999994,6.646999999999991,7.182000000000016,7.798999999999978,8.310999999999979,8.863,9.396999999999991,9.982000000000028,10.51400000000001,11.081999999999994]",space,0.92,0.0,13.0,13.0,22.0,1.0,,,,,,,,,,,,,
,,,,,,,,,,,block_1/none_t_105_1.wav,timbre,t,none,105.0,1.828771861,15.95090338,,,,yes,"Cowin, don't know the model",0,,,,,,1,2020-09-16_15h23.50.906,kura-B1,2020.1.2,Win32,60,,,"[""space"",""space"",""space"",""space"",""space"",""space"",""space"",""space"",""space"",""space"",""space"",""space"",""space"",""space"",""space"",""space"",""space"",""space"",""space"",""space"",""space"",""space"",""space"",""space"",""space"",""space"",""space"",""space"",""space"",""space"",""space"",""space"",""space"",""space"",""space"",""space"",""space"",""space"",""space"",""space"",""space"",""space"",""space"",""space"",""space"",""space"",""space"",""space"",""space"",""space"",""space"",""space"",""space"",""space"",""space"",""space"",""space"",""space"",""space"",""space"",""space"",""space"",""space"",""space"",""space"",""space"",""space"",""space""]","[0.8859999999999673,1.2559999999999718,1.436999999999955,1.7369999999999663,1.9039999999999964,2.108000000000004,2.305999999999983,2.4879999999999995,2.6719999999999686,2.8549999999999613,3.0389999999999873,3.2229999999999563,3.423000000000002,3.6059999999999945,3.7719999999999914,3.9559999999999604,4.156999999999982,4.356999999999971,4.5569999999999595,4.774000000000001,4.95799999999997,5.123999999999967,5.307999999999993,5.4909999999999854,5.673999999999978,5.859999999999957,6.057999999999993,6.258999999999958,6.44199999999995,6.628999999999962,6.825999999999965,7.008999999999958,7.225999999999999,7.409999999999968,7.625999999999976,7.810999999999979,8.029999999999973,8.227999999999952,8.411000000000001,8.59699999999998,8.794999999999959,9.026999999999987,9.262,9.461999999999989,9.644999999999982,9.827999999999975,10.012,10.180000000000007,10.379999999999995,10.597999999999956,10.812999999999988,10.995999999999981,11.197000000000003,11.380999999999972,11.59699999999998,11.84699999999998,12.046999999999969,12.231999999999971,12.430999999999983,12.647999999999968,12.850999999999999,13.100999999999999,13.331999999999994,13.549999999999955,13.782999999999959,14.033999999999992,14.20799999999997,14.432999999999993]",space,1.202,0.0,14.0,14.0,17.0,1.0,,,,,,,,,,,,,
,,,,,,,,,,,block_1/strong_t_119_2.wav,timbre,t,strong,119.0,2.38266194,11.99749187,,,,yes,"Cowin, don't know the model",0,,,,,,1,2020-09-16_15h23.50.906,kura-B1,2020.1.2,Win32,60,,,"[""space"",""space"",""space"",""space"",""space"",""space"",""space"",""space"",""space"",""space"",""space"",""space"",""space"",""space"",""space"",""space"",""space"",""space"",""space""]","[1.0690000000000168,1.6689999999999827,2.15300000000002,2.569999999999993,3.0880000000000223,3.6059999999999945,4.074999999999989,4.572000000000003,5.0090000000000146,5.490000000000009,5.9739999999999895,6.441000000000031,6.925000000000011,7.411000000000001,7.908999999999992,8.427000000000021,8.87700000000001,9.411000000000001,9.894000000000005]",space,0.886,0.0,15.0,15.0,31.0,1.0,,,,,,,,,,,,,
,,,,,,,,,,,block_1/weak_t_72_2.wav,timbre,t,weak,72.0,1.186310873,16.45742198,,,,yes,"Cowin, don't know the model",0,,,,,,1,2020-09-16_15h23.50.906,kura-B1,2020.1.2,Win32,60,,,"[""space"",""space"",""space"",""space"",""space"",""space"",""space"",""space"",""space"",""space"",""space"",""space"",""space"",""space"",""space"",""space"",""space"",""space"",""space"",""space"",""space"",""space"",""space"",""space"",""space"",""space"",""space"",""space"",""space"",""space"",""space"",""space"",""space"",""space"",""space"",""space"",""space"",""space"",""space"",""space"",""space"",""space"",""space"",""space"",""space"",""space"",""space"",""space"",""space"",""space"",""space"",""space"",""space"",""space"",""space"",""space"",""space"",""space"",""space"",""space"",""space"",""space"",""space"",""space"",""space"",""space"",""space"",""space"",""space"",""space"",""space"",""space"",""space""]","[0.9190000000000396,1.0860000000000127,1.2700000000000387,1.4530000000000314,1.670000000000016,1.8570000000000277,2.0370000000000346,2.2030000000000314,2.3880000000000337,2.5710000000000264,2.7379999999999995,2.921000000000049,3.104000000000042,3.2730000000000246,3.472000000000037,3.6550000000000296,3.8389999999999986,4.0090000000000146,4.206000000000017,4.372000000000014,4.573000000000036,4.756000000000029,4.939000000000021,5.123000000000047,5.307000000000016,5.490000000000009,5.674000000000035,5.857000000000028,6.074000000000012,6.275000000000034,6.458000000000027,6.642000000000053,6.8250000000000455,7.0260000000000105,7.209000000000003,7.392000000000053,7.593000000000018,7.810000000000002,8.010000000000048,8.19300000000004,8.393000000000029,8.576999999999998,8.79400000000004,8.994000000000028,9.211000000000013,9.412000000000035,9.594000000000051,9.911000000000001,10.098000000000013,10.329000000000008,10.561000000000035,10.79600000000005,11.032000000000039,11.28000000000003,11.497000000000014,11.731000000000051,12.048000000000002,12.297000000000025,12.497000000000014,12.699000000000012,12.932000000000016,13.133000000000038,13.365000000000009,13.581000000000017,13.83200000000005,14.099000000000046,14.316000000000031,14.633000000000038,14.972000000000037,15.234000000000037,15.484000000000037,15.718000000000018,15.938000000000045]",space,0.872,0.0,16.0,16.0,25.0,1.0,,,,,,,,,,,,,
,,,,,,,,,,,block_1/none_t_72_1.wav,timbre,t,none,72.0,2.370838854,21.3551926,,,,yes,"Cowin, don't know the model",0,,,,,,1,2020-09-16_15h23.50.906,kura-B1,2020.1.2,Win32,60,,,"[""space"",""space"",""space"",""space"",""space"",""space"",""space"",""space"",""space"",""space"",""space"",""space"",""space"",""space"",""space"",""space"",""space"",""space"",""space"",""space"",""space"",""space"",""space"",""space"",""space"",""space"",""space"",""space"",""space"",""space"",""space"",""space"",""space"",""space"",""space"",""space"",""space"",""space"",""space"",""space"",""space"",""space"",""space"",""space"",""space"",""space"",""space"",""space"",""space"",""space"",""space"",""space"",""space"",""space"",""space"",""space"",""space"",""space"",""space"",""space"",""space"",""space"",""space"",""space"",""space"",""space"",""space"",""space"",""space"",""space"",""space"",""space"",""space"",""space"",""space"",""space"",""space"",""space"",""space"",""space"",""space"",""space"",""space"",""space"",""space"",""space"",""space"",""space"",""space"",""space"",""space"",""space""]","[0.8020000000000209,0.9699999999999704,1.1859999999999786,1.3870000000000005,1.586999999999989,1.7869999999999777,1.9699999999999704,2.137999999999977,2.319999999999993,2.504000000000019,2.687999999999988,2.870999999999981,3.041999999999973,3.2379999999999995,3.4390000000000214,3.620999999999981,3.805000000000007,4.005999999999972,4.189000000000021,4.372000000000014,4.555999999999983,4.7900000000000205,5.007000000000005,5.192999999999984,5.406000000000006,5.610000000000014,5.793999999999983,6.024999999999977,6.2409999999999854,6.425999999999988,6.6410000000000196,6.8419999999999845,7.026999999999987,7.209000000000003,7.425999999999988,7.658999999999992,7.875999999999976,8.060000000000002,8.27600000000001,8.492999999999995,8.70999999999998,8.909999999999968,9.110000000000014,9.293999999999983,9.478000000000009,9.677999999999997,9.894999999999982,10.11099999999999,10.314000000000021,10.512999999999977,10.745999999999981,10.961999999999989,11.178999999999974,11.363,11.562999999999988,11.796999999999969,11.997000000000014,12.213999999999999,12.396999999999991,12.613999999999976,12.831000000000017,13.048000000000002,13.26600000000002,13.447999999999979,13.649000000000001,13.880999999999972,14.081000000000017,14.26600000000002,14.483000000000004,14.716000000000008,14.949999999999989,15.149999999999977,15.349999999999966,15.57099999999997,15.769999999999982,15.968000000000018,16.170000000000016,16.384000000000015,16.61899999999997,16.851,17.098000000000013,17.284999999999968,17.490999999999985,17.72199999999998,17.93599999999998,18.137,18.307000000000016,18.502999999999986,18.702999999999975,18.906000000000006,19.122000000000014,19.337999999999965]",space,4.305,0.0,17.0,17.0,23.0,1.0,,,,,,,,,,,,,
,,,,,,,,,,,block_1/none_t_105_2.wav,timbre,t,none,105.0,1.938353853,15.01835385,,,,yes,"Cowin, don't know the model",0,,,,,,1,2020-09-16_15h23.50.906,kura-B1,2020.1.2,Win32,60,,,"[""space"",""space"",""space"",""space"",""space"",""space"",""space"",""space"",""space"",""space"",""space"",""space"",""space"",""space"",""space"",""space"",""space"",""space"",""space"",""space"",""space"",""space"",""space"",""space"",""space"",""space"",""space"",""space"",""space"",""space"",""space"",""space"",""space"",""space"",""space"",""space"",""space"",""space"",""space"",""space"",""space"",""space"",""space"",""space"",""space"",""space"",""space"",""space"",""space"",""space"",""space"",""space"",""space"",""space"",""space"",""space"",""space"",""space"",""space"",""space"",""space"",""space""]","[0.8709999999999809,1.0699999999999932,1.2869999999999777,1.4879999999999995,1.686999999999955,1.870999999999981,2.0709999999999695,2.2549999999999955,2.4399999999999977,2.608000000000004,2.8220000000000027,3.037999999999954,3.255999999999972,3.4559999999999604,3.6399999999999864,3.839999999999975,4.022999999999968,4.192000000000007,4.376999999999953,4.557999999999993,4.739999999999952,4.94399999999996,5.157999999999959,5.375,5.6089999999999804,5.824999999999989,6.025999999999954,6.210999999999956,6.409999999999968,6.6089999999999804,6.825999999999965,7.075999999999965,7.276999999999987,7.475999999999999,7.659999999999968,7.8659999999999854,8.063999999999965,8.263999999999953,8.477999999999952,8.69599999999997,8.911000000000001,9.161999999999978,9.378999999999962,9.61099999999999,9.795999999999992,9.998999999999967,10.19599999999997,10.399999999999977,10.613,10.83299999999997,11.048000000000002,11.24799999999999,11.447999999999979,11.647999999999968,11.847999999999956,12.046999999999969,12.24799999999999,12.464999999999975,12.665999999999997,12.882000000000005,13.09899999999999,13.317000000000007]",space,0.785,0.0,18.0,18.0,14.0,1.0,,,,,,,,,,,,,
,,,,,,,,,,,block_1/none_t_81_2.wav,timbre,t,none,81.0,1.650015351,20.40348474,,,,yes,"Cowin, don't know the model",0,,,,,,1,2020-09-16_15h23.50.906,kura-B1,2020.1.2,Win32,60,,,"[""space"",""space"",""space"",""space"",""space"",""space"",""space"",""space"",""space"",""space"",""space"",""space"",""space"",""space"",""space"",""space"",""space"",""space"",""space"",""space"",""space"",""space"",""space"",""space"",""space"",""space"",""space"",""space"",""space"",""space"",""space"",""space"",""space"",""space"",""space"",""space"",""space"",""space"",""space"",""space"",""space"",""space"",""space"",""space"",""space"",""space"",""space"",""space"",""space"",""space"",""space"",""space"",""space"",""space"",""space"",""space"",""space"",""space"",""space"",""space"",""space"",""space"",""space"",""space"",""space"",""space"",""space"",""space"",""space"",""space"",""space"",""space"",""space"",""space"",""space"",""space"",""space"",""space"",""space"",""space"",""space""]","[0.7560000000000286,0.9560000000000173,1.1870000000000118,1.4039999999999964,1.6230000000000473,1.8540000000000418,2.0540000000000305,2.289000000000044,2.4890000000000327,2.688000000000045,2.8710000000000377,3.0720000000000027,3.2549999999999955,3.6409999999999627,3.840000000000032,4.05600000000004,4.273000000000025,4.508000000000038,4.706999999999994,4.923000000000002,5.140999999999963,5.374000000000024,5.591000000000008,5.8279999999999745,6.140999999999963,6.4080000000000155,6.644999999999982,6.859000000000037,7.076000000000022,7.293000000000006,7.509999999999991,7.776000000000067,7.997000000000071,8.259999999999991,8.509999999999991,8.711000000000013,8.927999999999997,9.194000000000074,9.427999999999997,9.69500000000005,9.93100000000004,10.178999999999974,10.412000000000035,10.663000000000011,10.879000000000019,11.09699999999998,11.317000000000007,11.580000000000041,11.798000000000002,12.031000000000063,12.230999999999995,12.447999999999979,12.68100000000004,12.914999999999964,13.149000000000001,13.399000000000001,13.648000000000025,13.882000000000062,14.069000000000074,14.300000000000068,14.550000000000068,14.768000000000029,14.984000000000037,15.188999999999965,15.468000000000075,15.683999999999969,15.901000000000067,16.118000000000052,16.335000000000036,16.572000000000003,16.82000000000005,17.05200000000002,17.269999999999982,17.48599999999999,17.71900000000005,17.942999999999984,18.220000000000027,18.454000000000065,18.704000000000065,18.908000000000015,19.139999999999986]",space,0.802,0.0,19.0,19.0,10.0,1.0,,,,,,,,,,,,,
,,,,,,,,,,,block_1/medium_t_72_2.wav,timbre,t,medium,72.0,1.374562099,18.5083943,,,,yes,"Cowin, don't know the model",0,,,,,,1,2020-09-16_15h23.50.906,kura-B1,2020.1.2,Win32,60,,,"[""space"",""space"",""space"",""space"",""space"",""space"",""space"",""space"",""space"",""space"",""space"",""space"",""space"",""space"",""space"",""space"",""space"",""space"",""space""]","[0.8709999999999809,1.6169999999999618,2.4710000000000036,3.3759999999999764,4.255999999999972,5.0079999999999245,6.069999999999936,7.0919999999999845,7.992999999999938,8.84699999999998,9.761999999999944,10.680999999999926,11.530999999999949,12.447000000000003,13.214999999999918,14.149999999999977,15.033999999999992,15.918999999999983,16.851999999999975]",space,0.853,0.0,20.0,20.0,28.0,1.0,,,,,,,,,,,,,
,,,,,,,,,,,block_1/none_t_72_2.wav,timbre,t,none,72.0,1.436515358,19.69406638,,,,yes,"Cowin, don't know the model",0,,,,,,1,2020-09-16_15h23.50.906,kura-B1,2020.1.2,Win32,60,,,"[""space"",""space"",""space"",""space"",""space"",""space"",""space"",""space"",""space"",""space"",""space"",""space"",""space"",""space"",""space"",""space"",""space"",""space"",""space"",""space"",""space"",""space"",""space"",""space"",""space"",""space"",""space"",""space"",""space"",""space"",""space"",""space"",""space"",""space"",""space"",""space"",""space"",""space"",""space"",""space"",""space"",""space"",""space"",""space"",""space"",""space"",""space"",""space"",""space"",""space"",""space"",""space"",""space"",""space"",""space"",""space"",""space"",""space"",""space"",""space"",""space"",""space"",""space"",""space"",""space"",""space"",""space"",""space"",""space"",""space""]","[0.7509999999999764,1.0359999999999445,1.2690000000000055,1.5209999999999582,1.7690000000000055,2.0190000000000055,2.288000000000011,2.5389999999999873,2.8039999999999736,3.036999999999921,3.272999999999911,3.506999999999948,3.7210000000000036,3.9389999999999645,4.171999999999912,4.405999999999949,4.608999999999924,4.838999999999942,5.106999999999971,5.3799999999999955,5.608999999999924,5.807999999999993,6.106999999999971,6.356999999999971,6.606999999999971,6.87399999999991,7.140999999999963,7.391999999999939,7.641999999999939,7.875999999999976,8.142999999999915,8.392999999999915,8.676999999999907,8.959999999999923,9.211000000000013,9.442999999999984,9.697000000000003,9.961000000000013,10.266999999999939,10.560999999999922,10.812000000000012,11.045999999999935,11.312000000000012,11.57899999999995,11.846000000000004,12.09699999999998,12.362999999999943,12.613999999999919,12.848999999999933,13.079999999999927,13.331000000000017,13.581999999999994,13.815999999999917,14.048999999999978,14.315999999999917,14.58299999999997,14.866999999999962,15.14799999999991,15.399999999999977,15.634000000000015,15.866999999999962,16.120000000000005,16.399999999999977,16.700999999999908,16.985000000000014,17.320999999999913,17.602999999999952,17.870000000000005,18.118999999999915,18.435999999999922]",space,0.852,0.0,21.0,21.0,21.0,1.0,,,,,,,,,,,,,
,,,,,,,,,,,block_1/medium_t_105_1.wav,timbre,t,medium,105.0,2.180706288,14.37050221,,,,yes,"Cowin, don't know the model",0,,,,,,1,2020-09-16_15h23.50.906,kura-B1,2020.1.2,Win32,60,,,"[""space"",""space"",""space"",""space"",""space"",""space"",""space"",""space"",""space"",""space"",""space"",""space"",""space"",""space"",""space"",""space"",""space"",""space"",""space""]","[1.3519999999999754,1.9189999999999827,2.48599999999999,3.038000000000011,3.605000000000018,4.1749999999999545,4.772000000000048,5.38900000000001,5.95799999999997,6.557999999999993,7.2409999999999854,7.826000000000022,8.462999999999965,9.177000000000021,9.845000000000027,10.42999999999995,11.044999999999959,11.711999999999989,12.413000000000011]",space,0.868,0.0,22.0,22.0,16.0,1.0,,,,,,,,,,,,,
,,,,,,,,,,,block_1/weak_t_81_2.wav,timbre,t,weak,81.0,1.961200407,15.36428431,,,,yes,"Cowin, don't know the model",0,,,,,,1,2020-09-16_15h23.50.906,kura-B1,2020.1.2,Win32,60,,,"[""space"",""space"",""space"",""space"",""space"",""space"",""space"",""space"",""space"",""space"",""space"",""space"",""space"",""space"",""space"",""space"",""space"",""space"",""space"",""space""]","[0.5349999999999682,1.1200000000000045,1.7899999999999636,2.54200000000003,3.1889999999999645,3.9389999999999645,4.6889999999999645,5.341000000000008,5.97300000000007,6.608000000000061,7.374000000000024,8.143000000000029,8.908999999999992,9.579000000000065,10.27800000000002,10.978000000000065,11.68100000000004,12.33400000000006,12.983000000000061,13.664999999999964]",space,0.618,0.0,23.0,23.0,5.0,1.0,,,,,,,,,,,,,
,,,,,,,,,,,block_1/none_t_92_1.wav,timbre,t,none,92.0,2.134114385,14.96545225,,,,yes,"Cowin, don't know the model",0,,,,,,1,2020-09-16_15h23.50.906,kura-B1,2020.1.2,Win32,60,,,"[""space"",""space"",""space"",""space"",""space"",""space"",""space"",""space"",""space"",""space"",""space"",""space"",""space"",""space"",""space"",""space"",""space"",""space"",""space"",""space"",""space"",""space"",""space"",""space"",""space"",""space"",""space"",""space"",""space"",""space"",""space"",""space"",""space"",""space"",""space"",""space"",""space"",""space"",""space"",""space"",""space"",""space"",""space"",""space"",""space"",""space"",""space""]","[0.8210000000000264,1.2480000000000473,1.58400000000006,1.788000000000011,2.0539999999999736,2.3210000000000264,2.5879999999999654,2.840000000000032,3.1059999999999945,3.358000000000061,3.606999999999971,3.88900000000001,4.13900000000001,4.38900000000001,4.639999999999986,4.892000000000053,5.159999999999968,5.426000000000045,5.691000000000031,5.94399999999996,6.191000000000031,6.45799999999997,6.772000000000048,7.060000000000059,7.328999999999951,7.576999999999998,7.842999999999961,8.080000000000041,8.326999999999998,8.594000000000051,8.846000000000004,9.113000000000056,9.364000000000033,9.628000000000043,9.894000000000005,10.144999999999982,10.398000000000025,10.663999999999987,10.898000000000025,11.18100000000004,11.432999999999993,11.697999999999979,11.966999999999985,12.230999999999995,12.498000000000047,12.748000000000047,13.018000000000029]",space,0.466,0.0,24.0,24.0,15.0,1.0,,,,,,,,,,,,,
,,,,,,,,,,,block_1/weak_t_105_1.wav,timbre,t,weak,105.0,1.816913882,14.30793429,,,,yes,"Cowin, don't know the model",0,,,,,,1,2020-09-16_15h23.50.906,kura-B1,2020.1.2,Win32,60,,,"[""space"",""space"",""space"",""space"",""space"",""space"",""space"",""space"",""space"",""space"",""space"",""space"",""space"",""space"",""space"",""space"",""space"",""space"",""space"",""space"",""space""]","[0.4979999999999336,0.97199999999998,1.5119999999999436,2.0370000000000346,2.4529999999999745,3.2519999999999527,3.97199999999998,4.586999999999989,5.270999999999958,5.9220000000000255,6.539999999999964,7.173000000000002,7.800999999999931,8.423999999999978,9.039999999999964,9.69399999999996,10.309999999999945,10.942999999999984,11.544999999999959,12.194999999999936,12.82899999999995]",space,0.555,0.0,25.0,25.0,0.0,1.0,,,,,,,,,,,,,
,,,,,,,,,,,block_1/strong_t_81_1.wav,timbre,t,strong,81.0,1.303718429,15.55909258,,,,yes,"Cowin, don't know the model",0,,,,,,1,2020-09-16_15h23.50.906,kura-B1,2020.1.2,Win32,60,,,"[""space"",""space"",""space"",""space"",""space"",""space"",""space"",""space"",""space"",""space"",""space"",""space"",""space"",""space"",""space"",""space"",""space"",""space"",""space"",""space""]","[1.3009999999999309,1.77699999999993,2.453999999999951,3.203999999999951,3.870999999999981,4.5909999999998945,5.31899999999996,6.058999999999969,6.756999999999948,7.430999999999926,8.22099999999989,8.921999999999912,9.612999999999943,10.363999999999919,11.077999999999975,11.84599999999989,12.513999999999896,13.247999999999934,13.963999999999942,14.653999999999996]",space,0.971,0.0,26.0,26.0,30.0,1.0,,,,,,,,,,,,,
,,,,,,,,,,,block_1/medium_t_119_2.wav,timbre,t,medium,119.0,1.102065643,12.01802936,,,,yes,"Cowin, don't know the model",0,,,,,,1,2020-09-16_15h23.50.906,kura-B1,2020.1.2,Win32,60,,,"[""space"",""space"",""space"",""space"",""space"",""space"",""space"",""space"",""space"",""space"",""space"",""space"",""space"",""space"",""space"",""space"",""space"",""space"",""space"",""space"",""space"",""space"",""space"",""space"",""space"",""space"",""space"",""space"",""space"",""space"",""space"",""space""]","[0.9549999999999272,1.2970000000000255,1.6539999999999964,1.9699999999999136,2.2759999999999536,2.5709999999999127,2.8729999999999336,3.1909999999999172,3.538000000000011,3.8209999999999127,4.154999999999973,4.439999999999941,4.755999999999972,5.057999999999993,5.389999999999986,5.673000000000002,5.9939999999999145,6.357999999999947,6.625,6.908999999999992,7.19399999999996,7.506999999999948,7.778999999999996,8.11099999999999,8.392999999999915,8.660999999999945,9.112999999999943,9.644000000000005,9.894000000000005,10.278999999999996,10.812000000000012,11.34699999999998]",space,0.733,0.0,27.0,27.0,38.0,1.0,,,,,,,,,,,,,
,,,,,,,,,,,block_1/none_t_119_2.wav,timbre,t,none,119.0,1.154672461,11.7267813,,,,yes,"Cowin, don't know the model",0,,,,,,1,2020-09-16_15h23.50.906,kura-B1,2020.1.2,Win32,60,,,"[""space"",""space"",""space"",""space"",""space"",""space"",""space"",""space"",""space"",""space"",""space"",""space"",""space"",""space"",""space"",""space"",""space"",""space"",""space"",""space"",""space"",""space"",""space"",""space"",""space""]","[0.5670000000000073,1.0209999999999582,1.4519999999999982,1.90300000000002,2.352999999999952,2.7799999999999727,3.1889999999999645,3.6200000000000045,4.071000000000026,4.505999999999972,4.904999999999973,5.337999999999965,5.7549999999999955,6.1749999999999545,6.557000000000016,6.988000000000056,7.437000000000012,7.875999999999976,8.274999999999977,8.625,9.044999999999959,9.45900000000006,9.825000000000045,10.211000000000013,10.577999999999975]",space,0.553,0.0,28.0,28.0,35.0,1.0,,,,,,,,,,,,,
,,,,,,,,,,,block_1/strong_t_119_1.wav,timbre,t,strong,119.0,2.009888221,11.97709911,,,,yes,"Cowin, don't know the model",0,,,,,,1,2020-09-16_15h23.50.906,kura-B1,2020.1.2,Win32,60,,,"[""space"",""space"",""space"",""space"",""space"",""space"",""space"",""space"",""space"",""space"",""space"",""space"",""space"",""space"",""space"",""space"",""space"",""space"",""space"",""space""]","[0.8009999999999309,1.2679999999999154,1.7839999999999918,2.270999999999958,2.7539999999999054,3.2379999999999427,3.73599999999999,4.253999999999905,4.751999999999953,5.206999999999994,5.750999999999976,6.223999999999933,6.723999999999933,7.239999999999895,7.709999999999923,8.209999999999923,8.694999999999936,9.210999999999899,9.694999999999936,10.195999999999913]",space,0.789,0.0,29.0,29.0,27.0,1.0,,,,,,,,,,,,,
,,,,,,,,,,,block_1/medium_t_92_1.wav,timbre,t,medium,92.0,2.038979261,15.74360511,,,,yes,"Cowin, don't know the model",0,,,,,,1,2020-09-16_15h23.50.906,kura-B1,2020.1.2,Win32,60,,,"[""space"",""space"",""space"",""space"",""space"",""space"",""space"",""space"",""space"",""space"",""space"",""space"",""space"",""space"",""space"",""space"",""space"",""space"",""space"",""space"",""space""]","[0.5030000000000427,0.9880000000000564,1.50100000000009,2.0690000000000737,2.689000000000078,3.438000000000102,4.205000000000041,5.041000000000054,5.642000000000053,6.341000000000008,7.143000000000029,7.826999999999998,8.543000000000006,9.162000000000035,9.844000000000051,10.497000000000071,11.214000000000055,11.947000000000003,12.71300000000008,13.525000000000091,14.048000000000002]",space,0.605,0.0,30.0,30.0,36.0,1.0,,,,,,,,,,,,,
,,,,,,,,,,,block_1/strong_t_92_1.wav,timbre,t,strong,92.0,1.394968876,12.52589858,,,,yes,"Cowin, don't know the model",0,,,,,,1,2020-09-16_15h23.50.906,kura-B1,2020.1.2,Win32,60,,,"[""space"",""space"",""space"",""space"",""space"",""space"",""space"",""space"",""space"",""space"",""space"",""space"",""space"",""space"",""space"",""space"",""space"",""space"",""space""]","[0.9829999999999472,1.5860000000000127,2.201999999999998,2.7959999999999354,3.3519999999999754,3.937000000000012,4.539999999999964,5.103999999999928,5.670999999999935,6.256999999999948,6.773000000000025,7.405999999999949,7.958999999999946,8.558999999999969,9.107999999999947,9.692000000000007,10.294999999999959,10.829999999999927,11.389999999999986]",space,0.532,0.0,31.0,31.0,1.0,1.0,,,,,,,,,,,,,
,,,,,,,,,,,block_1/weak_t_72_1.wav,timbre,t,weak,72.0,1.20875322,18.28390061,,,,yes,"Cowin, don't know the model",0,,,,,,1,2020-09-16_15h23.50.906,kura-B1,2020.1.2,Win32,60,,,"[""space"",""space"",""space"",""space"",""space"",""space"",""space"",""space"",""space"",""space"",""space"",""space"",""space"",""space"",""space"",""space"",""space"",""space"",""space"",""space"",""space"",""space"",""space""]","[0.6150000000000091,1.0990000000000464,1.8330000000000837,2.40300000000002,2.9670000000000982,3.719000000000051,4.6860000000000355,5.354000000000042,6.122000000000071,7.008000000000038,7.623000000000047,8.273000000000025,8.990000000000009,9.657000000000039,10.526000000000067,11.309000000000083,12.12600000000009,12.861000000000104,13.814000000000078,14.629000000000019,15.483000000000061,16.361000000000104,17.082000000000107]",space,0.571,0.0,32.0,32.0,29.0,1.0,,,,,,,,,,,,,
,,,,,,,,,,,block_1/none_t_81_1.wav,timbre,t,none,81.0,1.412848736,15.74926597,,,,yes,"Cowin, don't know the model",0,,,,,,1,2020-09-16_15h23.50.906,kura-B1,2020.1.2,Win32,60,,,"[""space"",""space"",""space"",""space"",""space"",""space"",""space"",""space"",""space"",""space"",""space"",""space"",""space"",""space"",""space"",""space"",""space"",""space"",""space"",""space"",""space"",""space"",""space"",""space"",""space"",""space"",""space"",""space"",""space"",""space"",""space"",""space""]","[0.5880000000000791,1.0990000000000464,1.6520000000000437,2.2060000000000173,2.63900000000001,3.05600000000004,3.6580000000000155,4.307000000000016,5.0060000000000855,5.509999999999991,5.944000000000074,6.675000000000068,7.293000000000006,7.86099999999999,8.411000000000058,9.050000000000068,9.647000000000048,10.345000000000027,10.896000000000072,11.379999999999995,11.647000000000048,11.898000000000025,12.09800000000007,12.401000000000067,12.648000000000025,12.898000000000025,13.132000000000062,13.416000000000054,13.734000000000037,13.951999999999998,14.200000000000045,14.5]",space,0.9,0.0,33.0,33.0,11.0,1.0,,,,,,,,,,,,,
,,,,,,,,,,,block_1/medium_t_105_2.wav,timbre,t,medium,105.0,2.138064486,12.91584226,,,,yes,"Cowin, don't know the model",0,,,,,,1,2020-09-16_15h23.50.906,kura-B1,2020.1.2,Win32,60,,,"[""space"",""space"",""space"",""space"",""space"",""space"",""space"",""space"",""space"",""space"",""space"",""space"",""space"",""space"",""space"",""space"",""space"",""space"",""space""]","[1.1029999999999518,1.6050000000000182,2.159999999999968,2.7210000000000036,3.22199999999998,3.772999999999911,4.3559999999999945,4.908999999999992,5.4909999999999854,6.091000000000008,6.610000000000014,7.126999999999953,7.675999999999931,8.27699999999993,8.871999999999957,9.410999999999945,9.961999999999989,10.49899999999991,11.081000000000017]",space,0.618,0.0,34.0,34.0,19.0,1.0,,,,,,,,,,,,,
,,,,,,,,,,,block_1/strong_t_81_2.wav,timbre,t,strong,81.0,1.680376519,15.8366577,,,,yes,"Cowin, don't know the model",0,,,,,,1,2020-09-16_15h23.50.906,kura-B1,2020.1.2,Win32,60,,,"[""space"",""space"",""space"",""space"",""space"",""space"",""space"",""space"",""space"",""space"",""space"",""space"",""space"",""space"",""space"",""space"",""space"",""space"",""space"",""space""]","[0.5670000000000073,1.4180000000000064,2.1580000000000155,2.963999999999942,3.7200000000000273,4.3559999999999945,5.091000000000008,5.822999999999979,6.640999999999963,7.326999999999998,7.975000000000023,8.710000000000036,9.377999999999929,10.196000000000026,10.927999999999997,11.680999999999926,12.347999999999956,13.06499999999994,13.797000000000025,14.567000000000007]",space,0.587,0.0,35.0,35.0,26.0,1.0,,,,,,,,,,,,,
,,,,,,,,,,,block_1/medium_t_81_1.wav,timbre,t,medium,81.0,2.382699777,16.54165669,,,,yes,"Cowin, don't know the model",0,,,,,,1,2020-09-16_15h23.50.906,kura-B1,2020.1.2,Win32,60,,,"[""space"",""space"",""space"",""space"",""space"",""space"",""space"",""space"",""space"",""space"",""space"",""space"",""space"",""space"",""space"",""space"",""space"",""space"",""space"",""space"",""space"",""space"",""space"",""space"",""space"",""space"",""space"",""space"",""space"",""space"",""space"",""space"",""space"",""space"",""space"",""space"",""space"",""space"",""space""]","[0.8489999999999327,1.1099999999999,1.3349999999999227,1.766999999999939,1.9209999999999354,2.519999999999982,2.6849999999999454,3.3209999999999127,3.4950000000000045,4.038999999999987,4.2299999999999045,4.788000000000011,4.953999999999951,5.531999999999925,5.671999999999912,6.2349999999999,6.406999999999925,6.572999999999979,7.050999999999931,7.616999999999962,7.7579999999999245,8.541999999999916,8.705999999999904,9.256999999999948,9.389999999999986,9.958999999999946,10.117999999999938,10.760999999999967,10.927999999999997,11.424999999999955,11.57899999999995,12.210999999999899,12.378999999999905,12.926999999999907,13.160999999999945,13.697000000000003,13.863999999999919,14.377999999999929,14.528999999999996]",space,0.632,0.0,36.0,36.0,4.0,1.0,,,,,,,,,,,,,
,,,,,,,,,,,block_1/strong_t_72_2.wav,timbre,t,strong,72.0,2.307367753,17.72600721,,,,yes,"Cowin, don't know the model",0,,,,,,1,2020-09-16_15h23.50.906,kura-B1,2020.1.2,Win32,60,,,"[""space"",""space"",""space"",""space"",""space"",""space"",""space"",""space"",""space"",""space"",""space"",""space"",""space"",""space"",""space"",""space"",""space"",""space"",""space"",""space""]","[1.0009999999999764,1.4660000000000082,2.2519999999999527,3.0679999999999836,3.905999999999949,4.704999999999927,5.5049999999999955,6.356999999999971,7.106999999999971,7.875,8.600999999999999,9.406999999999925,10.209999999999923,10.969999999999914,11.858999999999924,12.572000000000003,13.36099999999999,14.214999999999918,14.991999999999962,15.793999999999983]",space,0.818,0.0,37.0,37.0,6.0,1.0,,,,,,,,,,,,,
,,,,,,,,,,,block_1/medium_t_92_2.wav,timbre,t,medium,92.0,2.140863801,15.18521754,,,,yes,"Cowin, don't know the model",0,,,,,,1,2020-09-16_15h23.50.906,kura-B1,2020.1.2,Win32,60,,,"[""space"",""space"",""space"",""space"",""space"",""space"",""space"",""space"",""space"",""space"",""space"",""space"",""space"",""space"",""space"",""space"",""space"",""space"",""space"",""space"",""space"",""space"",""space"",""space"",""space"",""space"",""space"",""space"",""space"",""space"",""space"",""space"",""space"",""space"",""space"",""space"",""space"",""space"",""space"",""space""]","[0.8689999999999145,1.052000000000021,1.502999999999929,1.6539999999999964,2.113999999999919,2.2819999999999254,2.738999999999919,2.88799999999992,3.336999999999989,3.504000000000019,3.97199999999998,4.13900000000001,4.621999999999957,4.822999999999979,5.405999999999949,5.557000000000016,6.036999999999921,6.225999999999999,6.738999999999919,6.906999999999925,7.392999999999915,7.557999999999993,8.02699999999993,8.211000000000013,8.719999999999914,8.877999999999929,9.361999999999966,9.546999999999912,9.995000000000005,10.17999999999995,10.629999999999995,10.795999999999935,11.211999999999989,11.394999999999982,11.831000000000017,12.028999999999996,12.51400000000001,12.716000000000008,13.17999999999995,13.363999999999919]",space,0.657,0.0,38.0,38.0,32.0,1.0,,,,,,,,,,,,,
,,,,,,,,,,,block_1/weak_t_119_1.wav,timbre,t,weak,119.0,1.96015814,12.2695459,,,,yes,"Cowin, don't know the model",0,,,,,,1,2020-09-16_15h23.50.906,kura-B1,2020.1.2,Win32,60,,,"[""space"",""space"",""space"",""space"",""space"",""space"",""space"",""space"",""space"",""space"",""space"",""space"",""space"",""space"",""space"",""space"",""space"",""space"",""space"",""space"",""space"",""space"",""space"",""space"",""space"",""space"",""space"",""space""]","[0.5529999999999973,0.7509999999999764,1.1359999999999673,1.2860000000000582,1.7390000000000327,1.9279999999999973,2.08400000000006,2.5030000000000427,2.725999999999999,3.1720000000000255,3.5230000000000246,3.899000000000001,4.257000000000062,4.6889999999999645,5.106999999999971,5.557999999999993,5.991999999999962,6.45900000000006,6.875999999999976,7.29200000000003,7.7450000000000045,8.161000000000058,8.576999999999998,8.975999999999999,9.395999999999958,9.798000000000002,10.196000000000026,10.577999999999975]",space,0.502,0.0,39.0,39.0,12.0,1.0,,,,,,,,,,,,,
,,,,,,,,,,,block_2/weak_n_105_2.wav,no,n,weak,105.0,1.251032373,14.19257432,,,,yes,"Cowin, don't know the model",0,,,,,,1,2020-09-16_15h23.50.906,kura-B1,2020.1.2,Win32,60,,,,,,,,,,,,space,74.511,"[""space"",""space"",""space"",""space"",""space"",""space"",""space"",""space"",""space"",""space"",""space"",""space"",""space"",""space"",""space"",""space"",""space"",""space"",""space"",""space"",""space"",""space"",""space"",""space"",""space"",""space"",""space"",""space"",""space"",""space"",""space"",""space"",""space"",""space"",""space"",""space"",""space"",""space"",""space"",""space"",""space"",""space"",""space"",""space"",""space"",""space"",""space"",""space"",""space"",""space"",""space"",""space"",""space"",""space"",""space"",""space"",""space"",""space""]","[1.2659999999999627,1.4370000000000118,1.6189999999999145,1.7859999999999445,2.0079999999999245,2.185999999999922,2.4029999999999063,2.6200000000000045,2.7899999999999636,2.97199999999998,3.298999999999978,3.4689999999999372,3.687999999999988,3.8379999999999654,4.005999999999972,4.320999999999913,4.505999999999972,4.705999999999904,4.905999999999949,5.108999999999924,5.308999999999969,5.505999999999972,5.706999999999994,5.906999999999925,6.094999999999914,6.310999999999922,6.524999999999977,6.723999999999933,6.9109999999999445,7.11099999999999,7.326999999999998,7.544999999999959,7.741999999999962,7.958999999999946,8.174999999999955,8.42599999999993,8.642999999999915,8.890999999999963,9.079999999999927,9.329999999999927,9.524000000000001,9.759999999999991,9.976999999999975,10.228999999999928,10.477999999999952,10.69399999999996,10.895999999999958,11.111999999999966,11.347999999999956,11.548000000000002,11.74899999999991,11.92999999999995,12.145999999999958,12.378999999999905,12.596000000000004,12.798000000000002,12.99899999999991,13.232999999999947]",space,0.467,0.0,0.0,0.0,26.0,1.0,,
,,,,,,,,,,,block_2/none_n_72_1.wav,no,n,none,72.0,2.425336639,22.99082417,,,,yes,"Cowin, don't know the model",0,,,,,,1,2020-09-16_15h23.50.906,kura-B1,2020.1.2,Win32,60,,,,,,,,,,,,,,"[""space"",""space"",""space"",""space"",""space"",""space"",""space"",""space"",""space"",""space"",""space"",""space"",""space"",""space"",""space"",""space"",""space"",""space"",""space"",""space"",""space"",""space"",""space"",""space"",""space"",""space"",""space"",""space"",""space"",""space"",""space"",""space"",""space"",""space"",""space"",""space"",""space"",""space"",""space"",""space"",""space"",""space"",""space"",""space"",""space"",""space"",""space"",""space"",""space"",""space"",""space"",""space"",""space"",""space"",""space"",""space"",""space"",""space"",""space"",""space"",""space"",""space"",""space"",""space"",""space"",""space"",""space"",""space"",""space"",""space"",""space"",""space"",""space"",""space"",""space"",""space"",""space"",""space"",""space"",""space"",""space"",""space"",""space"",""space"",""space"",""space"",""space"",""space"",""space"",""space"",""space"",""space"",""space"",""space"",""space"",""space"",""space"",""space"",""space"",""space""]","[0.6310000000000855,0.8140000000000782,1.0149999999999864,1.2320000000000846,1.4660000000000082,1.66700000000003,1.86099999999999,2.035000000000082,2.2530000000000427,2.451000000000022,2.6499999999999773,2.83400000000006,3.0330000000000155,3.2340000000000373,3.4010000000000673,3.58400000000006,3.769999999999982,4.0090000000000146,4.219000000000051,4.386000000000081,4.585000000000036,4.767000000000053,4.968000000000075,5.168999999999983,5.3530000000000655,5.536000000000058,5.73700000000008,5.979000000000042,6.153999999999996,6.404999999999973,6.607000000000085,6.810000000000059,7.038000000000011,7.238000000000056,7.470000000000027,7.6720000000000255,7.892000000000053,8.182999999999993,8.373000000000047,8.623000000000047,8.80600000000004,8.990000000000009,9.224000000000046,9.423999999999978,9.624000000000024,9.825000000000045,10.026000000000067,10.194000000000074,10.358000000000061,10.557999999999993,10.807999999999993,11.041000000000054,11.243000000000052,11.427000000000021,11.608000000000061,11.790000000000077,11.995000000000005,12.196000000000026,12.411000000000058,12.596000000000004,12.759000000000015,12.95900000000006,13.177000000000021,13.410000000000082,13.628000000000043,13.829000000000065,14.008000000000038,14.230999999999995,14.46300000000008,14.69500000000005,14.894999999999982,15.095000000000027,15.278999999999996,15.495999999999981,15.730000000000018,15.947999999999979,16.148000000000025,16.359000000000037,16.567000000000007,16.797000000000025,16.99700000000007,17.215000000000032,17.382000000000062,17.57400000000007,17.75,18.017000000000053,18.218000000000075,18.416000000000054,18.599000000000046,18.81600000000003,19.016000000000076,19.19900000000007,19.399999999999977,19.649,19.853000000000065,20.052999999999997,20.301000000000045,20.51800000000003,20.73700000000008,20.932999999999993]",space,1.653,0.0,1.0,1.0,18.0,1.0,,
,,,,,,,,,,,block_2/strong_n_81_2.wav,no,n,strong,81.0,1.892264478,17.05494022,,,,yes,"Cowin, don't know the model",0,,,,,,1,2020-09-16_15h23.50.906,kura-B1,2020.1.2,Win32,60,,,,,,,,,,,,,,"[""space"",""space"",""space"",""space"",""space"",""space"",""space"",""space"",""space"",""space"",""space"",""space"",""space"",""space"",""space"",""space"",""space"",""space"",""space"",""space""]","[1.0510000000000446,1.82000000000005,2.5860000000000127,3.4060000000000628,4.154999999999973,4.873000000000047,5.619000000000028,6.426000000000045,7.196000000000026,7.925000000000068,8.675000000000068,9.461999999999989,10.129999999999995,10.94500000000005,11.728000000000065,12.54600000000005,13.229000000000042,13.984000000000037,14.697999999999979,15.500999999999976]",space,0.483,0.0,2.0,2.0,8.0,1.0,,
,,,,,,,,,,,block_2/none_n_92_2.wav,no,n,none,92.0,2.007703886,14.64294198,,,,yes,"Cowin, don't know the model",0,,,,,,1,2020-09-16_15h23.50.906,kura-B1,2020.1.2,Win32,60,,,,,,,,,,,,,,"[""space"",""space"",""space"",""space"",""space"",""space"",""space"",""space"",""space"",""space"",""space"",""space"",""space"",""space"",""space"",""space"",""space"",""space"",""space"",""space"",""space"",""space"",""space"",""space"",""space"",""space"",""space"",""space"",""space"",""space"",""space"",""space"",""space"",""space"",""space"",""space"",""space"",""space"",""space"",""space"",""space"",""space"",""space"",""space"",""space"",""space"",""space"",""space"",""space"",""space"",""space"",""space"",""space"",""space"",""space"",""space"",""space"",""space"",""space"",""space"",""space"",""space"",""space""]","[0.6989999999999554,0.8659999999999854,1.0489999999999782,1.2160000000000082,1.3999999999999773,1.5839999999999463,1.7509999999999764,1.9629999999999654,2.117999999999938,2.302000000000021,2.4850000000000136,2.6709999999999354,2.841000000000008,3.018000000000029,3.217999999999961,3.40199999999993,3.6019999999999754,3.788000000000011,3.9729999999999563,4.170999999999935,4.355000000000018,4.537000000000035,4.754000000000019,4.937000000000012,5.153999999999883,5.353999999999928,5.536999999999921,5.72099999999989,5.919999999999959,6.140999999999963,6.3390000000000555,6.55499999999995,6.741000000000099,6.939999999999941,7.13900000000001,7.344999999999914,7.538999999999874,7.7420000000000755,7.950999999999908,8.158999999999992,8.35599999999988,8.557999999999879,8.742000000000075,9.006999999999948,9.225000000000023,9.425000000000068,9.63900000000001,9.81000000000006,10.043000000000006,10.236999999999966,10.424000000000092,10.628000000000043,10.842999999999961,11.043000000000006,11.246999999999957,11.443000000000097,11.645000000000095,11.841000000000008,12.038999999999874,12.244000000000028,12.444000000000074,12.630999999999972,12.830000000000041]",space,0.354,0.0,3.0,3.0,23.0,1.0,,
,,,,,,,,,,,block_2/none_n_81_1.wav,no,n,none,81.0,1.160099605,17.42268464,,,,yes,"Cowin, don't know the model",0,,,,,,1,2020-09-16_15h23.50.906,kura-B1,2020.1.2,Win32,60,,,,,,,,,,,,,,"[""space"",""space"",""space"",""space"",""space"",""space"",""space"",""space"",""space"",""space"",""space"",""space"",""space"",""space"",""space"",""space"",""space"",""space"",""space"",""space"",""space"",""space"",""space"",""space"",""space"",""space"",""space"",""space"",""space"",""space"",""space"",""space"",""space"",""space"",""space"",""space"",""space"",""space"",""space"",""space"",""space"",""space"",""space"",""space"",""space"",""space"",""space"",""space"",""space"",""space"",""space"",""space"",""space"",""space"",""space"",""space"",""space"",""space"",""space"",""space"",""space"",""space"",""space"",""space"",""space"",""space"",""space"",""space"",""space"",""space"",""space"",""space"",""space"",""space""]","[0.46499999999991815,0.6820000000000164,0.8820000000000618,1.2490000000000236,1.4500000000000455,1.6510000000000673,2.0499999999999545,2.201999999999998,2.383000000000038,2.5499999999999545,2.866999999999962,3.0679999999999836,3.268000000000029,3.4700000000000273,3.6699999999998454,3.870999999999867,4.069999999999936,4.300999999999931,4.503999999999905,4.701999999999998,4.969000000000051,5.168999999999869,5.385999999999967,5.605000000000018,5.789999999999964,6.017000000000053,6.236999999999853,6.471000000000004,6.654999999999973,6.938999999999851,7.155999999999949,7.390999999999849,7.657999999999902,7.856999999999971,8.075000000000045,8.27299999999991,8.455999999999904,8.722999999999956,8.940000000000055,9.142000000000053,9.392000000000053,9.607999999999947,9.826999999999998,10.072999999999865,10.273999999999887,10.49499999999989,10.740999999999985,10.942999999999984,11.177999999999884,11.393000000000029,11.595000000000027,11.811999999999898,12.003999999999905,12.228000000000065,12.426999999999907,12.648999999999887,12.844000000000051,13.059999999999945,13.294999999999845,13.529999999999973,13.730999999999995,13.932000000000016,14.128999999999905,14.361999999999853,14.561999999999898,14.778999999999996,14.995999999999867,15.180000000000064,15.412000000000035,15.586999999999989,15.82400000000007,16.044999999999845,16.325000000000045,16.513999999999896]",space,0.487,0.0,4.0,4.0,29.0,1.0,,
,,,,,,,,,,,block_2/strong_n_105_1.wav,no,n,strong,105.0,1.056930825,14.45525282,,,,yes,"Cowin, don't know the model",0,,,,,,1,2020-09-16_15h23.50.906,kura-B1,2020.1.2,Win32,60,,,,,,,,,,,,,,"[""space"",""space"",""space"",""space"",""space"",""space"",""space"",""space"",""space"",""space"",""space"",""space"",""space"",""space"",""space"",""space"",""space"",""space"",""space"",""space""]","[0.7719999999999345,1.5209999999999582,2.2309999999999945,2.949000000000069,3.520999999999958,4.239000000000033,4.925999999999931,5.606999999999971,6.2409999999999854,7.052999999999884,7.608999999999924,8.326000000000022,9.009999999999991,9.644000000000005,10.377999999999929,11.04600000000005,11.712999999999965,12.396999999999935,13.057999999999993,13.68100000000004]",space,0.892,0.0,5.0,5.0,13.0,1.0,,
,,,,,,,,,,,block_2/medium_n_81_2.wav,no,n,medium,81.0,1.533387433,15.23592712,,,,yes,"Cowin, don't know the model",0,,,,,,1,2020-09-16_15h23.50.906,kura-B1,2020.1.2,Win32,60,,,,,,,,,,,,,,"[""space"",""space"",""space"",""space"",""space"",""space"",""space"",""space"",""space"",""space"",""space"",""space"",""space"",""space"",""space"",""space"",""space"",""space"",""space"",""space"",""space"",""space"",""space"",""space"",""space"",""space"",""space"",""space"",""space"",""space"",""space"",""space"",""space"",""space"",""space"",""space"",""space""]","[0.6870000000001255,1.4210000000000491,2.1410000000000764,2.9220000000000255,3.1390000000001237,3.5920000000000982,3.7590000000000146,4.190000000000055,4.3559999999999945,4.874000000000024,5.024000000000115,5.5750000000000455,5.7590000000000146,6.292000000000144,6.45900000000006,6.910000000000082,7.076000000000022,7.679000000000087,7.845000000000027,8.322000000000116,8.490000000000009,9.057999999999993,9.223999999999933,9.815000000000055,9.966000000000122,10.44900000000007,10.629000000000133,11.111000000000104,11.2650000000001,11.80600000000004,11.982999999999947,12.551000000000158,12.718000000000075,13.215000000000146,13.392000000000053,13.901000000000067,14.072000000000116]",space,0.638,0.0,6.0,6.0,34.0,1.0,,
,,,,,,,,,,,block_2/weak_n_72_1.wav,no,n,weak,72.0,2.399201816,17.30954195,,,,yes,"Cowin, don't know the model",0,,,,,,1,2020-09-16_15h23.50.906,kura-B1,2020.1.2,Win32,60,,,,,,,,,,,,,,"[""space"",""space"",""space"",""space"",""space"",""space"",""space"",""space"",""space"",""space"",""space"",""space"",""space"",""space"",""space"",""space"",""space"",""space"",""space"",""space"",""space"",""space"",""space"",""space"",""space"",""space"",""space"",""space"",""space"",""space"",""space"",""space"",""space"",""space"",""space"",""space"",""space"",""space"",""space"",""space"",""space"",""space"",""space"",""space""]","[1.0509999999999309,1.252999999999929,1.8240000000000691,1.9860000000001037,2.4700000000000273,2.6539999999999964,3.288000000000011,3.456000000000131,3.9729999999999563,4.15300000000002,4.66599999999994,4.848999999999933,5.3900000000001,5.573000000000093,6.173000000000002,6.342000000000098,6.9249999999999545,7.093000000000075,7.758000000000038,7.925999999999931,8.457000000000107,8.625,9.120000000000118,9.289999999999964,9.778999999999996,9.996000000000095,10.429000000000087,10.678000000000111,10.913000000000011,11.076999999999998,11.394999999999982,11.581000000000131,11.846000000000004,12.09699999999998,12.357999999999947,12.560999999999922,12.999000000000024,13.182000000000016,13.596000000000004,13.764000000000124,14.314000000000078,14.480000000000018,15.08400000000006,15.250999999999976]",space,0.735,0.0,7.0,7.0,15.0,1.0,,
,,,,,,,,,,,block_2/none_n_81_2.wav,no,n,none,81.0,1.688814472,20.84019769,,,,yes,"Cowin, don't know the model",0,,,,,,1,2020-09-16_15h23.50.906,kura-B1,2020.1.2,Win32,60,,,,,,,,,,,,,,"[""space"",""space"",""space"",""space"",""space"",""space"",""space"",""space"",""space"",""space"",""space"",""space"",""space"",""space"",""space"",""space"",""space"",""space"",""space"",""space"",""space"",""space"",""space"",""space"",""space"",""space"",""space"",""space"",""space"",""space"",""space"",""space"",""space"",""space"",""space"",""space"",""space"",""space"",""space"",""space"",""space"",""space"",""space"",""space"",""space"",""space"",""space"",""space"",""space"",""space"",""space"",""space"",""space"",""space"",""space"",""space"",""space"",""space""]","[0.7180000000000746,0.91800000000012,1.1000000000001364,1.2970000000000255,1.6549999999999727,1.8550000000000182,2.0299999999999727,2.203999999999951,2.535000000000082,2.7519999999999527,2.935999999999922,3.3040000000000873,3.453999999999951,3.824000000000069,3.990000000000009,4.322000000000116,4.504000000000133,4.838999999999942,5.22199999999998,5.624000000000024,6.057999999999993,6.440000000000055,6.8559999999999945,7.276000000000067,7.727000000000089,8.111000000000104,8.525000000000091,8.942999999999984,9.29300000000012,9.721000000000004,10.077999999999975,10.460000000000036,10.845000000000027,11.222999999999956,11.596000000000004,12.01299999999992,12.396999999999935,12.749000000000024,13.149000000000115,13.519000000000005,13.900000000000091,14.250999999999976,14.582000000000107,14.983999999999924,15.345000000000027,15.701000000000022,15.996000000000095,16.367999999999938,16.71900000000005,17.019000000000005,17.284000000000106,17.56899999999996,17.853000000000065,18.23700000000008,18.575000000000045,18.920000000000073,19.238000000000056,19.55600000000004]",space,0.852,0.0,8.0,8.0,28.0,1.0,,
,,,,,,,,,,,block_2/strong_n_72_2.wav,no,n,strong,72.0,2.258938628,19.59540121,,,,yes,"Cowin, don't know the model",0,,,,,,1,2020-09-16_15h23.50.906,kura-B1,2020.1.2,Win32,60,,,,,,,,,,,,,,"[""space"",""space"",""space"",""space"",""space"",""space"",""space"",""space"",""space"",""space"",""space"",""space"",""space"",""space"",""space"",""space"",""space"",""space"",""space"",""space""]","[1.3019999999999072,1.9489999999998417,2.5699999999999363,3.4549999999999272,4.336000000000013,5.203999999999951,6.13799999999992,6.970000000000027,7.903999999999996,8.877999999999929,9.807999999999993,10.662000000000035,11.576999999999998,12.361999999999853,13.361999999999853,14.264999999999873,15.182000000000016,16.01800000000003,16.899999999999864,17.786000000000058]",space,0.738,0.0,9.0,9.0,30.0,1.0,,
,,,,,,,,,,,block_2/strong_n_105_2.wav,no,n,strong,105.0,1.030135556,14.17553238,,,,yes,"Cowin, don't know the model",0,,,,,,1,2020-09-16_15h23.50.906,kura-B1,2020.1.2,Win32,60,,,,,,,,,,,,,,"[""space"",""space"",""space"",""space"",""space"",""space"",""space"",""space"",""space"",""space"",""space"",""space"",""space"",""space"",""space"",""space"",""space"",""space"",""space"",""space""]","[0.8859999999999673,1.5,2.1870000000001255,2.852000000000089,3.522000000000162,4.189000000000078,4.870000000000118,5.572000000000116,6.217000000000098,6.855000000000018,7.499000000000024,8.136999999999944,8.807000000000016,9.476000000000113,10.142000000000053,10.777000000000044,11.45399999999995,12.094000000000051,12.77800000000002,13.429000000000087]",space,0.787,0.0,10.0,10.0,9.0,1.0,,
,,,,,,,,,,,block_2/medium_n_119_2.wav,no,n,medium,119.0,2.453413839,11.51042064,,,,yes,"Cowin, don't know the model",0,,,,,,1,2020-09-16_15h23.50.906,kura-B1,2020.1.2,Win32,60,,,,,,,,,,,,,,"[""space"",""space"",""space"",""space"",""space"",""space"",""space"",""space"",""space"",""space"",""space"",""space"",""space"",""space"",""space"",""space"",""space"",""space"",""space"",""space"",""space"",""space"",""space"",""space"",""space"",""space"",""space"",""space"",""space"",""space"",""space"",""space"",""space"",""space"",""space"",""space"",""space"",""space"",""space"",""space"",""space"",""space"",""space"",""space"",""space""]","[0.6679999999998927,0.8840000000000146,1.0850000000000364,1.27800000000002,1.5699999999999363,1.8009999999999309,2.0009999999999764,2.2029999999999745,2.3710000000000946,2.5860000000000127,2.8209999999999127,3.0190000000000055,3.230000000000018,3.4190000000000964,3.63799999999992,3.849999999999909,4.055000000000064,4.255000000000109,4.457000000000107,4.666999999999916,4.839999999999918,5.036000000000058,5.222999999999956,5.423999999999978,5.616999999999962,5.835000000000036,6.008000000000038,6.194999999999936,6.392000000000053,6.607999999999947,6.817999999999984,6.991999999999962,7.1590000000001055,7.375,7.537000000000035,7.720000000000027,7.905999999999949,8.092000000000098,8.276000000000067,8.486000000000104,8.672000000000025,8.877999999999929,9.055000000000064,9.226000000000113,9.428000000000111]",space,0.4,0.0,11.0,11.0,21.0,1.0,,
,,,,,,,,,,,block_2/weak_n_92_1.wav,no,n,weak,92.0,1.493156661,15.23787321,,,,yes,"Cowin, don't know the model",0,,,,,,1,2020-09-16_15h23.50.906,kura-B1,2020.1.2,Win32,60,,,,,,,,,,,,,,"[""space"",""space"",""space"",""space"",""space"",""space"",""space"",""space"",""space"",""space"",""space"",""space"",""space"",""space"",""space"",""space"",""space"",""space"",""space"",""space"",""space"",""space"",""space"",""space"",""space"",""space"",""space"",""space"",""space"",""space"",""space"",""space"",""space"",""space"",""space"",""space"",""space"",""space"",""space"",""space"",""space"",""space"",""space"",""space"",""space"",""space"",""space"",""space"",""space"",""space"",""space"",""space"",""space"",""space"",""space"",""space"",""space"",""space"",""space"",""space"",""space"",""space"",""space"",""space"",""space"",""space"",""space""]","[0.5960000000000036,0.8009999999999309,1.018000000000029,1.2170000000000982,1.40300000000002,1.58400000000006,1.752999999999929,1.9610000000000127,2.1510000000000673,2.3170000000000073,2.5160000000000764,2.7280000000000655,3.0009999999999764,3.219000000000051,3.6140000000000327,3.788000000000011,3.964999999999918,4.23700000000008,4.449000000000069,4.655999999999949,4.855000000000018,5.038000000000011,5.22199999999998,5.423000000000002,5.636999999999944,5.838999999999942,6.048000000000002,6.2409999999999854,6.451000000000022,6.658000000000129,6.855000000000018,7.05600000000004,7.275000000000091,7.473999999999933,7.692000000000007,7.893000000000029,8.092000000000098,8.275000000000091,8.473999999999933,8.673999999999978,8.860000000000127,9.059999999999945,9.277000000000044,9.458000000000084,9.674999999999955,9.861000000000104,10.060999999999922,10.242999999999938,10.442000000000007,10.644000000000005,10.863000000000056,11.067999999999984,11.278999999999996,11.492999999999938,11.712999999999965,11.894999999999982,12.096000000000004,12.313000000000102,12.51299999999992,12.712999999999965,12.914999999999964,13.126999999999953,13.330999999999904,13.51299999999992,13.729000000000042,13.964999999999918,14.179000000000087]",space,0.916,0.0,12.0,12.0,2.0,1.0,,
,,,,,,,,,,,block_2/medium_n_72_2.wav,no,n,medium,72.0,2.017934227,19.05022448,,,,yes,"Cowin, don't know the model",0,,,,,,1,2020-09-16_15h23.50.906,kura-B1,2020.1.2,Win32,60,,,,,,,,,,,,,,"[""space"",""space"",""space"",""space"",""space"",""space"",""space"",""space"",""space"",""space"",""space"",""space"",""space"",""space"",""space"",""space"",""space"",""space"",""space""]","[0.7019999999999982,1.5549999999998363,2.4890000000000327,3.3379999999999654,4.3250000000000455,5.205999999999904,6.107999999999947,6.974999999999909,7.893000000000029,8.694999999999936,9.577999999999975,10.441000000000031,11.294999999999845,12.248000000000047,13.079999999999927,13.982999999999947,14.816000000000031,15.732999999999947,16.602999999999838]",space,0.32,0.0,13.0,13.0,14.0,1.0,,
,,,,,,,,,,,block_2/weak_n_92_2.wav,no,n,weak,92.0,1.908793764,14.14589127,,,,yes,"Cowin, don't know the model",0,,,,,,1,2020-09-16_15h23.50.906,kura-B1,2020.1.2,Win32,60,,,,,,,,,,,,,,"[""space"",""space"",""space"",""space"",""space"",""space"",""space"",""space"",""space"",""space"",""space"",""space"",""space"",""space"",""space"",""space"",""space"",""space"",""space"",""space"",""space""]","[0.5679999999999836,1.13799999999992,1.668999999999869,2.2200000000000273,2.8029999999998836,3.453999999999951,4.038000000000011,4.621999999999844,5.189999999999827,5.8409999999998945,6.475999999999885,7.05600000000004,7.641999999999825,8.27599999999984,8.857999999999947,9.49499999999989,10.060999999999922,10.679999999999836,11.279999999999973,11.92899999999986,12.547000000000025]",space,0.714,0.0,14.0,14.0,6.0,1.0,,
,,,,,,,,,,,block_2/medium_n_119_1.wav,no,n,medium,119.0,1.010172499,10.57697522,,,,yes,"Cowin, don't know the model",0,,,,,,1,2020-09-16_15h23.50.906,kura-B1,2020.1.2,Win32,60,,,,,,,,,,,,,,"[""space"",""space"",""space"",""space"",""space"",""space"",""space"",""space"",""space"",""space"",""space"",""space"",""space"",""space"",""space"",""space"",""space"",""space"",""space"",""space""]","[0.5180000000000291,1.0720000000001164,1.55600000000004,2.022000000000162,2.4220000000000255,2.8730000000000473,3.3570000000001983,3.841000000000122,4.358000000000175,4.852000000000089,5.348000000000184,5.857000000000198,6.358000000000175,6.810000000000173,7.291000000000167,7.759999999999991,8.29600000000005,8.797000000000025,9.314000000000078,9.79600000000005]",space,0.648,0.0,15.0,15.0,24.0,1.0,,
,,,,,,,,,,,block_2/medium_n_92_2.wav,no,n,medium,92.0,1.042358962,12.57945647,,,,yes,"Cowin, don't know the model",0,,,,,,1,2020-09-16_15h23.50.906,kura-B1,2020.1.2,Win32,60,,,,,,,,,,,,,,"[""space"",""space"",""space"",""space"",""space"",""space"",""space"",""space"",""space"",""space"",""space"",""space"",""space"",""space"",""space"",""space"",""space"",""space"",""space"",""space"",""space"",""space"",""space"",""space"",""space"",""space"",""space"",""space""]","[0.7870000000000346,1.3200000000001637,1.7690000000000055,2.2530000000001564,2.6700000000000728,3.1400000000001,3.5390000000002146,4.025000000000091,4.426000000000158,4.8250000000000455,5.255000000000109,5.626000000000204,5.964000000000169,6.357000000000198,6.70900000000006,7.045000000000073,7.36200000000008,7.761000000000195,8.057000000000016,8.39500000000021,8.826999999999998,9.261000000000195,9.661000000000058,9.978000000000065,10.44600000000014,11.065000000000055,11.563000000000102,11.897000000000162]",space,2.195,0.0,16.0,16.0,1.0,1.0,,
,,,,,,,,,,,block_2/strong_n_81_1.wav,no,n,strong,81.0,1.085814619,16.04744727,,,,yes,"Cowin, don't know the model",0,,,,,,1,2020-09-16_15h23.50.906,kura-B1,2020.1.2,Win32,60,,,,,,,,,,,,,,"[""space"",""space"",""space"",""space"",""space"",""space"",""space"",""space"",""space"",""space"",""space"",""space"",""space"",""space"",""space"",""space"",""space"",""space"",""space"",""space"",""space""]","[0.6189999999999145,1.3689999999999145,1.8540000000000418,2.5370000000000346,3.3209999999999127,4.138999999999896,4.91599999999994,5.608999999999924,6.307000000000016,7.111000000000104,7.894999999999982,8.6099999999999,9.427999999999884,10.11200000000008,10.881000000000085,11.613000000000056,12.350999999999885,13.08199999999988,13.904999999999973,14.69399999999996,15.432999999999993]",space,0.987,0.0,17.0,17.0,12.0,1.0,,
,,,,,,,,,,,block_2/weak_n_119_2.wav,no,n,weak,119.0,1.359763169,11.32207609,,,,yes,"Cowin, don't know the model",0,,,,,,1,2020-09-16_15h23.50.906,kura-B1,2020.1.2,Win32,60,,,,,,,,,,,,,,"[""space"",""space"",""space"",""space"",""space"",""space"",""space"",""space"",""space"",""space"",""space"",""space"",""space"",""space"",""space"",""space"",""space"",""space"",""space"",""space"",""space"",""space"",""space"",""space"",""space"",""space"",""space"",""space"",""space"",""space"",""space"",""space""]","[0.7699999999999818,1.2509999999999764,1.7029999999999745,2.155999999999949,2.55600000000004,3.020999999999958,3.4710000000000036,3.893000000000029,4.29099999999994,4.56899999999996,4.788000000000011,5.038999999999987,5.338999999999942,5.571999999999889,5.8599999999999,6.124000000000024,6.441000000000031,6.673999999999978,6.940000000000055,7.156999999999925,7.427999999999884,7.6749999999999545,7.925999999999931,8.192000000000007,8.44399999999996,8.692999999999984,8.95900000000006,9.195999999999913,9.44399999999996,9.692999999999984,9.92599999999993,10.19399999999996]",space,0.622,0.0,18.0,18.0,36.0,1.0,,
,,,,,,,,,,,block_2/strong_n_72_1.wav,no,n,strong,72.0,1.979367889,17.70027492,,,,yes,"Cowin, don't know the model",0,,,,,,1,2020-09-16_15h23.50.906,kura-B1,2020.1.2,Win32,60,,,,,,,,,,,,,,"[""space"",""space"",""space"",""space"",""space"",""space"",""space"",""space"",""space"",""space"",""space"",""space"",""space"",""space"",""space"",""space"",""space"",""space"",""space"",""space""]","[0.6369999999999436,1.3689999999999145,2.370999999999867,3.171999999999798,4.003999999999905,4.8259999999997945,5.641999999999825,6.473999999999933,7.323999999999842,8.107999999999947,8.875999999999976,9.730000000000018,10.529999999999973,11.346000000000004,12.09699999999998,12.963999999999942,13.814999999999827,14.617999999999938,15.356999999999971,16.166999999999916]",space,0.682,0.0,19.0,19.0,33.0,1.0,,
,,,,,,,,,,,block_2/strong_n_119_2.wav,no,n,strong,119.0,1.626584736,10.88871625,,,,yes,"Cowin, don't know the model",0,,,,,,1,2020-09-16_15h23.50.906,kura-B1,2020.1.2,Win32,60,,,,,,,,,,,,,,"[""space"",""space"",""space"",""space"",""space"",""space"",""space"",""space"",""space"",""space"",""space"",""space"",""space"",""space"",""space"",""space"",""space"",""space"",""space"",""space""]","[0.5509999999999309,0.9339999999999691,1.5019999999999527,2.0049999999998818,2.4859999999998763,3.002999999999929,3.453999999999951,3.9249999999999545,4.4220000000000255,4.87299999999982,5.321999999999889,5.808999999999969,6.276999999999816,6.723999999999933,7.208999999999833,7.6749999999999545,8.143000000000029,8.625,9.1099999999999,9.593999999999824]",space,0.538,0.0,20.0,20.0,17.0,1.0,,
,,,,,,,,,,,block_2/none_n_72_2.wav,no,n,none,72.0,1.244195676,23.89829998,,,,yes,"Cowin, don't know the model",0,,,,,,1,2020-09-16_15h23.50.906,kura-B1,2020.1.2,Win32,60,,,,,,,,,,,,,,"[""space"",""space"",""space"",""space"",""space"",""space"",""space"",""space"",""space"",""space"",""space"",""space"",""space"",""space"",""space"",""space"",""space"",""space"",""space"",""space"",""space"",""space"",""space"",""space"",""space"",""space"",""space"",""space"",""space"",""space"",""space"",""space"",""space"",""space"",""space"",""space"",""space"",""space"",""space"",""space"",""space"",""space"",""space"",""space"",""space"",""space"",""space"",""space"",""space"",""space"",""space"",""space"",""space"",""space"",""space"",""space"",""space"",""space"",""space"",""space"",""space"",""space"",""space"",""space"",""space"",""space"",""space"",""space"",""space"",""space"",""space"",""space"",""space"",""space"",""space"",""space"",""space"",""space"",""space"",""space"",""space"",""space"",""space"",""space"",""space"",""space"",""space"",""space"",""space"",""space"",""space"",""space"",""space"",""space"",""space"",""space"",""space"",""space"",""space"",""space"",""space"",""space"",""space"",""space"",""space"",""space"",""space"",""space"",""space"",""space"",""space"",""space"",""space"",""space"",""space"",""space"",""space""]","[0.5009999999999764,0.6859999999999218,0.8669999999999618,1.0389999999999873,1.2229999999999563,1.4230000000000018,1.6199999999998909,1.7770000000000437,1.97199999999998,2.1800000000000637,2.3230000000000928,2.5239999999998872,2.688000000000102,2.88799999999992,3.0730000000000928,3.2560000000000855,3.4220000000000255,3.604000000000042,3.775000000000091,3.95900000000006,4.158999999999878,4.356999999999971,4.536000000000058,4.740000000000009,4.923999999999978,5.142000000000053,5.3250000000000455,5.509999999999991,5.727000000000089,5.907999999999902,6.095000000000027,6.276000000000067,6.458000000000084,6.642000000000053,6.8409999999998945,7.042999999999893,7.192000000000007,7.392000000000053,7.6099999999999,7.776000000000067,7.98700000000008,8.161000000000058,8.343000000000075,8.545000000000073,8.760999999999967,8.942999999999984,9.129999999999882,9.313000000000102,9.478000000000065,9.711000000000013,9.911000000000058,10.079999999999927,10.280999999999949,10.462999999999965,10.64799999999991,10.82899999999995,11.013999999999896,11.19900000000007,11.383000000000038,11.58400000000006,11.75,11.945999999999913,12.129999999999882,12.344000000000051,12.531999999999925,12.714999999999918,12.901000000000067,13.067000000000007,13.2650000000001,13.451999999999998,13.616999999999962,13.782999999999902,13.963999999999942,14.182000000000016,14.383000000000038,14.567999999999984,14.75,15.08400000000006,15.302999999999884,15.567999999999984,15.750999999999976,15.933999999999969,16.134000000000015,16.350999999999885,16.519999999999982,16.71900000000005,17.035000000000082,17.301999999999907,17.489000000000033,17.673000000000002,17.838999999999942,18.039999999999964,18.22199999999998,18.420000000000073,18.607999999999947,18.804000000000087,19.019999999999982,19.22199999999998,19.40599999999995,19.590999999999894,19.79099999999994,20.016000000000076,20.208000000000084,20.3900000000001,20.575000000000045,20.77500000000009,20.972999999999956,21.172000000000025,21.355999999999995,21.55600000000004,21.741999999999962,21.942000000000007,22.13799999999992,22.3420000000001,22.559999999999945,22.72700000000009,22.92599999999993]",space,0.617,0.0,21.0,21.0,16.0,1.0,,
,,,,,,,,,,,block_2/none_n_105_2.wav,no,n,none,105.0,1.955418763,16.59637114,,,,yes,"Cowin, don't know the model",0,,,,,,1,2020-09-16_15h23.50.906,kura-B1,2020.1.2,Win32,60,,,,,,,,,,,,,,"[""space"",""space"",""space"",""space"",""space"",""space"",""space"",""space"",""space"",""space"",""space"",""space"",""space"",""space"",""space"",""space"",""space"",""space"",""space"",""space"",""space"",""space"",""space"",""space"",""space"",""space"",""space"",""space"",""space"",""space"",""space"",""space"",""space"",""space"",""space"",""space"",""space"",""space"",""space"",""space"",""space"",""space"",""space"",""space"",""space"",""space"",""space"",""space"",""space"",""space"",""space"",""space"",""space"",""space"",""space"",""space"",""space"",""space"",""space"",""space"",""space"",""space"",""space"",""space"",""space"",""space"",""space"",""space"",""space""]","[0.7860000000000582,1.1850000000001728,1.4350000000001728,1.634999999999991,1.8200000000001637,2.0140000000001237,2.199000000000069,2.354000000000042,2.5540000000000873,2.7210000000000036,2.9060000000001764,3.074000000000069,3.275000000000091,3.441000000000031,3.6410000000000764,3.841000000000122,4.055000000000064,4.225000000000136,4.425000000000182,4.605000000000018,4.776000000000067,4.991999999999962,5.176000000000158,5.3559999999999945,5.55600000000004,5.759999999999991,5.962999999999965,6.156000000000176,6.344000000000051,6.539999999999964,6.729000000000042,6.923999999999978,7.124000000000024,7.314000000000078,7.536000000000058,7.7280000000000655,7.927000000000135,8.109000000000151,8.29300000000012,8.493000000000166,8.694000000000187,8.893000000000029,9.110000000000127,9.335000000000036,9.528999999999996,9.729000000000042,9.945000000000164,10.144999999999982,10.345000000000027,10.579000000000178,10.829000000000178,11.048000000000002,11.29600000000005,11.53300000000013,11.798999999999978,12.0150000000001,12.200000000000045,12.432999999999993,12.663999999999987,12.897000000000162,13.148000000000138,13.350000000000136,13.550000000000182,13.764000000000124,13.999000000000024,14.216000000000122,14.432000000000016,14.69900000000007,14.954000000000178]",space,0.676,0.0,22.0,22.0,4.0,1.0,,
,,,,,,,,,,,block_2/none_n_119_2.wav,no,n,none,119.0,2.143940737,13.70121965,,,,yes,"Cowin, don't know the model",0,,,,,,1,2020-09-16_15h23.50.906,kura-B1,2020.1.2,Win32,60,,,,,,,,,,,,,,"[""space"",""space"",""space"",""space"",""space"",""space"",""space"",""space"",""space"",""space"",""space"",""space"",""space"",""space"",""space"",""space"",""space"",""space"",""space"",""space"",""space"",""space"",""space"",""space"",""space"",""space"",""space"",""space"",""space"",""space"",""space"",""space"",""space"",""space"",""space"",""space"",""space"",""space"",""space"",""space"",""space"",""space"",""space"",""space"",""space"",""space"",""space"",""space"",""space"",""space"",""space"",""space"",""space"",""space"",""space"",""space"",""space""]","[0.7560000000000855,0.9230000000000018,1.106999999999971,1.29099999999994,1.4750000000001364,1.6569999999999254,1.8540000000000418,2.0260000000000673,2.2100000000000364,2.375,2.558999999999969,2.7450000000001182,2.9429999999999836,3.129000000000133,3.3250000000000455,3.5130000000001473,3.7110000000000127,3.9090000000001055,4.11200000000008,4.310999999999922,4.492999999999938,4.69600000000014,4.8940000000000055,5.114000000000033,5.329999999999927,5.514000000000124,5.711999999999989,5.913000000000011,6.1469999999999345,6.365000000000009,6.563000000000102,6.763000000000147,6.962999999999965,7.145999999999958,7.346000000000004,7.564000000000078,7.780999999999949,8,8.182999999999993,8.381000000000085,8.581000000000131,8.797000000000025,8.998000000000047,9.218000000000075,9.43100000000004,9.617999999999938,9.802000000000135,10.000999999999976,10.231999999999971,10.417000000000144,10.649000000000115,10.865999999999985,11.066000000000031,11.250999999999976,11.433999999999969,11.651000000000067,11.85200000000009]",space,0.685,0.0,23.0,23.0,25.0,1.0,,
,,,,,,,,,,,block_2/weak_n_81_1.wav,no,n,weak,81.0,2.025683857,14.86613737,,,,yes,"Cowin, don't know the model",0,,,,,,1,2020-09-16_15h23.50.906,kura-B1,2020.1.2,Win32,60,,,,,,,,,,,,,,"[""space"",""space"",""space"",""space"",""space"",""space"",""space"",""space"",""space"",""space"",""space"",""space"",""space"",""space"",""space"",""space"",""space"",""space"",""space"",""space"",""space"",""space"",""space"",""space"",""space"",""space"",""space"",""space"",""space"",""space"",""space"",""space""]","[0.6179999999999382,0.7719999999999345,0.9890000000000327,1.2019999999999982,1.6020000000000891,2.0699999999999363,2.520999999999958,2.9039999999999964,3.23700000000008,3.604000000000042,4.004999999999882,4.288999999999987,4.539999999999964,4.770999999999958,4.992999999999938,5.225999999999885,5.441000000000031,5.705999999999904,6.107999999999947,6.644999999999982,7.244999999999891,7.791999999999916,8.276000000000067,8.728000000000065,9.228000000000065,9.798000000000002,10.364000000000033,10.912000000000035,11.445999999999913,11.980000000000018,12.5,13.080999999999904]",space,0.671,0.0,24.0,24.0,35.0,1.0,,
