key_resp.keys,key_resp.rt,practice_taps.keys,practice_taps.rt,keyresp.keys,keyresp.rt,practice_stims_loop.thisRepN,practice_stims_loop.thisTrialN,practice_stims_loop.thisN,practice_stims_loop.thisIndex,practice_stims_loop.ran,sndfile,type,tempo,cond,version,delay,dur,Participant Initials,"If you are a MTurk worker, what is your MTurk worker ID?","If you are not an MTurk worker, please provide your email address",Are you wearing headphones?,What are the headphone make and model?,"How many years of musical training, if any, do you have?",Do you have any hearing problems? Please describe,What is your sex (f/m/decline)?,What is your age?,What is your handedness (R/L/ambi)?,Are you currently in a secure and quiet room without a possible interruption?,session,date,expName,psychopyVersion,OS,frameRate,instructions_prompt.keys,instructions_prompt.rt,block1_taps.keys,block1_taps.rt,key_resp_2.keys,key_resp_2.rt,trials.thisRepN,trials.thisTrialN,trials.thisN,trials.thisIndex,trials.ran,key_resp2.keys,key_resp2.rt,block2_taps.keys,block2_taps.rt,key_resp_3.keys,key_resp_3.rt,trials_2.thisRepN,trials_2.thisTrialN,trials_2.thisN,trials_2.thisIndex,trials_2.ran,key_resp_4.keys,key_resp_4.rt
space,8.00067,"[""space"",""space"",""space"",""space"",""space"",""space"",""space"",""space"",""space"",""space"",""space"",""space"",""space"",""space"",""space"",""space"",""space""]","[2.9983199999987846,3.664169999989099,4.3490250000031665,5.002124999999069,5.812200000000303,6.518149999988964,7.031734999996843,7.676785000003292,8.335149999998976,8.898414999988745,9.672514999998384,10.196555000002263,10.932650000002468,11.69186500000069,12.237945000000764,12.872040000002016,13.465205000000424]",space,0.83957,0.0,0.0,0.0,0.0,1.0,block_1/medium_t_92_2.wav,timbre,t,medium,92.0,1.17246814,14.21682188,,,,Yes,Audio Technica ATH-M50x,18,No,F,24,R,Mostly,1,2020-09-10_21h13.09.622,kura-B1,2020.1.2,Win32,60,,,,,,,,,,,,,,,,,,,,,,,,
,,"[""space"",""space"",""space"",""space"",""space"",""space"",""space"",""space"",""space"",""space"",""space"",""space"",""space"",""space"",""space"",""space"",""space""]","[0.32994500000495464,4.040244999996503,4.980830000000424,6.1804100000008475,7.153975000008359,8.250255000006291,9.212655000010272,10.200989999997546,11.268235000010463,12.269780000002356,13.296809999999823,14.267785000003641,15.343565000002855,16.418035000009695,17.49842499999795,18.45386999999755,19.51338499999838]",space,0.788885,0.0,1.0,1.0,3.0,1.0,block_2/weak_n_72_2.wav,no,n,weak,72.0,1.63372301,21.59472074,,,,Yes,Audio Technica ATH-M50x,18,No,F,24,R,Mostly,1,2020-09-10_21h13.09.622,kura-B1,2020.1.2,Win32,60,,,,,,,,,,,,,,,,,,,,,,,,
,,"[""space"",""space"",""space"",""space"",""space"",""space"",""space"",""space"",""space"",""space"",""space"",""space"",""space"",""space"",""space""]","[3.7662299999938114,4.505474999998114,5.255829999994603,5.93521999999939,6.556540000005043,7.209224999998696,7.9313099999999395,8.621555000005173,9.303134999994654,9.888605000000098,10.554604999997537,11.203609999996843,11.912199999991572,12.552129999996396,13.181125000002794]",space,0.153025,0.0,2.0,2.0,2.0,1.0,block_1/weak_t_92_1.wav,timbre,t,weak,92.0,2.207238706,15.60342918,,,,Yes,Audio Technica ATH-M50x,18,No,F,24,R,Mostly,1,2020-09-10_21h13.09.622,kura-B1,2020.1.2,Win32,60,,,,,,,,,,,,,,,,,,,,,,,,
,,"[""space"",""space"",""space"",""space"",""space"",""space"",""space"",""space"",""space"",""space"",""space"",""space"",""space"",""space"",""space"",""space"",""space"",""space""]","[2.5945099999953527,3.2926949999964563,4.0452949999889825,4.778829999995651,5.51167500000156,6.280769999997574,7.044969999988098,7.8272349999897415,8.597819999995409,9.346574999988661,10.01929999999993,10.811184999998659,11.602184999996098,12.366150000001653,13.175894999993034,13.911240000001271,14.6010399999941,15.313125000000582]",space,0.495325,0.0,3.0,3.0,1.0,1.0,block_2/strong_n_81_1.wav,no,n,strong,81.0,1.854905178,16.81653783,,,,Yes,Audio Technica ATH-M50x,18,No,F,24,R,Mostly,1,2020-09-10_21h13.09.622,kura-B1,2020.1.2,Win32,60,,,,,,,,,,,,,,,,,,,,,,,,
,,,,,,,,,,,block_1/medium_t_119_1.wav,timbre,t,medium,119.0,1.91338692,12.93819418,,,,Yes,Audio Technica ATH-M50x,18,No,F,24,R,Mostly,1,2020-09-10_21h13.09.622,kura-B1,2020.1.2,Win32,60,space,3.19214,"[""space"",""space"",""space"",""space"",""space"",""space"",""space"",""space"",""space"",""space"",""space"",""space"",""space"",""space"",""space"",""space"",""space""]","[1.6513950000080513,2.3253750000003492,2.8082649999996647,3.857125000009546,4.525934999997844,5.146080000005895,5.999920000002021,6.625580000007176,7.166750000003958,7.642705000005662,8.212460000009742,8.730389999996987,9.270954999999958,9.750090000001364,10.26511500000197,10.75159500000882,11.289000000004307]",space,0.68218,0.0,0.0,0.0,34.0,1.0,,,,,,,,,,,,,
,,,,,,,,,,,block_1/strong_t_105_2.wav,timbre,t,strong,105.0,1.268100708,12.09472202,,,,Yes,Audio Technica ATH-M50x,18,No,F,24,R,Mostly,1,2020-09-10_21h13.09.622,kura-B1,2020.1.2,Win32,60,,,"[""space"",""space"",""space"",""space"",""space"",""space"",""space"",""space"",""space"",""space"",""space"",""space"",""space"",""space"",""space"",""space"",""space"",""space"",""space""]","[1.1831949999905191,1.761014999996405,2.3265299999911804,2.796764999991865,3.3619849999959115,3.938399999999092,4.481489999991027,5.030209999997169,5.6149549999972805,6.168369999999413,6.715079999994487,7.258739999990212,7.774974999992992,8.313154999996186,8.910024999990128,9.4650549999933,10.01355999999214,10.575384999989183,11.205969999995432]",space,0.285595,0.0,1.0,1.0,22.0,1.0,,,,,,,,,,,,,
,,,,,,,,,,,block_1/medium_t_81_1.wav,timbre,t,medium,81.0,2.382699777,16.54165669,,,,Yes,Audio Technica ATH-M50x,18,No,F,24,R,Mostly,1,2020-09-10_21h13.09.622,kura-B1,2020.1.2,Win32,60,,,"[""space"",""space"",""space"",""space"",""space"",""space"",""space"",""space"",""space"",""space"",""space"",""space"",""space"",""space"",""space"",""space"",""space""]","[2.037145000009332,2.7406000000046333,3.5361899999988964,4.22791000000143,5.028040000004694,5.691539999999804,6.399415000007139,7.171790000007604,7.888565000001108,8.658615000007558,9.434540000002016,10.1351399999985,10.834755000003497,11.601170000009006,12.343885000009323,13.08966500000679,13.85328500000469]",space,0.72433,0.0,2.0,2.0,4.0,1.0,,,,,,,,,,,,,
,,,,,,,,,,,block_1/medium_t_81_2.wav,timbre,t,medium,81.0,1.849325936,17.01676358,,,,Yes,Audio Technica ATH-M50x,18,No,F,24,R,Mostly,1,2020-09-10_21h13.09.622,kura-B1,2020.1.2,Win32,60,,,"[""space"",""space"",""space"",""space"",""space"",""space"",""space"",""space"",""space"",""space"",""space"",""space"",""space"",""space"",""space"",""space"",""space"",""space"",""space""]","[0.770650000005844,2.073885000005248,2.8698650000005728,3.694419999999809,4.6293250000017,5.420910000000731,6.098400000002584,6.891990000003716,7.635074999998324,8.446404999995138,9.166645000004792,9.979900000005728,10.737330000003567,11.55375500000082,12.349130000002333,13.16864999999234,14.03805000000284,14.728474999996251,15.662725000001956]",space,0.31433,0.0,3.0,3.0,7.0,1.0,,,,,,,,,,,,,
,,,,,,,,,,,block_1/none_t_72_2.wav,timbre,t,none,72.0,1.436515358,19.69406638,,,,Yes,Audio Technica ATH-M50x,18,No,F,24,R,Mostly,1,2020-09-10_21h13.09.622,kura-B1,2020.1.2,Win32,60,,,"[""space"",""space"",""space"",""space"",""space"",""space"",""space"",""space"",""space"",""space"",""space"",""space"",""space"",""space"",""space"",""space"",""space"",""space"",""space""]","[0.7711149999959162,1.9737150000000838,5.369665000005625,6.029964999994263,6.8854149999970105,7.578129999994417,8.358850000004168,9.100495000006049,9.928495000000112,10.715639999994892,11.54434000000765,12.498380000004545,13.317785000006552,14.226175000003423,15.141935000006924,15.885550000006333,16.644155000001774,17.44319999999425,18.276444999995874]",space,0.285875,0.0,4.0,4.0,21.0,1.0,,,,,,,,,,,,,
,,,,,,,,,,,block_1/weak_t_105_1.wav,timbre,t,weak,105.0,1.816913882,14.30793429,,,,Yes,Audio Technica ATH-M50x,18,No,F,24,R,Mostly,1,2020-09-10_21h13.09.622,kura-B1,2020.1.2,Win32,60,,,"[""space"",""space"",""space"",""space"",""space"",""space"",""space"",""space"",""space"",""space"",""space"",""space"",""space"",""space"",""space"",""space"",""space"",""space"",""space"",""space""]","[0.42305499999201857,1.4016449999908218,2.250369999994291,2.8182749999978114,3.42688499999349,4.052775000003749,4.638504999995348,5.2742250000010245,5.899825000000419,6.515824999994948,7.161234999992303,7.820429999992484,8.462629999994533,9.023654999997234,9.667379999998957,10.290924999993877,10.982774999996764,11.675619999994524,12.25040999999328,13.082060000000638]",space,0.405945,0.0,5.0,5.0,0.0,1.0,,,,,,,,,,,,,
,,,,,,,,,,,block_1/strong_t_92_2.wav,timbre,t,strong,92.0,1.228007131,14.47607969,,,,Yes,Audio Technica ATH-M50x,18,No,F,24,R,Mostly,1,2020-09-10_21h13.09.622,kura-B1,2020.1.2,Win32,60,,,"[""space"",""space"",""space"",""space"",""space"",""space"",""space"",""space"",""space"",""space"",""space"",""space"",""space"",""space"",""space"",""space"",""space"",""space"",""space""]","[1.384024999992107,2.125564999994822,2.809574999992037,3.4619149999925867,4.121789999990142,4.830399999991641,5.442119999992428,6.101564999989932,6.80164999999397,7.482164999993984,8.188114999997197,8.843970000001718,9.567224999991595,10.169934999998077,10.841669999994338,11.535644999996293,12.203169999993406,12.914254999996047,13.563679999992019]",space,0.73372,0.0,6.0,6.0,3.0,1.0,,,,,,,,,,,,,
,,,,,,,,,,,block_1/medium_t_92_2.wav,timbre,t,medium,92.0,2.140863801,15.18521754,,,,Yes,Audio Technica ATH-M50x,18,No,F,24,R,Mostly,1,2020-09-10_21h13.09.622,kura-B1,2020.1.2,Win32,60,,,"[""space"",""space"",""space"",""space"",""space"",""space"",""space"",""space"",""space"",""space"",""space"",""space"",""space"",""space"",""space"",""space"",""space"",""space"",""space""]","[1.5839600000035716,2.2694849999970756,2.9713300000003073,3.5498999999981606,4.1500599999999395,4.80109999999695,5.5068650000030175,6.150305000002845,6.8599299999914365,7.518404999995255,8.154590000005555,8.835114999994403,9.49605000000156,10.254254999992554,10.868954999998095,11.495110000003478,12.117115000000922,12.712799999993877,13.310639999996056]",space,2.008535,0.0,7.0,7.0,32.0,1.0,,,,,,,,,,,,,
,,,,,,,,,,,block_1/weak_t_72_1.wav,timbre,t,weak,72.0,1.20875322,18.28390061,,,,Yes,Audio Technica ATH-M50x,18,No,F,24,R,Mostly,1,2020-09-10_21h13.09.622,kura-B1,2020.1.2,Win32,60,,,"[""space"",""space"",""space"",""space"",""space"",""space"",""space"",""space"",""space"",""space"",""space"",""space"",""space"",""space"",""space"",""space"",""space"",""space"",""space"",""space"",""space""]","[2.1034549999894807,2.7985049999988405,3.618204999991576,4.304120000000694,5.031694999997853,5.64607000000251,6.332280000002356,7.015019999991637,7.691955000002054,8.485539999994216,9.303099999990081,10.157419999988633,11.089034999997239,11.829429999997956,12.487475000001723,13.180240000001504,13.947285000002012,14.695995000001858,15.40377499999886,16.24192000000039,17.070214999999735]",space,0.32261,0.0,8.0,8.0,29.0,1.0,,,,,,,,,,,,,
,,,,,,,,,,,block_1/strong_t_119_2.wav,timbre,t,strong,119.0,2.38266194,11.99749187,,,,Yes,Audio Technica ATH-M50x,18,No,F,24,R,Mostly,1,2020-09-10_21h13.09.622,kura-B1,2020.1.2,Win32,60,,,"[""space"",""space"",""space"",""space"",""space"",""space"",""space"",""space"",""space"",""space"",""space"",""space"",""space"",""space"",""space"",""space"",""space"",""space"",""space""]","[1.1464750000013737,1.6083849999995437,2.103739999991376,2.5459649999975227,3.02301499999885,3.5199049999937415,4.022165000002133,4.476135000004433,4.968624999994063,5.455159999997704,6.019885000001523,6.450544999999693,6.906889999998384,7.399884999991627,7.836349999997765,8.320575000005192,8.837625000000116,9.321949999997742,9.806354999993346]",space,0.39475,0.0,9.0,9.0,31.0,1.0,,,,,,,,,,,,,
,,,,,,,,,,,block_1/strong_t_105_1.wav,timbre,t,strong,105.0,1.984276879,14.42695262,,,,Yes,Audio Technica ATH-M50x,18,No,F,24,R,Mostly,1,2020-09-10_21h13.09.622,kura-B1,2020.1.2,Win32,60,,,"[""space"",""space"",""space"",""space"",""space"",""space"",""space"",""space"",""space"",""space"",""space"",""space"",""space"",""space"",""space"",""space"",""space"",""space"",""space""]","[0.7555350000038743,1.8653350000095088,2.438735000003362,3.06277499999851,3.7192250000080094,4.339205000011134,4.997250000000349,5.630830000009155,6.23876000000746,6.931600000010803,7.568985000005341,8.23479000000225,8.861740000007558,9.478255000009085,10.120645000002696,10.748080000004848,11.435795000012149,12.087375000002794,12.735440000004019]",space,0.681645,0.0,10.0,10.0,20.0,1.0,,,,,,,,,,,,,
,,,,,,,,,,,block_1/none_t_81_1.wav,timbre,t,none,81.0,1.412848736,15.74926597,,,,Yes,Audio Technica ATH-M50x,18,No,F,24,R,Mostly,1,2020-09-10_21h13.09.622,kura-B1,2020.1.2,Win32,60,,,"[""space"",""space"",""space"",""space"",""space"",""space"",""space"",""space"",""space"",""space"",""space"",""space"",""space"",""space"",""space"",""space"",""space"",""space""]","[2.6764300000068033,3.319484999999986,3.9300750000111293,4.534135000008973,5.175540000011097,5.910075000007055,6.642490000012913,7.380865000013728,8.024110000013025,8.759035000010044,9.459570000006352,10.166565000006813,10.907830000011018,11.727730000013253,12.52484500000719,13.293405000003986,13.928570000003674,14.613225000008242]",space,0.313815,0.0,11.0,11.0,11.0,1.0,,,,,,,,,,,,,
,,,,,,,,,,,block_1/strong_t_119_1.wav,timbre,t,strong,119.0,2.009888221,11.97709911,,,,Yes,Audio Technica ATH-M50x,18,No,F,24,R,Mostly,1,2020-09-10_21h13.09.622,kura-B1,2020.1.2,Win32,60,,,"[""space"",""space"",""space"",""space"",""space"",""space"",""space"",""space"",""space"",""space"",""space"",""space"",""space"",""space"",""space"",""space"",""space"",""space"",""space"",""space""]","[0.8972399999911431,1.236365000004298,1.7145500000042375,2.202210000003106,2.667170000000624,3.151754999998957,3.668179999993299,4.178155000001425,4.669364999994286,5.170354999994743,5.64345499999763,6.109895000001416,6.653804999994463,7.149640000003274,7.648554999992484,8.203844999996363,8.642454999993788,9.183659999995143,9.650574999992386,10.128859999997076]",space,0.430715,0.0,12.0,12.0,27.0,1.0,,,,,,,,,,,,,
,,,,,,,,,,,block_1/medium_t_105_2.wav,timbre,t,medium,105.0,2.138064486,12.91584226,,,,Yes,Audio Technica ATH-M50x,18,No,F,24,R,Mostly,1,2020-09-10_21h13.09.622,kura-B1,2020.1.2,Win32,60,,,"[""space"",""space"",""space"",""space"",""space"",""space"",""space"",""space"",""space"",""space"",""space"",""space"",""space"",""space"",""space"",""space"",""space"",""space"",""space"",""space""]","[0.7175199999910546,1.2501999999949476,1.685895000002347,2.1549099999974715,2.665609999996377,3.206590000001597,3.7032800000015413,4.347989999994752,4.894205000004149,5.468605000001844,6.116809999992256,6.652999999991152,7.2494949999963865,7.651740000001155,8.24163000000408,8.801070000001346,9.415844999995898,9.965669999990496,10.57998999999836,11.205394999997225]",space,0.32042,0.0,13.0,13.0,19.0,1.0,,,,,,,,,,,,,
,,,,,,,,,,,block_1/none_t_105_2.wav,timbre,t,none,105.0,1.938353853,15.01835385,,,,Yes,Audio Technica ATH-M50x,18,No,F,24,R,Mostly,1,2020-09-10_21h13.09.622,kura-B1,2020.1.2,Win32,60,,,"[""space"",""space"",""space"",""space"",""space"",""space"",""space"",""space"",""space"",""space"",""space"",""space"",""space"",""space"",""space"",""space"",""space"",""space"",""space"",""space""]","[0.2664749999967171,0.7935449999931734,1.4670349999942118,2.1605449999915436,2.7866049999865936,3.3946799999976065,4.020160000000033,4.632499999992433,5.301254999998491,6.047134999986156,6.748629999987315,7.479224999988219,8.208384999990813,9.013994999986608,9.865139999994426,10.392299999992247,11.081809999988764,11.745824999990873,12.459519999989425,13.187159999986761]",space,0.307105,0.0,14.0,14.0,14.0,1.0,,,,,,,,,,,,,
,,,,,,,,,,,block_1/strong_t_72_2.wav,timbre,t,strong,72.0,2.307367753,17.72600721,,,,Yes,Audio Technica ATH-M50x,18,No,F,24,R,Mostly,1,2020-09-10_21h13.09.622,kura-B1,2020.1.2,Win32,60,,,"[""space"",""space"",""space"",""space"",""space"",""space"",""space"",""space"",""space"",""space"",""space"",""space"",""space"",""space"",""space"",""space"",""space"",""space"",""space""]","[1.3619099999923492,2.355439999999362,3.198420000000624,3.9585599999991246,4.7403400000039255,5.535990000003949,6.30654499999946,7.096770000003744,7.87261999999464,8.654324999995879,9.433024999991176,10.229565000001458,11.03211499999452,11.857300000003306,12.614704999999958,13.41350500000408,14.185744999995222,15.114849999998114,15.772584999998799]",space,2.024375,0.0,15.0,15.0,6.0,1.0,,,,,,,,,,,,,
,,,,,,,,,,,block_1/medium_t_72_1.wav,timbre,t,medium,72.0,1.564818535,18.8498072,,,,Yes,Audio Technica ATH-M50x,18,No,F,24,R,Mostly,1,2020-09-10_21h13.09.622,kura-B1,2020.1.2,Win32,60,,,"[""space"",""space"",""space"",""space"",""space"",""space"",""space"",""space"",""space"",""space"",""space"",""space"",""space"",""space"",""space"",""space"",""space"",""space"",""space""]","[0.8512600000103703,1.8208750000048894,2.60059000000183,3.4569200000114506,4.318500000008498,5.225280000013299,6.080785000012838,7.044760000004317,7.906930000011926,8.755290000000969,9.66523500000767,10.570705000005546,11.420085000005201,12.209605000010924,13.221490000010817,14.248285000008764,15.11429000001226,15.774985000010929,16.699189999999362]",space,0.620475,0.0,16.0,16.0,24.0,1.0,,,,,,,,,,,,,
,,,,,,,,,,,block_1/strong_t_92_1.wav,timbre,t,strong,92.0,1.394968876,12.52589858,,,,Yes,Audio Technica ATH-M50x,18,No,F,24,R,Mostly,1,2020-09-10_21h13.09.622,kura-B1,2020.1.2,Win32,60,,,"[""space"",""space"",""space"",""space"",""space"",""space"",""space"",""space"",""space"",""space"",""space"",""space"",""space"",""space"",""space"",""space"",""space"",""space"",""space""]","[1.1352400000032503,1.664985000010347,2.2053150000137975,2.7707900000095833,3.310700000001816,3.8820050000067567,4.444270000007236,5.026630000007572,5.639850000006845,6.226695000004838,6.837410000007367,7.3843200000119396,7.959660000007716,8.53978000000643,9.154245000012452,9.686510000014096,10.286645000000135,10.893160000006901,11.455280000009225]",space,1.2468,0.0,17.0,17.0,1.0,1.0,,,,,,,,,,,,,
,,,,,,,,,,,block_1/medium_t_105_1.wav,timbre,t,medium,105.0,2.180706288,14.37050221,,,,Yes,Audio Technica ATH-M50x,18,No,F,24,R,Mostly,1,2020-09-10_21h13.09.622,kura-B1,2020.1.2,Win32,60,,,"[""space"",""space"",""space"",""space"",""space"",""space"",""space"",""space"",""space"",""space"",""space"",""space"",""space"",""space"",""space"",""space"",""space"",""space"",""space""]","[0.7800199999910546,1.643484999993234,2.4312149999896064,3.285284999990836,3.8789249999972526,4.4443650000030175,4.97729999999865,5.55620999999519,6.08469000000332,6.628660000002128,7.328009999997448,8.012654999998631,8.560839999991003,9.192499999990105,9.852639999997336,10.44520499999635,11.1080149999907,11.733670000001439,12.425814999995055]",space,0.628565,0.0,18.0,18.0,16.0,1.0,,,,,,,,,,,,,
,,,,,,,,,,,block_1/weak_t_105_2.wav,timbre,t,weak,105.0,2.298632362,16.24153486,,,,Yes,Audio Technica ATH-M50x,18,No,F,24,R,Mostly,1,2020-09-10_21h13.09.622,kura-B1,2020.1.2,Win32,60,,,"[""space"",""space"",""space"",""space"",""space"",""space"",""space"",""space"",""space"",""space"",""space"",""space"",""space"",""space"",""space"",""space"",""space"",""space"",""space"",""space"",""space""]","[0.34824000000662636,0.9993350000004284,1.699415000010049,2.6067150000017136,3.3825250000081724,4.071905000004335,4.687814999997499,5.565070000011474,6.35960999999952,7.173085000002175,7.8860249999997905,8.572104999999283,9.258654999997816,9.868510000000242,10.488479999999981,11.256695000003674,11.838589999999385,12.546820000003208,13.179134999998496,13.819310000006226,14.512080000000424]",space,0.62298,0.0,19.0,19.0,2.0,1.0,,,,,,,,,,,,,
,,,,,,,,,,,block_1/none_t_119_2.wav,timbre,t,none,119.0,1.154672461,11.7267813,,,,Yes,Audio Technica ATH-M50x,18,No,F,24,R,Mostly,1,2020-09-10_21h13.09.622,kura-B1,2020.1.2,Win32,60,,,"[""space"",""space"",""space"",""space"",""space"",""space"",""space"",""space"",""space"",""space"",""space"",""space"",""space"",""space""]","[1.3905850000010105,2.0665100000042003,2.6877649999951245,3.299184999996214,4.130900000003749,4.805999999996857,5.517990000007558,6.250199999994948,6.957760000004782,7.72187500000291,8.453374999997322,9.18279999999504,9.86934000000474,10.598790000003646]",space,0.37151,0.0,20.0,20.0,35.0,1.0,,,,,,,,,,,,,
,,,,,,,,,,,block_1/none_t_119_1.wav,timbre,t,none,119.0,1.970403652,15.3319456,,,,Yes,Audio Technica ATH-M50x,18,No,F,24,R,Mostly,1,2020-09-10_21h13.09.622,kura-B1,2020.1.2,Win32,60,,,"[""space"",""space"",""space"",""space"",""space"",""space"",""space"",""space"",""space"",""space"",""space"",""space"",""space"",""space"",""space"",""space""]","[1.6917600000015227,2.376219999991008,3.1340049999998882,3.834164999992936,4.6246549999923445,5.378144999995129,6.157449999998789,6.944374999991851,7.6447499999922,8.408749999987776,9.178134999994654,9.942699999999604,10.79559499998868,11.47570499998983,12.323074999992969,13.141354999999749]",space,0.68555,0.0,21.0,21.0,39.0,1.0,,,,,,,,,,,,,
,,,,,,,,,,,block_1/medium_t_92_1.wav,timbre,t,medium,92.0,2.038979261,15.74360511,,,,Yes,Audio Technica ATH-M50x,18,No,F,24,R,Mostly,1,2020-09-10_21h13.09.622,kura-B1,2020.1.2,Win32,60,,,"[""space"",""space"",""space"",""space"",""space"",""space"",""space"",""space"",""space"",""space"",""space"",""space"",""space"",""space"",""space"",""space"",""space""]","[2.0205750000022817,2.766040000002249,3.5,4.234429999996792,5.031195000003208,5.692365000009886,6.431300000011106,7.087039999998524,7.747365000002901,8.431905000004917,9.122105000002193,9.864060000007157,10.627370000001974,11.436175000009825,12.085885000007693,12.781905000010738,13.418010000008508]",space,0.677215,0.0,22.0,22.0,36.0,1.0,,,,,,,,,,,,,
,,,,,,,,,,,block_1/none_t_81_2.wav,timbre,t,none,81.0,1.650015351,20.40348474,,,,Yes,Audio Technica ATH-M50x,18,No,F,24,R,Mostly,1,2020-09-10_21h13.09.622,kura-B1,2020.1.2,Win32,60,,,"[""space"",""space"",""space"",""space"",""space"",""space"",""space"",""space"",""space"",""space"",""space"",""space"",""space"",""space"",""space"",""space"",""space"",""space"",""space"",""space"",""space"",""space"",""space"",""space"",""space""]","[0.7469350000028498,1.6188850000035018,2.2669049999967683,2.954685000004247,3.726584999996703,4.600854999996955,5.372849999999744,6.200324999997974,6.955960000006598,7.728539999996428,8.481985000005807,9.334010000005946,10.034480000002077,10.81024000000616,11.69788000000699,12.590574999994715,13.306435000005877,14.149260000005597,14.909704999998212,15.64522500000021,16.42153999999573,17.09884000000602,17.78363000000536,18.578055000005406,19.199210000006133]",space,7.041275,0.0,23.0,23.0,10.0,1.0,,,,,,,,,,,,,
,,,,,,,,,,,block_1/strong_t_81_1.wav,timbre,t,strong,81.0,1.303718429,15.55909258,,,,Yes,Audio Technica ATH-M50x,18,No,F,24,R,Mostly,1,2020-09-10_21h13.09.622,kura-B1,2020.1.2,Win32,60,,,"[""space"",""space"",""space"",""space"",""space"",""space"",""space"",""space"",""space"",""space"",""space"",""space"",""space"",""space"",""space"",""space"",""space"",""space"",""space""]","[1.7682400000048801,2.4595850000041537,3.12427500000922,3.9320650000008754,4.5554900000133784,5.329775000005611,6.036440000010771,6.712840000007418,7.447905000008177,8.263415000008536,8.94709500001045,9.642465000011725,10.454550000009476,11.04373000000487,11.795740000001388,12.517815000013798,13.218580000000657,13.9719150000019,14.692190000001574]",space,3.607915,0.0,24.0,24.0,30.0,1.0,,,,,,,,,,,,,
,,,,,,,,,,,block_1/medium_t_119_2.wav,timbre,t,medium,119.0,1.102065643,12.01802936,,,,Yes,Audio Technica ATH-M50x,18,No,F,24,R,Mostly,1,2020-09-10_21h13.09.622,kura-B1,2020.1.2,Win32,60,,,"[""space"",""space"",""space"",""space"",""space"",""space"",""space"",""space"",""space"",""space"",""space"",""space"",""space"",""space"",""space"",""space"",""space"",""space"",""space""]","[0.8109350000013364,1.3302249999978812,1.9846450000040932,2.5533350000041537,3.222880000001169,3.7263850000017555,4.378200000006473,4.915945000000647,5.457795000009355,6.060245000000577,6.735889999996289,7.346950000006473,7.909455000000889,8.42854000000807,9.15815499999735,9.812919999996666,10.377265000002808,10.833480000001146,11.399400000009337]",space,1.27372,0.0,25.0,25.0,38.0,1.0,,,,,,,,,,,,,
,,,,,,,,,,,block_1/weak_t_119_1.wav,timbre,t,weak,119.0,1.96015814,12.2695459,,,,Yes,Audio Technica ATH-M50x,18,No,F,24,R,Mostly,1,2020-09-10_21h13.09.622,kura-B1,2020.1.2,Win32,60,,,"[""space"",""space"",""space"",""space"",""space"",""space"",""space"",""space"",""space"",""space"",""space"",""space"",""space"",""space"",""space"",""space"",""space"",""space""]","[3.234694999991916,3.6534449999890057,3.973104999997304,4.366049999996903,4.756689999994705,5.181419999993523,5.643814999988535,6.090044999989914,6.540970000001835,6.923364999995101,7.442104999994626,7.7900099999969825,8.227390000000014,8.648254999992787,9.052644999988843,9.431144999995013,9.940174999996088,10.479204999996]",space,0.913645,0.0,26.0,26.0,12.0,1.0,,,,,,,,,,,,,
,,,,,,,,,,,block_1/none_t_92_1.wav,timbre,t,none,92.0,2.134114385,14.96545225,,,,Yes,Audio Technica ATH-M50x,18,No,F,24,R,Mostly,1,2020-09-10_21h13.09.622,kura-B1,2020.1.2,Win32,60,,,"[""space"",""space"",""space"",""space"",""space"",""space"",""space"",""space"",""space"",""space"",""space"",""space"",""space"",""space"",""space"",""space"",""space"",""space"",""space""]","[2.054340000002412,2.6101849999977276,3.2982000000047265,3.8795850000024075,4.4733350000024075,5.068110000007437,5.6837650000088615,6.245525000005728,6.9394500000053085,7.461905000003753,8.097345000001951,8.72569000000658,9.306060000002617,9.870405000008759,10.420095000008587,11.003389999998035,11.727780000001076,12.259619999997085,12.969290000008186]",space,3.93413,0.0,27.0,27.0,15.0,1.0,,,,,,,,,,,,,
,,,,,,,,,,,block_1/weak_t_72_2.wav,timbre,t,weak,72.0,1.186310873,16.45742198,,,,Yes,Audio Technica ATH-M50x,18,No,F,24,R,Mostly,1,2020-09-10_21h13.09.622,kura-B1,2020.1.2,Win32,60,,,"[""space"",""space"",""space"",""space"",""space"",""space"",""space"",""space"",""space"",""space"",""space"",""space"",""space"",""space"",""space"",""space"",""space"",""space"",""space""]","[1.3234099999972386,1.9863150000019232,2.874469999995199,4.0418899999931455,4.762529999992694,5.430974999995669,6.237240000002203,7.05777999998827,7.875480000002426,8.646609999996144,9.474869999990915,10.249974999998813,10.97240499999316,11.682334999990417,12.425470000001951,13.256369999988237,13.991129999994882,14.7610999999888,15.540110000001732]",space,0.778765,0.0,28.0,28.0,25.0,1.0,,,,,,,,,,,,,
,,,,,,,,,,,block_1/weak_t_81_1.wav,timbre,t,weak,81.0,1.734429931,16.79973605,,,,Yes,Audio Technica ATH-M50x,18,No,F,24,R,Mostly,1,2020-09-10_21h13.09.622,kura-B1,2020.1.2,Win32,60,,,"[""space"",""space"",""space"",""space"",""space"",""space"",""space"",""space"",""space"",""space"",""space"",""space"",""space"",""space"",""space"",""space"",""space""]","[0.8346299999975599,1.638809999989462,2.535149999996065,3.46491499998956,4.384989999991376,5.292879999993602,6.239199999996345,7.086579999988317,7.938239999988582,8.787054999993416,9.611519999991287,10.419099999999162,11.563654999990831,12.439739999987069,13.260954999990645,14.140294999990147,14.874230000001262]",space,0.522445,0.0,29.0,29.0,8.0,1.0,,,,,,,,,,,,,
,,,,,,,,,,,block_1/weak_t_81_2.wav,timbre,t,weak,81.0,1.961200407,15.36428431,,,,Yes,Audio Technica ATH-M50x,18,No,F,24,R,Mostly,1,2020-09-10_21h13.09.622,kura-B1,2020.1.2,Win32,60,,,"[""space"",""space"",""space"",""space"",""space"",""space"",""space"",""space"",""space"",""space"",""space"",""space"",""space"",""space"",""space"",""space"",""space"",""space"",""space""]","[1.4598249999980908,2.0170949999883305,2.715729999996256,3.30715500000224,3.919209999992745,4.637264999997569,5.339265000002342,5.934189999999944,6.686549999998533,7.475949999992736,8.229839999999967,8.921419999998761,9.604729999991832,10.307179999988875,10.912069999991218,11.707829999999376,12.368210000000545,12.958715000000666,13.640910000001895]",space,0.206225,0.0,30.0,30.0,5.0,1.0,,,,,,,,,,,,,
,,,,,,,,,,,block_1/none_t_72_1.wav,timbre,t,none,72.0,2.370838854,21.3551926,,,,Yes,Audio Technica ATH-M50x,18,No,F,24,R,Mostly,1,2020-09-10_21h13.09.622,kura-B1,2020.1.2,Win32,60,,,"[""space"",""space"",""space"",""space"",""space"",""space"",""space"",""space"",""space"",""space"",""space"",""space"",""space"",""space"",""space"",""space"",""space"",""space"",""space"",""space"",""space"",""space"",""space"",""space"",""space"",""space""]","[1.4943650000059279,2.235110000008717,2.921075000005658,3.4997950000106357,4.1579600000113714,4.872060000008787,5.6435550000023795,6.341660000005504,7.088060000009136,7.873375000010128,8.520160000000033,9.25234000000637,9.926130000007106,10.597240000002785,11.403055000002496,12.120045000003302,12.864620000007562,13.492040000011912,14.135050000011688,14.83809000000474,15.5187900000019,16.28052500000922,17.021105000007083,17.66611499999999,18.25959000000148,18.89794000000984]",space,0.53484,0.0,31.0,31.0,23.0,1.0,,,,,,,,,,,,,
,,,,,,,,,,,block_1/none_t_105_1.wav,timbre,t,none,105.0,1.828771861,15.95090338,,,,Yes,Audio Technica ATH-M50x,18,No,F,24,R,Mostly,1,2020-09-10_21h13.09.622,kura-B1,2020.1.2,Win32,60,,,"[""space"",""space"",""space"",""space"",""space"",""space"",""space"",""space"",""space"",""space"",""space"",""space"",""space"",""space"",""space"",""space"",""space"",""space"",""space"",""space"",""space"",""space"",""space"",""space"",""space""]","[1.4491600000037579,1.811795000001439,2.3447200000082375,2.845005000010133,3.221770000003744,3.737685000000056,4.330820000002859,4.84674000000814,5.483310000010533,6.055740000010701,6.612205000012182,7.191545000008773,7.724770000000717,8.328450000000885,8.893745000008494,9.37292000000889,9.934000000008382,10.54951000001165,11.10998500000278,11.638535000005504,12.188340000007884,12.7794450000074,13.421320000008564,14.01490000000922,14.546360000007553]",space,0.42531,0.0,32.0,32.0,17.0,1.0,,,,,,,,,,,,,
,,,,,,,,,,,block_1/weak_t_119_2.wav,timbre,t,weak,119.0,1.131621257,11.40046479,,,,Yes,Audio Technica ATH-M50x,18,No,F,24,R,Mostly,1,2020-09-10_21h13.09.622,kura-B1,2020.1.2,Win32,60,,,"[""space"",""space"",""space"",""space"",""space"",""space"",""space"",""space"",""space"",""space"",""space"",""space"",""space"",""space"",""space"",""space"",""space"",""space""]","[1.9768150000018068,2.6530300000013085,3.181030000007013,3.844935000000987,4.426550000003772,4.975290000002133,5.475850000002538,5.929865000012796,6.434950000009849,6.910845000005793,7.3954500000108965,7.910705000002054,8.436585000003106,8.935330000007525,9.477825000009034,10.029200000004494,10.484520000012708,11.04754500000854]",space,0.499365,0.0,33.0,33.0,13.0,1.0,,,,,,,,,,,,,
,,,,,,,,,,,block_1/weak_t_92_1.wav,timbre,t,weak,92.0,1.851617747,15.24780822,,,,Yes,Audio Technica ATH-M50x,18,No,F,24,R,Mostly,1,2020-09-10_21h13.09.622,kura-B1,2020.1.2,Win32,60,,,"[""space"",""space"",""space"",""space"",""space"",""space"",""space"",""space"",""space"",""space"",""space"",""space"",""space"",""space"",""space"",""space"",""space"",""space""]","[2.474689999988186,3.1209099999978207,3.7939449999976205,4.511579999991227,5.249344999989262,5.958454999999958,6.526619999989634,7.12605999999505,7.87633499999356,8.528844999993453,9.16224499999953,9.72365999998874,10.408269999999902,10.999574999994365,11.661710000000312,12.343069999988074,13.003100000001723,13.76191000000108]",space,0.48389,0.0,34.0,34.0,33.0,1.0,,,,,,,,,,,,,
,,,,,,,,,,,block_1/weak_t_92_2.wav,timbre,t,weak,92.0,1.028761509,16.1946572,,,,Yes,Audio Technica ATH-M50x,18,No,F,24,R,Mostly,1,2020-09-10_21h13.09.622,kura-B1,2020.1.2,Win32,60,,,"[""space"",""space"",""space"",""space"",""space"",""space"",""space"",""space"",""space"",""space"",""space"",""space"",""space"",""space"",""space"",""space"",""space"",""space"",""space""]","[0.6465849999949569,1.3383749999920838,2.059045000001788,3.0080650000018068,3.859874999994645,4.688884999995935,5.429009999992559,6.238079999995534,6.995960000000196,7.805664999992587,8.529634999998962,9.349034999992,10.072845000002417,10.907194999992498,11.728924999988521,12.514549999992596,13.3408999999956,14.140694999994594,14.874144999994314]",space,2.668575,0.0,35.0,35.0,37.0,1.0,,,,,,,,,,,,,
,,,,,,,,,,,block_1/strong_t_81_2.wav,timbre,t,strong,81.0,1.680376519,15.8366577,,,,Yes,Audio Technica ATH-M50x,18,No,F,24,R,Mostly,1,2020-09-10_21h13.09.622,kura-B1,2020.1.2,Win32,60,,,"[""space"",""space"",""space"",""space"",""space"",""space"",""space"",""space"",""space"",""space"",""space"",""space"",""space"",""space"",""space"",""space"",""space"",""space"",""space"",""space""]","[0.6398999999946682,1.5080000000016298,2.210990000006859,2.927255000002333,3.843544999996084,4.516640000001644,5.045150000005378,5.886444999996456,6.619550000003073,7.38194000000658,7.963665000002948,8.705490000007558,9.509135000000242,10.317450000002282,10.923240000003716,11.70159500000591,12.320099999997183,12.986229999994976,13.712475000007544,14.449739999996382]",space,1.360295,0.0,36.0,36.0,26.0,1.0,,,,,,,,,,,,,
,,,,,,,,,,,block_1/medium_t_72_2.wav,timbre,t,medium,72.0,1.374562099,18.5083943,,,,Yes,Audio Technica ATH-M50x,18,No,F,24,R,Mostly,1,2020-09-10_21h13.09.622,kura-B1,2020.1.2,Win32,60,,,"[""space"",""space"",""space"",""space"",""space"",""space"",""space"",""space"",""space"",""space"",""space"",""space"",""space"",""space"",""space"",""space"",""space"",""space"",""space"",""space""]","[0.7710549999901559,1.4644100000004983,2.459625000003143,3.3700299999909475,4.232764999993378,5.14596999999776,5.963275000001886,6.875799999994342,7.766084999995655,8.691344999999274,9.591205000004265,10.465469999995548,11.259204999994836,12.151329999993322,13.01821999999811,13.962415000001783,14.89502499999071,15.7433549999987,16.486089999991236,17.474084999994375]",space,0.643025,0.0,37.0,37.0,28.0,1.0,,,,,,,,,,,,,
,,,,,,,,,,,block_1/strong_t_72_1.wav,timbre,t,strong,72.0,2.410899129,18.9853209,,,,Yes,Audio Technica ATH-M50x,18,No,F,24,R,Mostly,1,2020-09-10_21h13.09.622,kura-B1,2020.1.2,Win32,60,,,"[""space"",""space"",""space"",""space"",""space"",""space"",""space"",""space"",""space"",""space"",""space"",""space"",""space"",""space"",""space"",""space"",""space"",""space"",""space"",""space"",""space""]","[0.7775200000032783,1.3618750000023283,2.0977899999998044,2.956879999997909,3.790225000004284,4.57502000000386,5.351265000004787,6.190224999998463,7.066034999996191,7.904269999999087,8.703324999994948,9.48291999999492,10.387665000002016,11.21222499999567,11.997480000005453,12.861974999992526,13.630004999999073,14.37884999999369,15.21245999999519,16.056555000002845,16.801949999993667]",space,4.964715,0.0,38.0,38.0,9.0,1.0,,,,,,,,,,,,,
,,,,,,,,,,,block_1/none_t_92_2.wav,timbre,t,none,92.0,1.89077586,18.43372371,,,,Yes,Audio Technica ATH-M50x,18,No,F,24,R,Mostly,1,2020-09-10_21h13.09.622,kura-B1,2020.1.2,Win32,60,,,"[""space"",""space"",""space"",""space"",""space"",""space"",""space"",""space"",""space"",""space"",""space"",""space"",""space"",""space"",""space"",""space"",""space"",""space"",""space"",""space"",""space"",""space""]","[1.8266700000094716,2.5332199999975273,3.0201600000000326,3.8170249999966472,4.481085000006715,5.17299500000081,5.863610000000335,6.6147950000013225,7.244095000001835,7.829085000004852,8.516925000003539,9.219349999999395,9.894090000001597,10.543185000002268,11.276225000008708,11.936975000004168,12.646885000009206,13.361155000005965,14.127785000004224,14.881959999998799,15.800929999997607,16.58622500000638]",space,0.323105,0.0,39.0,39.0,18.0,1.0,,,,,,,,,,,,,
,,,,,,,,,,,block_2/medium_n_92_2.wav,no,n,medium,92.0,1.042358962,12.57945647,,,,Yes,Audio Technica ATH-M50x,18,No,F,24,R,Mostly,1,2020-09-10_21h13.09.622,kura-B1,2020.1.2,Win32,60,,,,,,,,,,,,space,7.684195,"[""space"",""space"",""space"",""space"",""space"",""space"",""space"",""space"",""space"",""space"",""space"",""space"",""space"",""space"",""space"",""space"",""space"",""space""]","[1.5074900000035996,2.1593600000051083,2.7508100000122795,3.3386700000119163,3.934285000010277,4.488405000010971,5.095350000003236,5.629465000005439,6.255170000004,6.875445000012405,7.531875000000582,7.975295000011101,8.720790000006673,9.35236000000441,9.987610000011045,10.603975000005448,11.242340000011609,11.815565000011702]",space,0.75451,0.0,0.0,0.0,1.0,1.0,,
,,,,,,,,,,,block_2/medium_n_92_1.wav,no,n,medium,92.0,1.88300721,17.00042218,,,,Yes,Audio Technica ATH-M50x,18,No,F,24,R,Mostly,1,2020-09-10_21h13.09.622,kura-B1,2020.1.2,Win32,60,,,,,,,,,,,,,,"[""space"",""space"",""space"",""space"",""space"",""space"",""space"",""space"",""space"",""space"",""space"",""space"",""space"",""space"",""space"",""space"",""space"",""space"",""space""]","[0.7124449999973876,1.2976499999931548,2.032984999998007,2.885645000002114,3.7572050000017043,4.504354999997304,5.1649299999990035,6.048479999997653,6.862299999993411,7.554409999997006,8.398274999999558,9.219270000001416,10.036290000003646,10.804420000000391,11.516499999997905,12.324254999999539,13.15168999999878,14.019610000003013,14.917394999996759]",space,0.563455,0.0,1.0,1.0,5.0,1.0,,
,,,,,,,,,,,block_2/medium_n_72_1.wav,no,n,medium,72.0,2.306836655,18.27731285,,,,Yes,Audio Technica ATH-M50x,18,No,F,24,R,Mostly,1,2020-09-10_21h13.09.622,kura-B1,2020.1.2,Win32,60,,,,,,,,,,,,,,"[""space"",""space"",""space"",""space"",""space"",""space"",""space"",""space"",""space"",""space"",""space"",""space"",""space"",""space"",""space"",""space"",""space"",""space"",""space"",""space""]","[0.9192550000007031,1.8566049999935785,2.6144050000002608,3.4631049999879906,4.337934999988647,5.107734999997774,6.020529999994324,6.837854999990668,7.678664999999455,8.368145000000368,9.090295000001788,9.846594999995432,10.664779999991879,11.548624999995809,12.36258000000089,13.149504999993951,13.920389999999315,14.83834499999648,15.629369999995106,16.39388499999768]",space,0.515985,0.0,2.0,2.0,10.0,1.0,,
,,,,,,,,,,,block_2/none_n_81_2.wav,no,n,none,81.0,1.688814472,20.84019769,,,,Yes,Audio Technica ATH-M50x,18,No,F,24,R,Mostly,1,2020-09-10_21h13.09.622,kura-B1,2020.1.2,Win32,60,,,,,,,,,,,,,,"[""space"",""space"",""space"",""space"",""space"",""space"",""space"",""space"",""space"",""space"",""space"",""space"",""space"",""space"",""space"",""space"",""space"",""space"",""space"",""space"",""space"",""space"",""space"",""space"",""space"",""space"",""space"",""space"",""space"",""space""]","[0.7408100000029663,1.4833550000039395,2.0782749999925727,2.745779999997467,3.3706200000015087,4.030559999999241,4.727859999999055,5.382704999996349,6.0324149999942165,6.680099999997765,7.295490000004065,7.837939999997616,8.485444999998435,9.148764999990817,9.78193499999179,10.429584999990766,11.046334999991814,11.654884999996284,12.31072999999742,12.979544999994687,13.745819999996456,14.395049999991897,14.997084999995423,15.462115000002086,16.06225999999151,16.674025000000256,17.31067500000063,17.879079999998794,18.510070000003907,19.147949999998673]",space,0.41307,0.0,3.0,3.0,28.0,1.0,,
,,,,,,,,,,,block_2/none_n_72_2.wav,no,n,none,72.0,1.244195676,23.89829998,,,,Yes,Audio Technica ATH-M50x,18,No,F,24,R,Mostly,1,2020-09-10_21h13.09.622,kura-B1,2020.1.2,Win32,60,,,,,,,,,,,,,,"[""space"",""space"",""space"",""space"",""space"",""space"",""space"",""space"",""space"",""space"",""space"",""space"",""space"",""space"",""space"",""space"",""space"",""space"",""space"",""space"",""space""]","[2.0063950000039767,2.979475000000093,3.843254999999772,4.936475000009523,5.796945000009146,7.108059999998659,8.075475000005099,9.105770000009215,10.201385000007576,11.317540000003646,12.426110000000335,13.585220000008121,14.605024999997113,15.771625000008498,16.97759500000393,18.069000000003143,18.940954999998212,19.89500499999849,20.92674999999872,21.8844950000057,22.952684999996563]",space,0.631095,0.0,4.0,4.0,16.0,1.0,,
,,,,,,,,,,,block_2/none_n_119_1.wav,no,n,none,119.0,1.472051285,13.63313972,,,,Yes,Audio Technica ATH-M50x,18,No,F,24,R,Mostly,1,2020-09-10_21h13.09.622,kura-B1,2020.1.2,Win32,60,,,,,,,,,,,,,,"[""space"",""space"",""space"",""space"",""space"",""space"",""space"",""space"",""space"",""space"",""space"",""space"",""space"",""space"",""space"",""space"",""space"",""space"",""space""]","[2.326499999995576,2.917009999990114,3.4489899999898626,3.9176749999896856,4.455900000000838,4.966974999988452,5.496375000002445,6.054705000002286,6.602545000001555,7.1498349999892525,7.66359999999986,8.136149999991176,8.686284999988857,9.259674999993877,9.720209999999497,10.23458999999275,10.794414999996661,11.43674999999348,11.934934999997495]",space,0.463385,0.0,5.0,5.0,22.0,1.0,,
,,,,,,,,,,,block_2/none_n_72_1.wav,no,n,none,72.0,2.425336639,22.99082417,,,,Yes,Audio Technica ATH-M50x,18,No,F,24,R,Mostly,1,2020-09-10_21h13.09.622,kura-B1,2020.1.2,Win32,60,,,,,,,,,,,,,,"[""space"",""space"",""space"",""space"",""space"",""space"",""space"",""space"",""space"",""space"",""space"",""space"",""space"",""space"",""space"",""space"",""space"",""space"",""space"",""space"",""space"",""space"",""space"",""space"",""space"",""space"",""space"",""space"",""space"",""space"",""space"",""space""]","[1.4786000000021886,2.1511000000027707,2.8290500000002794,3.6212500000110595,4.345050000003539,5.010585000010906,5.579040000011446,6.1301300000050105,6.728995000012219,7.5599700000020675,8.259235000004992,8.858360000012908,9.542910000003758,10.14436000000569,10.766045000011218,11.327864999999292,11.86604000000807,12.380535000003874,12.884490000011283,13.404860000009649,14.011270000002696,14.54684000000998,15.110645000007935,15.74230000001262,16.358840000000782,17.022795000011683,17.730185000007623,18.37695000000508,19.036480000009533,19.779955000005657,20.442455000011023,21.027635000005603]",space,1.038635,0.0,6.0,6.0,18.0,1.0,,
,,,,,,,,,,,block_2/none_n_92_1.wav,no,n,none,92.0,1.273053946,17.86126256,,,,Yes,Audio Technica ATH-M50x,18,No,F,24,R,Mostly,1,2020-09-10_21h13.09.622,kura-B1,2020.1.2,Win32,60,,,,,,,,,,,,,,"[""space"",""space"",""space"",""space"",""space"",""space"",""space"",""space"",""space"",""space"",""space"",""space"",""space"",""space"",""space"",""space"",""space"",""space"",""space"",""space"",""space"",""space"",""space"",""space"",""space"",""space"",""space"",""space"",""space"",""space""]","[0.579425000003539,1.215924999996787,1.8034100000079434,2.328244999997196,2.886154999999917,3.5129100000051494,4.114325000002282,4.7283500000050935,5.235415000002831,5.840924999996787,6.46172000000638,7.065304999996442,7.644184999997606,8.277499999996508,8.886794999998529,9.504404999999451,10.016159999999218,10.582255000000941,11.11847000000148,11.654924999995501,12.17745499999728,12.747994999998127,13.31421500000556,13.898750000007794,14.51320499999565,15.061895000006416,15.575154999998631,16.177844999998342,16.729279999999562,17.22517499999958]",space,0.936145,0.0,7.0,7.0,20.0,1.0,,
,,,,,,,,,,,block_2/strong_n_81_2.wav,no,n,strong,81.0,1.892264478,17.05494022,,,,Yes,Audio Technica ATH-M50x,18,No,F,24,R,Mostly,1,2020-09-10_21h13.09.622,kura-B1,2020.1.2,Win32,60,,,,,,,,,,,,,,"[""space"",""space"",""space"",""space"",""space"",""space"",""space"",""space"",""space"",""space"",""space"",""space"",""space"",""space"",""space"",""space"",""space"",""space"",""space""]","[1.9046300000045449,2.6343750000085038,3.3904200000106357,4.130245000007562,4.9096400000123595,5.652155000003177,6.3491150000043035,6.952985000010358,7.930110000000923,8.736055000000988,9.511620000004768,10.284010000003036,10.995345000002999,11.742255000004434,12.44993500001101,13.278740000008384,14.051815000013448,14.845430000000988,15.576820000001817]",space,2.980835,0.0,8.0,8.0,8.0,1.0,,
,,,,,,,,,,,block_2/none_n_119_2.wav,no,n,none,119.0,2.143940737,13.70121965,,,,Yes,Audio Technica ATH-M50x,18,No,F,24,R,Mostly,1,2020-09-10_21h13.09.622,kura-B1,2020.1.2,Win32,60,,,,,,,,,,,,,,"[""space"",""space"",""space"",""space"",""space"",""space"",""space"",""space"",""space"",""space"",""space"",""space"",""space"",""space"",""space"",""space""]","[3.2824649999965914,3.9026049999954466,4.482340000002523,5.013594999996712,5.532699999996339,6.0142250000064905,6.539885000005597,7.0910600000061095,7.5790750000012395,8.097999999998137,8.637474999995902,9.1988350000031,9.744665000005625,10.264085000002524,10.925195000003214,11.511494999999059]",space,0.51181,0.0,9.0,9.0,25.0,1.0,,
,,,,,,,,,,,block_2/weak_n_81_1.wav,no,n,weak,81.0,2.025683857,14.86613737,,,,Yes,Audio Technica ATH-M50x,18,No,F,24,R,Mostly,1,2020-09-10_21h13.09.622,kura-B1,2020.1.2,Win32,60,,,,,,,,,,,,,,"[""space"",""space"",""space"",""space"",""space"",""space"",""space"",""space"",""space"",""space"",""space"",""space"",""space"",""space"",""space"",""space"",""space"",""space"",""space"",""space"",""space""]","[0.6800249999939751,1.173979999992298,1.7420199999903616,2.335670000000391,2.9641049999918323,3.5180499999985386,4.185939999995753,4.778209999989485,5.476085000002058,6.121885000000475,6.73823999999172,7.373175000000401,8.039539999997942,8.695240000000922,9.269184999997606,9.923479999997653,10.473874999996042,11.086284999997588,11.749109999989969,12.372049999990622,13.001164999994216]",space,0.2866,0.0,10.0,10.0,35.0,1.0,,
,,,,,,,,,,,block_2/weak_n_119_2.wav,no,n,weak,119.0,1.359763169,11.32207609,,,,Yes,Audio Technica ATH-M50x,18,No,F,24,R,Mostly,1,2020-09-10_21h13.09.622,kura-B1,2020.1.2,Win32,60,,,,,,,,,,,,,,"[""space"",""space"",""space"",""space"",""space"",""space"",""space"",""space"",""space"",""space"",""space"",""space"",""space"",""space"",""space"",""space"",""space"",""space"",""space"",""space"",""space""]","[0.6803950000025907,1.3708950000000186,1.8433400000064921,2.211349999997765,2.6088650000017424,2.984635000000708,3.6027800000008483,4.126835000002757,4.608114999995223,5.125440000002982,5.596405000003642,6.090425000002142,6.55228499999771,7.059519999995018,7.48764000000665,7.904559999995399,8.349774999994906,8.842180000006465,9.316995000001043,9.820210000004863,10.264859999995679]",space,0.956925,0.0,11.0,11.0,36.0,1.0,,
,,,,,,,,,,,block_2/strong_n_72_1.wav,no,n,strong,72.0,1.979367889,17.70027492,,,,Yes,Audio Technica ATH-M50x,18,No,F,24,R,Mostly,1,2020-09-10_21h13.09.622,kura-B1,2020.1.2,Win32,60,,,,,,,,,,,,,,"[""space"",""space"",""space"",""space"",""space"",""space"",""space"",""space"",""space"",""space"",""space"",""space"",""space"",""space"",""space"",""space"",""space"",""space"",""space""]","[1.5644800000009127,2.371525000009342,3.2101050000055693,3.942555000001221,4.757545000000391,5.52524499999663,6.342770000002702,7.127810000004956,8.0048550000065,8.786735000001045,9.603075000006129,10.470805000004248,11.254505000004201,12.099240000010468,12.94236000000069,13.729005000000598,14.551894999996648,15.3123500000072,16.18120000000613]",space,7.471415,0.0,12.0,12.0,33.0,1.0,,
,,,,,,,,,,,block_2/none_n_105_1.wav,no,n,none,105.0,1.731065446,15.85351443,,,,Yes,Audio Technica ATH-M50x,18,No,F,24,R,Mostly,1,2020-09-10_21h13.09.622,kura-B1,2020.1.2,Win32,60,,,,,,,,,,,,,,"[""space"",""space"",""space"",""space"",""space"",""space"",""space"",""space"",""space"",""space"",""space"",""space"",""space"",""space"",""space"",""space"",""space"",""space"",""space"",""space"",""space"",""space""]","[2.02571999999077,2.7022049999943647,3.322164999990491,3.9186249999911524,4.5317450000004555,5.128579999989597,5.765374999988126,6.348119999995333,6.919744999991963,7.522489999988238,8.08816499999375,8.637619999994058,9.197954999996227,9.736139999993611,10.267394999988255,10.879974999988917,11.419979999991256,11.961779999997589,12.531594999992876,13.247639999986859,13.799885000000586,14.36552999999526]",space,0.622585,0.0,13.0,13.0,0.0,1.0,,
,,,,,,,,,,,block_2/weak_n_81_2.wav,no,n,weak,81.0,1.213149696,13.09673246,,,,Yes,Audio Technica ATH-M50x,18,No,F,24,R,Mostly,1,2020-09-10_21h13.09.622,kura-B1,2020.1.2,Win32,60,,,,,,,,,,,,,,"[""space"",""space"",""space"",""space"",""space"",""space"",""space"",""space"",""space"",""space"",""space"",""space"",""space"",""space"",""space"",""space"",""space"",""space"",""space"",""space"",""space""]","[0.6670800000138115,1.1013200000013512,1.6383350000103292,2.185145000010607,2.8474050000077114,3.37467500001344,3.949165000012954,4.572150000007014,5.170275000011316,5.709840000010217,6.323915000000625,6.851815000001807,7.412785000007943,8.084965000002057,8.648940000013681,9.214455000008456,9.85349500000325,10.380835000003344,10.982330000013235,11.572930000009137,12.116415000011557]",space,0.80307,0.0,14.0,14.0,32.0,1.0,,
,,,,,,,,,,,block_2/none_n_92_2.wav,no,n,none,92.0,2.007703886,14.64294198,,,,Yes,Audio Technica ATH-M50x,18,No,F,24,R,Mostly,1,2020-09-10_21h13.09.622,kura-B1,2020.1.2,Win32,60,,,,,,,,,,,,,,"[""space"",""space"",""space"",""space"",""space"",""space"",""space"",""space"",""space"",""space"",""space"",""space"",""space"",""space"",""space"",""space"",""space"",""space"",""space"",""space"",""space"",""space""]","[0.43688000000861393,1.2268950000002405,1.707280000002811,2.1958250000025146,2.7435900000130005,3.3702850000117905,3.9782950000085293,4.660255000010011,5.134525000001304,5.657245000009425,6.2068650000003345,6.769050000002608,7.244205000010197,7.856315000012273,8.458920000004582,9.066020000013168,9.789910000007012,10.471335000009276,11.086090000011836,11.620520000011538,12.224510000000464,12.858195000008436]",space,0.53925,0.0,15.0,15.0,23.0,1.0,,
,,,,,,,,,,,block_2/strong_n_92_1.wav,no,n,strong,92.0,2.132496366,14.62065963,,,,Yes,Audio Technica ATH-M50x,18,No,F,24,R,Mostly,1,2020-09-10_21h13.09.622,kura-B1,2020.1.2,Win32,60,,,,,,,,,,,,,,"[""space"",""space"",""space"",""space"",""space"",""space"",""space"",""space"",""space"",""space"",""space"",""space"",""space"",""space"",""space"",""space"",""space"",""space"",""space"",""space""]","[1.127435000002606,1.6872900000021218,2.2988000000043485,2.893185000008316,3.4832350000071983,4.0991599999981645,4.768584999998211,5.326199999996106,5.957880000001751,6.544890000004898,7.143620000002784,7.847989999994979,8.53728000000433,9.09315000000106,9.654219999997167,10.430640000006406,11.025959999999031,11.564480000000913,12.244774999999663,12.796715000004042]",space,6.21164,0.0,16.0,16.0,37.0,1.0,,
,,,,,,,,,,,block_2/medium_n_72_2.wav,no,n,medium,72.0,2.017934227,19.05022448,,,,Yes,Audio Technica ATH-M50x,18,No,F,24,R,Mostly,1,2020-09-10_21h13.09.622,kura-B1,2020.1.2,Win32,60,,,,,,,,,,,,,,"[""space"",""space"",""space"",""space"",""space"",""space"",""space"",""space"",""space"",""space"",""space"",""space"",""space"",""space"",""space"",""space"",""space"",""space"",""space"",""space""]","[0.6867749999944408,1.6516549999942072,2.56553999999619,3.373869999995577,4.261014999996405,5.142869999996265,6.039909999992233,6.894834999999375,7.8072249999968335,8.706509999989066,9.658039999994571,10.48992999999632,11.322220000001835,12.277279999995017,13.13531499999226,14.037669999990612,14.862784999990026,15.689599999998109,16.587734999993472,17.467239999998128]",space,0.830345,0.0,17.0,17.0,14.0,1.0,,
,,,,,,,,,,,block_2/weak_n_72_1.wav,no,n,weak,72.0,2.399201816,17.30954195,,,,Yes,Audio Technica ATH-M50x,18,No,F,24,R,Mostly,1,2020-09-10_21h13.09.622,kura-B1,2020.1.2,Win32,60,,,,,,,,,,,,,,"[""space"",""space"",""space"",""space"",""space"",""space"",""space"",""space"",""space"",""space"",""space"",""space"",""space"",""space"",""space"",""space"",""space"",""space"",""space"",""space"",""space""]","[0.6877399999934823,1.2010399999996935,1.903669999999238,2.643104999995103,3.3849300000001676,4.114300000000867,4.923320000001695,5.550830000007181,6.255059999995865,7.059890000003634,7.806540000004816,8.563875000006874,9.261520000000019,10.03035000000068,10.768865000005235,11.502930000002152,12.212180000001808,12.994250000003149,13.785885000004555,14.488574999995308,15.140280000006669]",space,1.67893,0.0,18.0,18.0,15.0,1.0,,
,,,,,,,,,,,block_2/strong_n_81_1.wav,no,n,strong,81.0,1.085814619,16.04744727,,,,Yes,Audio Technica ATH-M50x,18,No,F,24,R,Mostly,1,2020-09-10_21h13.09.622,kura-B1,2020.1.2,Win32,60,,,,,,,,,,,,,,"[""space"",""space"",""space"",""space"",""space"",""space"",""space"",""space"",""space"",""space"",""space"",""space"",""space"",""space"",""space"",""space"",""space"",""space"",""space"",""space""]","[0.9197199999910026,1.763024999992922,2.529004999989411,3.2848850000009406,4.011919999989914,4.77267999999458,5.495584999996936,6.197304999994003,6.966089999987389,7.700824999992847,8.427649999997811,9.254939999999124,9.939084999990882,10.73686999999336,11.536794999992708,12.284719999996014,13.037939999994933,13.915849999990314,14.601595000000316,15.369379999989178]",space,1.10006,0.0,19.0,19.0,12.0,1.0,,
,,,,,,,,,,,block_2/weak_n_92_2.wav,no,n,weak,92.0,1.908793764,14.14589127,,,,Yes,Audio Technica ATH-M50x,18,No,F,24,R,Mostly,1,2020-09-10_21h13.09.622,kura-B1,2020.1.2,Win32,60,,,,,,,,,,,,,,"[""space"",""space"",""space"",""space"",""space"",""space"",""space"",""space"",""space"",""space"",""space"",""space"",""space"",""space"",""space"",""space"",""space"",""space"",""space"",""space""]","[0.99180000000365,1.6814650000019356,2.2695700000040233,2.8239650000034544,3.383224999997765,3.979355000003352,4.5849699999967015,5.137789999993629,5.765465000004042,6.36463499999104,6.948879999996507,7.566729999991821,8.240594999995892,8.811484999998584,9.376514999996516,10.001300000003539,10.613969999991468,11.195469999991701,11.800340000001825,12.449254999999766]",space,0.26217,0.0,20.0,20.0,6.0,1.0,,
,,,,,,,,,,,block_2/strong_n_105_1.wav,no,n,strong,105.0,1.056930825,14.45525282,,,,Yes,Audio Technica ATH-M50x,18,No,F,24,R,Mostly,1,2020-09-10_21h13.09.622,kura-B1,2020.1.2,Win32,60,,,,,,,,,,,,,,"[""space"",""space"",""space"",""space"",""space"",""space"",""space"",""space"",""space"",""space"",""space"",""space"",""space"",""space"",""space"",""space"",""space"",""space"",""space"",""space""]","[0.8944599999956608,1.6510500000001684,2.2248399999950834,2.9156499999951393,3.5270849999944858,4.261350000000448,4.9339049999978215,5.62674500000162,6.291844999999739,7.022014999995008,7.711584999997058,8.476439999998547,9.121944999991683,9.79512999999838,10.389794999995502,10.963419999999815,11.641694999998435,12.292974999989383,12.973729999997886,13.698579999996582]",space,3.757755,0.0,21.0,21.0,13.0,1.0,,
,,,,,,,,,,,block_2/weak_n_92_1.wav,no,n,weak,92.0,1.493156661,15.23787321,,,,Yes,Audio Technica ATH-M50x,18,No,F,24,R,Mostly,1,2020-09-10_21h13.09.622,kura-B1,2020.1.2,Win32,60,,,,,,,,,,,,,,"[""space"",""space"",""space"",""space"",""space"",""space"",""space"",""space"",""space"",""space"",""space"",""space"",""space"",""space"",""space"",""space"",""space"",""space"",""space"",""space"",""space""]","[0.7050299999975778,1.564669999992475,2.107724999994616,2.8033900000011727,3.3661750000032953,4.068274999998266,4.596885000006296,5.213774999996758,6.119049999994104,6.723914999995259,7.364274999999907,8.01012000000651,8.600709999999253,9.321639999994886,10.01988500000175,10.650659999999561,11.327770000003966,12.022314999994933,12.613419999994449,13.305374999996275,14.014355000006844]",space,0.70704,0.0,22.0,22.0,2.0,1.0,,
,,,,,,,,,,,block_2/medium_n_81_2.wav,no,n,medium,81.0,1.533387433,15.23592712,,,,Yes,Audio Technica ATH-M50x,18,No,F,24,R,Mostly,1,2020-09-10_21h13.09.622,kura-B1,2020.1.2,Win32,60,,,,,,,,,,,,,,"[""space"",""space"",""space"",""space"",""space"",""space"",""space"",""space"",""space"",""space"",""space"",""space"",""space"",""space"",""space"",""space"",""space"",""space"",""space"",""space"",""space""]","[0.3436149999911322,0.6995299999982763,1.4965699999888784,2.110939999998891,2.8062399999910213,3.456109999999626,4.083635000002914,4.817734999989625,5.487159999990126,6.231164999990369,6.838774999996758,7.493594999992865,8.202714999992622,8.95631499998899,9.638674999994691,10.283299999995734,10.94034000000147,11.842384999996739,12.715444999994588,13.382574999995995,14.053390000001173]",space,0.52284,0.0,23.0,23.0,34.0,1.0,,
,,,,,,,,,,,block_2/medium_n_105_1.wav,no,n,medium,105.0,1.976395362,15.17435455,,,,Yes,Audio Technica ATH-M50x,18,No,F,24,R,Mostly,1,2020-09-10_21h13.09.622,kura-B1,2020.1.2,Win32,60,,,,,,,,,,,,,,"[""space"",""space"",""space"",""space"",""space"",""space"",""space"",""space"",""space"",""space"",""space"",""space"",""space"",""space"",""space"",""space"",""space"",""space"",""space"",""space"",""space""]","[0.7849850000061451,1.3576450000114164,1.8833100000047125,2.4470600000063314,2.947460000010551,3.568060000005289,4.212440000003426,4.838719999999739,5.417535000000726,6.0411400000014055,6.514895000000706,7.109445000009146,7.674220000001014,8.3798550000065,9.293425000011212,9.98985500000731,10.708120000010467,11.346215000012535,11.971725000010338,12.744555000012497,13.477015000011306]",space,0.62682,0.0,24.0,24.0,7.0,1.0,,
,,,,,,,,,,,block_2/strong_n_119_1.wav,no,n,strong,119.0,2.397746816,12.26713457,,,,Yes,Audio Technica ATH-M50x,18,No,F,24,R,Mostly,1,2020-09-10_21h13.09.622,kura-B1,2020.1.2,Win32,60,,,,,,,,,,,,,,"[""space"",""space"",""space"",""space"",""space"",""space"",""space"",""space"",""space"",""space"",""space"",""space"",""space"",""space"",""space"",""space"",""space"",""space"",""space""]","[1.1053300000060062,1.600135000000364,1.968829999997979,2.4398349999974016,3.004320000007283,3.4767900000008467,4.00383500001044,4.563835000008112,5.0601250000033815,5.5439100000076,6.059080000006361,6.543505000008736,7.074945000000298,7.624855000001844,8.082920000000513,8.592539999998053,9.111530000009452,9.682455000001937,10.235525000010739]",space,3.571135,0.0,25.0,25.0,19.0,1.0,,
,,,,,,,,,,,block_2/medium_n_105_2.wav,no,n,medium,105.0,1.832509907,11.95341694,,,,Yes,Audio Technica ATH-M50x,18,No,F,24,R,Mostly,1,2020-09-10_21h13.09.622,kura-B1,2020.1.2,Win32,60,,,,,,,,,,,,,,"[""space"",""space"",""space"",""space"",""space"",""space"",""space"",""space"",""space"",""space"",""space"",""space"",""space"",""space"",""space"",""space"",""space"",""space"",""space"",""space""]","[0.6845900000046186,1.1390450000037617,1.6105400000089958,2.2244199999988723,2.6765300000117804,3.168270000009443,3.6629950000062763,4.105009999999311,4.597620000000688,5.115080000003445,5.591725000005681,6.089865000001964,6.6033600000082515,7.059420000005048,7.626795000003995,8.148014999999077,8.682475000009163,9.244760000001861,9.822515000007115,10.326845000003686]",space,0.350075,0.0,26.0,26.0,3.0,1.0,,
,,,,,,,,,,,block_2/medium_n_119_1.wav,no,n,medium,119.0,1.010172499,10.57697522,,,,Yes,Audio Technica ATH-M50x,18,No,F,24,R,Mostly,1,2020-09-10_21h13.09.622,kura-B1,2020.1.2,Win32,60,,,,,,,,,,,,,,"[""space"",""space"",""space"",""space"",""space"",""space"",""space"",""space"",""space"",""space"",""space"",""space"",""space"",""space"",""space"",""space"",""space"",""space"",""space"",""space""]","[0.6911850000033155,1.1946200000090812,1.5116700000066885,1.943870000002562,2.4149949999991804,2.8974850000083734,3.4353700000062872,3.8590099999998984,4.33189000000084,4.81970000000706,5.3416750000028514,5.826820000001817,6.316955000001826,6.814790000003541,7.340420000007498,7.799995000008494,8.265030000009574,8.768475000004173,9.26871499999811,9.765160000009928]",space,0.432705,0.0,27.0,27.0,24.0,1.0,,
,,,,,,,,,,,block_2/weak_n_105_2.wav,no,n,weak,105.0,1.251032373,14.19257432,,,,Yes,Audio Technica ATH-M50x,18,No,F,24,R,Mostly,1,2020-09-10_21h13.09.622,kura-B1,2020.1.2,Win32,60,,,,,,,,,,,,,,"[""space"",""space"",""space"",""space"",""space"",""space"",""space"",""space"",""space"",""space"",""space"",""space"",""space"",""space"",""space"",""space"",""space"",""space"",""space"",""space""]","[0.876734999998007,1.6585750000085682,2.320634999996628,2.9373599999960334,3.6015900000056718,4.294894999999087,4.967520000005607,5.601120000006631,6.271640000006073,6.988230000002886,7.636295000003884,8.367819999999256,8.94377500000678,9.622329999998101,10.245135000004666,10.835695000001806,11.418145000003278,12.027784999998175,12.662790000002133,13.231260000000475]",space,0.62774,0.0,28.0,28.0,26.0,1.0,,
,,,,,,,,,,,block_2/strong_n_119_2.wav,no,n,strong,119.0,1.626584736,10.88871625,,,,Yes,Audio Technica ATH-M50x,18,No,F,24,R,Mostly,1,2020-09-10_21h13.09.622,kura-B1,2020.1.2,Win32,60,,,,,,,,,,,,,,"[""space"",""space"",""space"",""space"",""space"",""space"",""space"",""space"",""space"",""space"",""space"",""space"",""space"",""space"",""space"",""space"",""space"",""space"",""space"",""space""]","[0.6899650000125348,1.1554650000036872,1.5644100000060916,2.0067899999996825,2.4875400000019,2.9555450000043493,3.413360000005923,3.8992900000012014,4.342515000011417,4.799285000001191,5.256365000008373,5.725840000013932,6.235155000002123,6.720875000013393,7.131375000011531,7.675000000002683,8.137195000003203,8.594980000008718,9.087275000012369,9.626289999999926]",space,0.860105,0.0,29.0,29.0,17.0,1.0,,
,,,,,,,,,,,block_2/weak_n_105_1.wav,no,n,weak,105.0,2.307975641,12.32461963,,,,Yes,Audio Technica ATH-M50x,18,No,F,24,R,Mostly,1,2020-09-10_21h13.09.622,kura-B1,2020.1.2,Win32,60,,,,,,,,,,,,,,"[""space"",""space"",""space"",""space"",""space"",""space"",""space"",""space"",""space"",""space"",""space"",""space"",""space"",""space"",""space"",""space"",""space"",""space"",""space"",""space"",""space""]","[0.6097500000032596,1.1151099999990493,1.5722850000020117,1.9741550000035204,2.3974699999967015,2.9352199999996174,3.3947849999970003,3.8536900000037804,4.33375500000011,4.804740000007087,5.313745000006975,5.8462949999957345,6.345100000006369,6.845075000004954,7.256945000001451,7.732839999997168,8.23584500000311,8.748630000002095,9.209990000003017,9.741015000007337,10.224585000003799]",space,22.522385,0.0,30.0,30.0,27.0,1.0,,
,,,,,,,,,,,block_2/none_n_81_1.wav,no,n,none,81.0,1.160099605,17.42268464,,,,Yes,Audio Technica ATH-M50x,18,No,F,24,R,Mostly,1,2020-09-10_21h13.09.622,kura-B1,2020.1.2,Win32,60,,,,,,,,,,,,,,"[""space"",""space"",""space"",""space"",""space"",""space"",""space"",""space"",""space"",""space"",""space"",""space"",""space"",""space"",""space"",""space"",""space"",""space"",""space"",""space"",""space"",""space"",""space"",""space"",""space"",""space"",""space"",""space""]","[0.7209949999962646,1.140784999995958,1.7562799999871004,2.324750000000222,2.9235249999910593,3.476204999999254,3.9883149999955094,4.509594999996125,5.0808149999938905,5.636374999987538,6.338929999998527,6.908574999994244,7.491139999998268,8.09145999999646,8.639044999989437,9.25497999999834,9.825870000000577,10.34975999999756,10.944649999990816,11.48534999998833,12.072254999992083,12.6999599999981,13.327879999997094,13.854504999995697,14.422344999999495,15.087504999988823,15.68817499998886,16.331030000001192]",space,2.50655,0.0,31.0,31.0,29.0,1.0,,
,,,,,,,,,,,block_2/medium_n_81_1.wav,no,n,medium,81.0,1.997436703,15.99943217,,,,Yes,Audio Technica ATH-M50x,18,No,F,24,R,Mostly,1,2020-09-10_21h13.09.622,kura-B1,2020.1.2,Win32,60,,,,,,,,,,,,,,"[""space"",""space"",""space"",""space"",""space"",""space"",""space"",""space"",""space"",""space"",""space"",""space"",""space"",""space"",""space"",""space"",""space"",""space"",""space"",""space"",""space""]","[0.6043950000025688,1.0692200000048615,1.7363750000081382,2.392110000000912,3.0739150000010795,3.767019999999775,4.505650000006426,5.141490000009071,5.833565000008548,6.53409000000147,7.217199999999366,8.015635000003613,8.766365000003361,9.52519500000949,10.179044999997132,10.800784999999905,11.521025000009331,12.147655000008399,12.842044999997597,13.60314000000676,14.242715000000317]",space,1.870605,0.0,32.0,32.0,31.0,1.0,,
,,,,,,,,,,,block_2/weak_n_72_2.wav,no,n,weak,72.0,1.8411197,21.80211743,,,,Yes,Audio Technica ATH-M50x,18,No,F,24,R,Mostly,1,2020-09-10_21h13.09.622,kura-B1,2020.1.2,Win32,60,,,,,,,,,,,,,,"[""space"",""space"",""space"",""space"",""space"",""space"",""space"",""space"",""space"",""space"",""space"",""space"",""space"",""space"",""space"",""space"",""space"",""space"",""space"",""space""]","[0.6511049999971874,1.2723700000058216,1.9275449999988723,2.8787250000020776,3.970260000001872,4.931779999999208,6.134615000002896,7.0691400000068825,8.114555000007385,9.316594999996823,10.381190000000288,11.334320000008802,12.271825000003446,13.27930999999785,14.238310000000865,15.232325000004721,16.335070000000997,17.45172500000649,18.370960000000196,19.506665000008297]",space,0.68442,0.0,33.0,33.0,11.0,1.0,,
,,,,,,,,,,,block_2/medium_n_119_2.wav,no,n,medium,119.0,2.453413839,11.51042064,,,,Yes,Audio Technica ATH-M50x,18,No,F,24,R,Mostly,1,2020-09-10_21h13.09.622,kura-B1,2020.1.2,Win32,60,,,,,,,,,,,,,,"[""space"",""space"",""space"",""space"",""space"",""space"",""space"",""space"",""space"",""space"",""space"",""space"",""space"",""space"",""space"",""space"",""space""]","[0.777129999987892,1.2256049999994048,1.811419999997952,2.3608299999905284,2.8431249999996453,3.352910000001657,3.884070000000065,4.309159999990015,4.785055000000057,5.325079999994841,5.8945349999994505,6.332419999991544,6.817704999994021,7.34300499998767,7.944429999988415,8.450164999987464,8.910559999989346]",space,6.97591,0.0,34.0,34.0,21.0,1.0,,
,,,,,,,,,,,block_2/strong_n_92_2.wav,no,n,strong,92.0,1.994887374,15.49683749,,,,Yes,Audio Technica ATH-M50x,18,No,F,24,R,Mostly,1,2020-09-10_21h13.09.622,kura-B1,2020.1.2,Win32,60,,,,,,,,,,,,,,"[""space"",""space"",""space"",""space"",""space"",""space"",""space"",""space"",""space"",""space"",""space"",""space"",""space"",""space"",""space"",""space"",""space"",""space"",""space"",""space""]","[0.8136799999915638,1.2697199999963686,2.047384999997803,2.6932850000009694,3.4467449999933706,4.039619999995921,4.73170999999229,5.459600000001956,6.12308000000462,6.764104999994515,7.329559999998082,8.274164999995037,8.931240000005346,9.740269999994553,10.42825500000572,11.097124999999778,11.751084999996237,12.449775000000727,13.172569999995176,13.934324999994487]",space,0.8703,0.0,35.0,35.0,39.0,1.0,,
,,,,,,,,,,,block_2/strong_n_72_2.wav,no,n,strong,72.0,2.258938628,19.59540121,,,,Yes,Audio Technica ATH-M50x,18,No,F,24,R,Mostly,1,2020-09-10_21h13.09.622,kura-B1,2020.1.2,Win32,60,,,,,,,,,,,,,,"[""space"",""space"",""space"",""space"",""space"",""space"",""space"",""space"",""space"",""space"",""space"",""space"",""space"",""space"",""space"",""space"",""space"",""space"",""space"",""space""]","[0.7833700000048793,1.5027249999984633,2.6058499999926426,3.5376350000008188,4.529485000006389,5.31736000000069,6.219370000006165,7.217304999998305,8.157185000003892,8.974075000005541,9.723864999992884,10.61315999999374,11.530335000003333,12.389655000006314,13.284560000000056,14.233095000003232,15.11320999999566,15.989044999994803,16.93313000000512,17.863140000001295]",space,0.67526,0.0,36.0,36.0,30.0,1.0,,
,,,,,,,,,,,block_2/weak_n_119_1.wav,no,n,weak,119.0,2.394125333,11.70850175,,,,Yes,Audio Technica ATH-M50x,18,No,F,24,R,Mostly,1,2020-09-10_21h13.09.622,kura-B1,2020.1.2,Win32,60,,,,,,,,,,,,,,"[""space"",""space"",""space"",""space"",""space"",""space"",""space"",""space"",""space"",""space"",""space"",""space"",""space"",""space"",""space"",""space"",""space"",""space"",""space""]","[0.7448750000039581,1.4276050000044052,1.9299250000040047,2.3823750000008204,2.8299000000115484,3.4125850000127684,3.901250000009668,4.435620000003837,4.8769350000075065,5.315775000010262,5.8309800000135965,6.259205000009388,6.674415000001545,7.138720000002422,7.57867000000283,8.153500000000577,8.619975000008708,9.074960000012425,9.596310000007861]",space,0.723475,0.0,37.0,37.0,38.0,1.0,,
,,,,,,,,,,,block_2/none_n_105_2.wav,no,n,none,105.0,1.955418763,16.59637114,,,,Yes,Audio Technica ATH-M50x,18,No,F,24,R,Mostly,1,2020-09-10_21h13.09.622,kura-B1,2020.1.2,Win32,60,,,,,,,,,,,,,,"[""space"",""space"",""space"",""space"",""space"",""space"",""space"",""space"",""space"",""space"",""space"",""space"",""space"",""space"",""space"",""space"",""space"",""space"",""space"",""space"",""space"",""space"",""space"",""space"",""space"",""space"",""space""]","[0.666084999990062,1.2222049999982119,1.8031199999968521,2.1992349999929957,2.7807000000029802,3.5142550000020947,4.061654999998154,4.499309999999468,4.991099999999506,5.5126250000034815,6.044414999996889,6.516990000004171,7.11308999999892,7.83555000000365,8.46384499999158,9.0016249999901,9.548334999999497,10.125755000001163,10.711249999993015,11.248504999996385,11.87118499999633,12.306385000003502,12.848839999991469,13.347804999998061,13.930509999991273,14.45506500000215,14.899959999995417]",space,2.600425,0.0,38.0,38.0,4.0,1.0,,
,,,,,,,,,,,block_2/strong_n_105_2.wav,no,n,strong,105.0,1.030135556,14.17553238,,,,Yes,Audio Technica ATH-M50x,18,No,F,24,R,Mostly,1,2020-09-10_21h13.09.622,kura-B1,2020.1.2,Win32,60,,,,,,,,,,,,,,"[""space"",""space"",""space"",""space"",""space"",""space"",""space"",""space"",""space"",""space"",""space"",""space"",""space"",""space"",""space"",""space"",""space"",""space"",""space"",""space""]","[0.6031799999907435,1.5143050000040148,2.1712100000004284,2.867205000002059,3.4707099999936872,4.275259999994432,4.877119999989645,5.556230000001733,6.205894999991415,6.864094999996723,7.553759999995009,8.218444999991107,8.881760000003624,9.45008500000381,10.101589999990892,10.748680000004015,11.49628500000108,12.235209999998688,12.820214999999507,13.52922999999987]",space,0.40151,0.0,39.0,39.0,9.0,1.0,,
,,,,,,,,,,,,,,,,,,,,,Yes,Audio Technica ATH-M50x,18,No,F,24,R,Mostly,1,2020-09-10_21h13.09.622,kura-B1,2020.1.2,Win32,60,,,,,,,,,,,,,,,,,,,,,,,space,28.34396
