key_resp.keys,key_resp.rt,practice_taps.keys,practice_taps.rt,keyresp.keys,keyresp.rt,practice_stims_loop.thisRepN,practice_stims_loop.thisTrialN,practice_stims_loop.thisN,practice_stims_loop.thisIndex,practice_stims_loop.ran,sndfile,type,tempo,cond,version,delay,dur,Participant Initials,"If you are a MTurk worker, what is your MTurk worker ID?'",Are you wearing headphones?,What are the headphone make and model?,"How many years of musical training, if any, do you have?",Do you have any hearing problems? Please describe,What is your sex (f/m/decline)?,What is your age?,What is your handedness (R/L/ambi)?,Are you currently in a secure and quiet room without a possible interruption?,session,date,expName,psychopyVersion,OS,frameRate,instructions_prompt.keys,instructions_prompt.rt,block1_taps.keys,block1_taps.rt,key_resp_2.keys,key_resp_2.rt,trials.thisRepN,trials.thisTrialN,trials.thisN,trials.thisIndex,trials.ran,key_resp2.keys,key_resp2.rt,block2_taps.keys,block2_taps.rt,key_resp_3.keys,key_resp_3.rt,trials_2.thisRepN,trials_2.thisTrialN,trials_2.thisN,trials_2.thisIndex,trials_2.ran,key_resp_4.keys,key_resp_4.rt,"If you are not an MTurk worker, please provide your email address"
space,12.063875,"[""space"",""space"",""space""]","[5.876680000015767,9.36376000000746,9.836265000019921]",space,0.697475,0.0,0.0,0.0,1.0,1.0,block_2/medium_t_119_4.wav,timbre,t,medium,119.0,2.073396767,11.89421309,,,no,none,none,no,f,20,R,yes,1,2020-09-07_11h08.21.418,kura-A2,2020.1.2,Win32,60,,,,,,,,,,,,,,,,,,,,,,,,,
,,"[""space"",""space"",""space"",""space"",""space"",""space"",""space"",""space"",""space"",""space"",""space"",""space"",""space"",""space"",""space"",""space"",""space""]","[2.712265000009211,3.2736649999860674,3.847444999992149,4.389334999985294,4.963064999989001,5.542469999985769,6.0919599999906495,6.677880000002915,7.243335000006482,7.776114999986021,8.34297999998671,8.911995000002207,9.496985000005225,10.090454999997746,10.690224999998463,11.277644999994664,11.92429500000435]",space,0.440975,0.0,1.0,1.0,0.0,1.0,block_1/medium_n_105_3.wav,no,n,medium,105.0,1.683245346,13.36533151,,,no,none,none,no,f,20,R,yes,1,2020-09-07_11h08.21.418,kura-A2,2020.1.2,Win32,60,,,,,,,,,,,,,,,,,,,,,,,,,
,,"[""space"",""space"",""space"",""space"",""space"",""space"",""space"",""space"",""space"",""space"",""space"",""space"",""space"",""space"",""space"",""space"",""space"",""space"",""space"",""space"",""space"",""space"",""space"",""space"",""space"",""space"",""space"",""space"",""space"",""space"",""space"",""space""]","[0.38622999997460283,0.892214999999851,1.3820899999991525,1.858669999986887,2.408049999998184,2.8501199999882374,3.3297599999932572,3.7944100000022445,4.280004999978701,4.78030499999295,5.231709999992745,5.729504999995697,6.239579999994021,6.742519999999786,7.232239999982994,7.6656049999874085,8.17949999999837,8.665539999987232,9.108639999991283,9.679869999992661,10.192574999993667,10.713659999979427,11.19271000000299,11.707085000001825,12.249494999996386,12.780650000000605,13.214079999976093,13.766914999985602,14.241654999990715,14.794544999982463,15.349835000000894,15.886359999974957]",space,0.393485,0.0,2.0,2.0,2.0,1.0,block_1/weak_n_72_4.wav,no,n,weak,72.0,1.922330121,17.89675189,,,no,none,none,no,f,20,R,yes,1,2020-09-07_11h08.21.418,kura-A2,2020.1.2,Win32,60,,,,,,,,,,,,,,,,,,,,,,,,,
,,"[""space"",""space"",""space"",""space"",""space"",""space"",""space"",""space"",""space"",""space"",""space"",""space"",""space"",""space"",""space"",""space"",""space""]","[2.0964249999960884,2.5820850000018254,3.110849999997299,3.610545000003185,4.061340000014752,4.526580000005197,5.063829999999143,5.562460000015562,6.130319999996573,6.6110200000111945,7.07850000000326,7.597550000005867,8.077019999996992,8.565000000002328,9.064130000013392,9.563675000012154,10.081529999995837]",space,0.344775,0.0,3.0,3.0,3.0,1.0,block_2/strong_t_119_4.wav,timbre,t,strong,119.0,2.380207574,12.24809873,,,no,none,none,no,f,20,R,yes,1,2020-09-07_11h08.21.418,kura-A2,2020.1.2,Win32,60,,,,,,,,,,,,,,,,,,,,,,,,,
,,,,,,,,,,,block_1/weak_n_81_4.wav,no,n,weak,81.0,2.484743178,17.5438815,,,no,none,none,no,f,20,R,yes,1,2020-09-07_11h08.21.418,kura-A2,2020.1.2,Win32,60,space,2.42137,"[""space"",""space"",""space"",""space"",""space"",""space"",""space"",""space"",""space"",""space"",""space"",""space"",""space"",""space"",""space"",""space"",""space""]","[2.1266100000066217,2.9096800000115763,3.6748399999924004,4.374240000004647,5.13990000000922,5.891325000004144,6.759850000002189,7.598809999995865,8.388869999995222,9.296269999991637,10.089955000003101,10.862854999984847,11.66208499998902,12.423045000003185,13.174380000011297,13.936814999993658,14.74237500000163]",space,0.52771,0.0,0.0,0.0,36.0,1.0,,,,,,,,,,,,,,
,,,,,,,,,,,block_1/strong_n_92_3.wav,no,n,strong,92.0,1.754608557,14.24499404,,,no,none,none,no,f,20,R,yes,1,2020-09-07_11h08.21.418,kura-A2,2020.1.2,Win32,60,,,"[""space"",""space"",""space"",""space"",""space"",""space"",""space"",""space"",""space"",""space"",""space"",""space"",""space"",""space"",""space"",""space"",""space"",""space"",""space"",""space"",""space""]","[0.41207000002032146,0.898475000023609,1.4501150000141934,2.145535000017844,2.7212799999979325,3.357785000000149,3.9808350000239443,4.634870000008959,5.250450000021374,5.935705000010785,6.495240000018384,7.094745000009425,7.72213500001817,8.298009999998612,8.9159450000152,9.533465000014985,10.18321499999729,10.814494999998715,11.500800000008894,12.112275000021327,12.781025000003865]",space,0.361945,0.0,1.0,1.0,39.0,1.0,,,,,,,,,,,,,,
,,,,,,,,,,,block_1/medium_n_72_4.wav,no,n,medium,72.0,1.204769933,15.71334136,,,no,none,none,no,f,20,R,yes,1,2020-09-07_11h08.21.418,kura-A2,2020.1.2,Win32,60,,,"[""space"",""space"",""space"",""space"",""space"",""space"",""space"",""space"",""space"",""space"",""space"",""space"",""space"",""space"",""space"",""space"",""space"",""space"",""space""]","[1.6246650000102818,2.3248900000180583,3.0465250000124797,3.775114999996731,4.494260000006761,5.2153549999929965,6.067650000011781,6.811474999994971,7.527120000013383,8.270875000016531,8.97552999999607,9.696014999994077,10.409830000018701,11.076000000000931,11.878150000004098,12.609465000015916,13.340100000001257,14.060209999996005,14.82575000001816]",space,0.375305,0.0,2.0,2.0,7.0,1.0,,,,,,,,,,,,,,
,,,,,,,,,,,block_1/medium_n_81_4.wav,no,n,medium,81.0,1.742854158,16.25138024,,,no,none,none,no,f,20,R,yes,1,2020-09-07_11h08.21.418,kura-A2,2020.1.2,Win32,60,,,"[""space"",""space"",""space"",""space"",""space"",""space"",""space"",""space"",""space"",""space"",""space"",""space"",""space"",""space"",""space"",""space"",""space"",""space"",""space"",""space""]","[0.7943899999954738,1.5155999999842606,2.2292299999971874,2.961494999995921,3.810815000004368,4.50946999998996,5.243149999994785,6.017789999983506,6.756824999989476,7.457139999984065,8.208374999987427,8.970029999996768,9.679814999981318,10.332774999988033,11.029240000003483,11.807600000000093,12.58006999999634,13.320485000003828,14.06623500000569,14.770495000004303]",space,0.299855,0.0,3.0,3.0,38.0,1.0,,,,,,,,,,,,,,
,,,,,,,,,,,block_1/medium_n_119_4.wav,no,n,medium,119.0,1.261396351,9.568471181,,,no,none,none,no,f,20,R,yes,1,2020-09-07_11h08.21.418,kura-A2,2020.1.2,Win32,60,,,"[""space"",""space"",""space"",""space"",""space"",""space"",""space"",""space"",""space"",""space"",""space"",""space"",""space"",""space""]","[2.6010349999996834,3.0097399999795016,3.468380000005709,3.93171999999322,4.376424999994924,4.83924499998102,5.318754999985686,5.783209999994142,6.24215499998536,6.718085000000428,7.17633499999647,7.635999999998603,8.092204999993555,8.526714999985415]",space,0.272405,0.0,4.0,4.0,17.0,1.0,,,,,,,,,,,,,,
,,,,,,,,,,,block_1/strong_n_81_3.wav,no,n,strong,81.0,1.6043637,15.60930701,,,no,none,none,no,f,20,R,yes,1,2020-09-07_11h08.21.418,kura-A2,2020.1.2,Win32,60,,,"[""space"",""space"",""space"",""space"",""space"",""space"",""space"",""space"",""space"",""space"",""space"",""space"",""space"",""space"",""space"",""space"",""space"",""space"",""space"",""space"",""space""]","[0.344150000018999,1.0092850000073668,1.4948000000149477,2.2381400000012945,2.9353050000208896,3.650145000021439,4.3539549999986775,5.051060000027064,5.706630000000587,6.438475000002654,7.168340000003809,7.89802000002237,8.63043000001926,9.318970000022091,10.017619999998715,10.735330000024987,11.453940000006696,12.152700000006007,12.887905000010505,13.72642000002088,14.314024999999674]",space,0.301375,0.0,5.0,5.0,10.0,1.0,,,,,,,,,,,,,,
,,,,,,,,,,,block_1/medium_n_119_3.wav,no,n,medium,119.0,1.238363393,11.09976929,,,no,none,none,no,f,20,R,yes,1,2020-09-07_11h08.21.418,kura-A2,2020.1.2,Win32,60,,,"[""space"",""space"",""space"",""space"",""space"",""space"",""space"",""space"",""space"",""space"",""space"",""space"",""space"",""space"",""space""]","[3.3902100000123028,3.7395350000006147,4.161345000000438,4.610190000006696,5.061210000014398,5.562815000012051,6.08809000000474,6.614429999986896,7.125915000011446,7.593930000002729,8.079880000004778,8.594864999991842,9.081180000008317,9.546410000009928,10.044545000011567]",space,0.317185,0.0,6.0,6.0,22.0,1.0,,,,,,,,,,,,,,
,,,,,,,,,,,block_1/none_n_81_3.wav,no,n,none,81.0,1.098648096,17.74277508,,,no,none,none,no,f,20,R,yes,1,2020-09-07_11h08.21.418,kura-A2,2020.1.2,Win32,60,,,"[""space"",""space"",""space"",""space"",""space"",""space"",""space"",""space"",""space"",""space"",""space"",""space"",""space"",""space"",""space"",""space"",""space"",""space"",""space"",""space"",""space"",""space""]","[3.5484249999863096,4.063354999991134,4.596909999992931,5.197095000010449,5.729525000002468,6.199835000006715,6.694744999986142,7.216480000002775,7.72998999999254,8.21570500000962,8.766089999990072,9.345884999987902,9.845215000008466,10.347609999997076,10.830495000001974,11.359755000012228,11.867109999991953,12.380564999999478,12.864975000004051,13.53125,15.90124000000651,16.597704999992857]",space,0.3133,0.0,7.0,7.0,29.0,1.0,,,,,,,,,,,,,,
,,,,,,,,,,,block_1/strong_n_72_4.wav,no,n,strong,72.0,1.599228342,16.96784512,,,no,none,none,no,f,20,R,yes,1,2020-09-07_11h08.21.418,kura-A2,2020.1.2,Win32,60,,,"[""space"",""space"",""space"",""space"",""space"",""space"",""space"",""space"",""space"",""space"",""space"",""space"",""space"",""space"",""space"",""space"",""space"",""space"",""space""]","[1.3466750000079628,2.280670000007376,3.1496899999910966,3.8813049999880604,4.676045000000158,5.490519999992102,6.277280000009341,6.986949999991339,7.814409999991767,8.652765000006184,9.441525000002002,10.209869999991497,11.010225000005448,11.789614999986952,12.619774999999208,13.670964999997523,14.17222499998752,14.961589999991702,15.791449999989709]",space,1.14371,0.0,8.0,8.0,35.0,1.0,,,,,,,,,,,,,,
,,,,,,,,,,,block_1/strong_n_105_4.wav,no,n,strong,105.0,1.30585928,13.14087062,,,no,none,none,no,f,20,R,yes,1,2020-09-07_11h08.21.418,kura-A2,2020.1.2,Win32,60,,,"[""space"",""space"",""space"",""space"",""space"",""space"",""space"",""space"",""space"",""space"",""space"",""space"",""space"",""space"",""space"",""space"",""space"",""space"",""space"",""space""]","[0.9252750000159722,1.3618350000178907,1.8788300000014715,2.4970350000075996,3.1106549999967683,3.743914999999106,4.337850000010803,4.9114600000029895,5.503595000016503,6.126760000013746,6.714120000018738,7.294179999997141,7.892860000021756,8.478300000017043,9.063305000017863,9.680584999994608,10.277445000014268,10.900699999998324,11.537620000017341,12.02419500000542]",space,0.413075,0.0,9.0,9.0,3.0,1.0,,,,,,,,,,,,,,
,,,,,,,,,,,block_1/strong_n_92_4.wav,no,n,strong,92.0,2.276261723,15.98016195,,,no,none,none,no,f,20,R,yes,1,2020-09-07_11h08.21.418,kura-A2,2020.1.2,Win32,60,,,"[""space"",""space"",""space"",""space"",""space"",""space"",""space"",""space"",""space"",""space"",""space"",""space"",""space"",""space"",""space"",""space"",""space"",""space"",""space"",""space""]","[0.7888950000051409,1.2605699999839999,2.01133999999729,2.7126099999877624,3.3804200000013225,4.138639999990119,4.861004999984289,5.522584999998799,6.361564999999246,7.017399999982445,7.672809999989113,8.33064000000013,9.088950000004843,9.781285000004573,10.472334999998566,11.130225000000792,11.85042999999132,12.550679999985732,13.296094999997877,14.042994999996154]",space,0.26026,0.0,10.0,10.0,34.0,1.0,,,,,,,,,,,,,,
,,,,,,,,,,,block_1/none_n_119_4.wav,no,n,none,119.0,2.009432028,15.37111003,,,no,none,none,no,f,20,R,yes,1,2020-09-07_11h08.21.418,kura-A2,2020.1.2,Win32,60,,,"[""space"",""space"",""space"",""space"",""space"",""space"",""space"",""space"",""space"",""space"",""space"",""space"",""space"",""space"",""space"",""space"",""space"",""space"",""space"",""space"",""space"",""space"",""space"",""space"",""space""]","[1.8574750000261702,2.3667500000155997,2.909155000001192,3.429775000025984,3.9741199999989476,4.460260000021663,4.930115000024671,5.39212000000407,5.910390000004554,6.410100000008242,6.874800000019604,7.345755000016652,7.8248550000134856,8.242760000022827,8.746915000025183,9.214080000005197,9.675440000020899,10.145275000017136,10.588795000017853,11.059000000008382,11.489675000018906,11.916720000008354,12.362140000012005,12.812815000012051,13.23931000000448]",space,0.30252,0.0,11.0,11.0,20.0,1.0,,,,,,,,,,,,,,
,,,,,,,,,,,block_1/none_n_92_4.wav,no,n,none,92.0,1.296817987,15.18938035,,,no,none,none,no,f,20,R,yes,1,2020-09-07_11h08.21.418,kura-A2,2020.1.2,Win32,60,,,"[""space"",""space"",""space"",""space"",""space"",""space"",""space"",""space"",""space"",""space"",""space"",""space"",""space"",""space"",""space"",""space"",""space"",""space"",""space"",""space"",""space"",""space"",""space"",""space""]","[2.3898000000044703,2.961494999995921,3.4694799999997485,4.011549999995623,4.468055000004824,4.97943999999552,5.486084999982268,5.963424999994459,6.4697049999958836,6.912630000006175,7.462014999997336,7.91602000000421,8.344149999989895,8.88083499998902,9.37981499999296,9.8648600000015,10.38055999999051,10.900259999994887,11.409530000004452,11.900309999997262,12.50194499999634,12.983069999987492,13.512904999981401,13.97978999998304]",space,0.26472,0.0,12.0,12.0,19.0,1.0,,,,,,,,,,,,,,
,,,,,,,,,,,block_1/none_n_81_4.wav,no,n,none,81.0,2.242955119,22.19488256,,,no,none,none,no,f,20,R,yes,1,2020-09-07_11h08.21.418,kura-A2,2020.1.2,Win32,60,,,"[""space"",""space"",""space"",""space"",""space"",""space"",""space"",""space"",""space"",""space"",""space"",""space"",""space"",""space"",""space"",""space"",""space"",""space"",""space"",""space"",""space"",""space"",""space"",""space"",""space"",""space"",""space"",""space"",""space"",""space"",""space"",""space"",""space"",""space"",""space""]","[1.9649799999897368,2.476829999999609,3.0665849999932107,3.6203849999874365,4.146474999986822,4.726569999998901,5.227634999988368,5.764134999975795,6.3123649999906775,6.867769999982556,7.345889999996871,7.88401999999769,8.397059999988414,8.963449999981094,9.47923999998602,9.963504999992438,10.596234999975422,11.132369999977527,11.644554999977117,12.12178999997559,12.681824999977835,13.230279999988852,13.715944999974454,14.303919999976642,14.868014999985462,15.432774999993853,15.946924999996554,16.443369999993593,17.046329999982845,17.600994999986142,18.14647999999579,18.66961499999161,19.13216999999713,19.648359999991953,20.180410000000848]",space,0.265425,0.0,13.0,13.0,26.0,1.0,,,,,,,,,,,,,,
,,,,,,,,,,,block_1/weak_n_92_4.wav,no,n,weak,92.0,2.208253857,14.29442166,,,no,none,none,no,f,20,R,yes,1,2020-09-07_11h08.21.418,kura-A2,2020.1.2,Win32,60,,,"[""space"",""space"",""space"",""space"",""space"",""space"",""space"",""space"",""space"",""space"",""space"",""space"",""space"",""space"",""space"",""space"",""space""]","[2.7478200000186916,3.23487000001478,3.827465000009397,4.413500000024214,4.963900000002468,5.589375000010477,6.148784999997588,6.778075000009267,7.4286750000028405,7.981064999999944,8.57962000000407,9.244850000017323,9.829865000006976,10.478675000020303,11.151110000006156,11.73272500000894,12.329220000014175]",space,0.246075,0.0,14.0,14.0,15.0,1.0,,,,,,,,,,,,,,
,,,,,,,,,,,block_1/medium_n_105_3.wav,no,n,medium,105.0,2.417465983,14.09955215,,,no,none,none,no,f,20,R,yes,1,2020-09-07_11h08.21.418,kura-A2,2020.1.2,Win32,60,,,"[""space"",""space"",""space"",""space"",""space"",""space"",""space"",""space"",""space"",""space"",""space"",""space"",""space"",""space"",""space"",""space"",""space"",""space"",""space""]","[1.5300249999854714,2.063884999981383,2.615689999976894,3.232224999985192,3.8444650000019465,4.399164999980712,4.946054999978514,5.521569999982603,6.094759999978123,6.710084999998799,7.2655699999886565,7.815419999998994,8.379304999980377,8.96388999998453,9.557669999980135,10.071329999977024,10.729904999985592,11.309964999993099,11.929969999997411]",space,0.36509,0.0,15.0,15.0,0.0,1.0,,,,,,,,,,,,,,
,,,,,,,,,,,block_1/strong_n_72_3.wav,no,n,strong,72.0,2.03136762,17.09667374,,,no,none,none,no,f,20,R,yes,1,2020-09-07_11h08.21.418,kura-A2,2020.1.2,Win32,60,,,"[""space"",""space"",""space"",""space"",""space"",""space"",""space"",""space"",""space"",""space"",""space"",""space"",""space"",""space"",""space"",""space"",""space"",""space"",""space"",""space""]","[0.42234499999904074,1.544934999983525,2.333374999987427,3.094279999990249,3.8442700000014156,4.542350000003353,5.329685000004247,6.0952849999885075,6.859139999985928,7.613974999985658,8.380514999997104,9.155074999987846,9.967065000004368,10.693964999984019,11.479805000009947,12.297064999991562,13.083415000000969,13.845364999986487,14.62998999998672,15.363140000001295]",space,0.475525,0.0,16.0,16.0,32.0,1.0,,,,,,,,,,,,,,
,,,,,,,,,,,block_1/none_n_105_3.wav,no,n,none,105.0,2.216733946,14.87818519,,,no,none,none,no,f,20,R,yes,1,2020-09-07_11h08.21.418,kura-A2,2020.1.2,Win32,60,,,"[""space"",""space"",""space"",""space"",""space"",""space"",""space"",""space"",""space"",""space"",""space"",""space"",""space"",""space"",""space"",""space"",""space"",""space"",""space"",""space"",""space"",""space"",""space"",""space""]","[1.7825399999856018,2.251250000001164,2.698644999996759,3.1576049999857787,3.6112349999893922,4.061404999985825,4.525055000005523,5.025384999986272,5.501179999992019,5.929434999998193,6.41903999997885,6.896394999988843,7.345834999985527,7.829845000000205,8.237410000001546,8.759114999993471,9.197714999987511,9.67835999999079,10.165420000004815,10.687290000001667,11.096770000003744,11.84262999999919,12.114654999983031,12.595065000001341]",space,0.263905,0.0,17.0,17.0,6.0,1.0,,,,,,,,,,,,,,
,,,,,,,,,,,block_1/weak_n_119_3.wav,no,n,weak,119.0,2.459758036,10.81612992,,,no,none,none,no,f,20,R,yes,1,2020-09-07_11h08.21.418,kura-A2,2020.1.2,Win32,60,,,"[""space"",""space"",""space"",""space"",""space"",""space"",""space"",""space"",""space"",""space"",""space"",""space"",""space"",""space"",""space"",""space"",""space"",""space""]","[1.794850000005681,2.2359550000110175,2.633995000011055,3.0273350000206847,3.4473050000087824,3.906054999999469,4.278510000003735,4.693025000015041,5.0924750000122,5.5285600000061095,5.911519999994198,6.344130000012228,6.743960000021616,7.145290000014938,7.5442650000040885,8.013219999993453,8.445110000000568,10.576369999995222]",space,0.26157,0.0,18.0,18.0,37.0,1.0,,,,,,,,,,,,,,
,,,,,,,,,,,block_1/none_n_105_4.wav,no,n,none,105.0,1.493653366,16.97025201,,,no,none,none,no,f,20,R,yes,1,2020-09-07_11h08.21.418,kura-A2,2020.1.2,Win32,60,,,"[""space"",""space"",""space"",""space"",""space"",""space"",""space"",""space"",""space"",""space"",""space"",""space"",""space"",""space"",""space"",""space"",""space"",""space"",""space"",""space"",""space"",""space"",""space""]","[1.909125000005588,2.3289650000224356,2.8450400000147056,3.5460450000246055,6.225505000009434,6.7959350000019185,7.363970000005793,7.9291400000220165,8.471355000016047,8.98868500001845,9.545830000017304,10.096730000019306,10.622159999998985,11.125620000006165,11.66294999999809,12.165600000007544,12.665000000008149,13.320189999998547,13.62848500002292,14.159660000004806,14.658675000013318,15.144225000025472,15.688365000009071]",space,0.278275,0.0,19.0,19.0,14.0,1.0,,,,,,,,,,,,,,
,,,,,,,,,,,block_1/medium_n_81_3.wav,no,n,medium,81.0,1.199970007,16.72060493,,,no,none,none,no,f,20,R,yes,1,2020-09-07_11h08.21.418,kura-A2,2020.1.2,Win32,60,,,"[""space"",""space"",""space"",""space"",""space"",""space"",""space"",""space"",""space"",""space"",""space"",""space"",""space"",""space"",""space"",""space"",""space"",""space"",""space""]","[1.2912450000003446,2.1276549999893177,2.944794999988517,3.6934199999959674,4.4925749999820255,5.2433449999953154,5.9924299999838695,6.824670000001788,7.69111499999417,8.393484999978682,9.210499999986496,10.061094999982743,10.942244999983814,11.677339999994729,12.479544999980135,13.29473500000313,14.12417500000447,14.892720000003465,15.741079999977956]",space,0.292415,0.0,20.0,20.0,33.0,1.0,,,,,,,,,,,,,,
,,,,,,,,,,,block_1/strong_n_119_3.wav,no,n,strong,119.0,1.213627968,10.9792062,,,no,none,none,no,f,20,R,yes,1,2020-09-07_11h08.21.418,kura-A2,2020.1.2,Win32,60,,,"[""space"",""space"",""space"",""space"",""space"",""space"",""space"",""space"",""space"",""space"",""space"",""space"",""space"",""space"",""space"",""space"",""space"",""space"",""space"",""space""]","[0.5138699999952223,0.9264449999900535,1.5113199999905191,2.0281149999937043,2.5473650000058115,3.045400000002701,3.5281550000072457,3.995805000013206,4.52390000000014,5.011670000007143,5.512149999995017,5.9934249999932945,6.511640000011539,6.998850000003586,7.482125000009546,8.009760000015376,8.47817000001669,8.997265000012703,9.463554999994813,9.946584999997867]",space,0.294825,0.0,21.0,21.0,16.0,1.0,,,,,,,,,,,,,,
,,,,,,,,,,,block_1/weak_n_72_4.wav,no,n,weak,72.0,1.441009476,17.41543124,,,no,none,none,no,f,20,R,yes,1,2020-09-07_11h08.21.418,kura-A2,2020.1.2,Win32,60,,,"[""space"",""space"",""space"",""space"",""space"",""space"",""space"",""space"",""space"",""space"",""space"",""space"",""space"",""space"",""space"",""space"",""space"",""space""]","[1.9895400000095833,2.924135000008391,3.8002550000092015,4.746335000003455,5.54019500000868,6.295985000004293,7.021295000013197,7.862740000011399,8.660170000017388,9.490989999991143,10.360935000004247,11.194134999997914,12.030655000009574,12.910375000006752,13.691915000003064,14.575810000009369,15.377500000002328,16.21085000000312]",space,0.275445,0.0,22.0,22.0,4.0,1.0,,,,,,,,,,,,,,
,,,,,,,,,,,block_1/strong_n_119_4.wav,no,n,strong,119.0,1.980480326,12.048825,,,no,none,none,no,f,20,R,yes,1,2020-09-07_11h08.21.418,kura-A2,2020.1.2,Win32,60,,,"[""space"",""space"",""space"",""space"",""space"",""space"",""space"",""space"",""space"",""space"",""space"",""space"",""space"",""space"",""space"",""space"",""space"",""space"",""space"",""space"",""space""]","[0.4543200000189245,0.8668699999980163,1.2298250000167172,1.655094999994617,2.138665000005858,2.623010000010254,3.1501200000056997,3.6499349999940023,4.1717850000131875,4.718915000004927,5.250090000015916,5.68500500000664,6.16287500000908,6.7162050000042655,7.231079999997746,7.754929999995511,8.25680500001181,8.733735000016168,9.26804500000435,9.745755000010831,10.25019500000053]",space,0.24943,0.0,23.0,23.0,23.0,1.0,,,,,,,,,,,,,,
,,,,,,,,,,,block_1/weak_n_105_4.wav,no,n,weak,105.0,1.436012468,12.20911904,,,no,none,none,no,f,20,R,yes,1,2020-09-07_11h08.21.418,kura-A2,2020.1.2,Win32,60,,,"[""space"",""space"",""space"",""space"",""space"",""space"",""space"",""space"",""space"",""space"",""space"",""space"",""space"",""space"",""space"",""space""]","[1.9172399999806657,2.8323749999981374,3.6778099999937695,4.375439999974333,4.93067499998142,5.618154999974649,6.232129999989411,6.797135000000708,7.294899999978952,7.847689999995055,8.380789999995613,8.946609999984503,9.41676500000176,9.908974999998463,10.43114499998046,10.93274499999825]",space,0.242015,0.0,24.0,24.0,28.0,1.0,,,,,,,,,,,,,,
,,,,,,,,,,,block_1/weak_n_105_3.wav,no,n,weak,105.0,1.738990723,13.41450093,,,no,none,none,no,f,20,R,yes,1,2020-09-07_11h08.21.418,kura-A2,2020.1.2,Win32,60,,,"[""space"",""space"",""space"",""space"",""space"",""space"",""space"",""space"",""space"",""space"",""space"",""space"",""space"",""space"",""space"",""space"",""space""]","[1.9632799999963026,2.6796050000120886,3.4147950000187848,4.051095000002533,4.613180000014836,5.125800000008894,5.846925000019837,6.45985000001383,7.066855000011856,7.621589999995194,8.234235000010813,8.826100000005681,9.37021000002278,9.934045000001788,10.574625000008382,11.1809400000202,11.779255000001285]",space,0.074335,0.0,25.0,25.0,27.0,1.0,,,,,,,,,,,,,,
,,,,,,,,,,,block_1/medium_n_105_4.wav,no,n,medium,105.0,1.402482856,15.80924023,,,no,none,none,no,f,20,R,yes,1,2020-09-07_11h08.21.418,kura-A2,2020.1.2,Win32,60,,,"[""space"",""space"",""space"",""space"",""space"",""space"",""space"",""space"",""space"",""space"",""space"",""space"",""space"",""space"",""space"",""space""]","[3.074514999985695,4.0616250000020955,5.008115000004182,5.946105000009993,6.797480000008363,7.562960000010207,8.274035000009462,9.086515000002692,9.715079999994487,10.445085000013933,11.14715000000433,11.798715000011725,12.465129999996861,13.15625,13.846900000004098,14.546544999990147]",space,0.27905,0.0,26.0,26.0,12.0,1.0,,,,,,,,,,,,,,
,,,,,,,,,,,block_1/medium_n_92_4.wav,no,n,medium,92.0,1.438882438,14.02917722,,,no,none,none,no,f,20,R,yes,1,2020-09-07_11h08.21.418,kura-A2,2020.1.2,Win32,60,,,"[""space"",""space"",""space"",""space"",""space"",""space"",""space"",""space"",""space"",""space"",""space"",""space"",""space"",""space"",""space"",""space"",""space"",""space"",""space"",""space""]","[1.1950399999914225,1.7448100000037812,2.2635599999921396,2.8621250000142027,3.43109500000719,3.995469999994384,4.610440000018571,5.2102799999993294,5.779895000014221,6.459810000000289,7.111750000010943,7.761800000007497,8.36061500001233,8.959780000004685,9.58178500001668,10.217559999990044,10.845655000011902,11.507370000006631,12.160430000018096,12.77975499999593]",space,0.296415,0.0,27.0,27.0,11.0,1.0,,,,,,,,,,,,,,
,,,,,,,,,,,block_1/weak_n_92_3.wav,no,n,weak,92.0,1.887522896,14.6307882,,,no,none,none,no,f,20,R,yes,1,2020-09-07_11h08.21.418,kura-A2,2020.1.2,Win32,60,,,"[""space"",""space"",""space"",""space"",""space"",""space"",""space"",""space"",""space"",""space"",""space"",""space"",""space"",""space"",""space"",""space"",""space"",""space"",""space"",""space""]","[1.5320599999977276,2.0292849999968894,2.5938049999822397,3.1958099999756087,3.8314899999822956,4.402554999978747,5.031429999973625,5.665864999988116,6.356679999997141,7.046359999978449,7.729735000000801,8.381474999972852,9.06703999999445,9.681354999978794,10.282554999983404,10.964874999976018,11.617164999974193,12.19759499997599,12.943399999989197,14.519679999997607]",space,0.324265,0.0,28.0,28.0,5.0,1.0,,,,,,,,,,,,,,
,,,,,,,,,,,block_1/none_n_72_4.wav,no,n,none,72.0,1.118979514,23.86124709,,,no,none,none,no,f,20,R,yes,1,2020-09-07_11h08.21.418,kura-A2,2020.1.2,Win32,60,,,"[""space"",""space"",""space"",""space"",""space"",""space"",""space"",""space"",""space"",""space"",""space"",""space"",""space"",""space"",""space"",""space"",""space"",""space"",""space"",""space"",""space"",""space"",""space"",""space"",""space"",""space"",""space"",""space"",""space"",""space"",""space"",""space"",""space""]","[1.4462800000037532,2.430099999997765,2.9693050000059884,3.641029999998864,4.5455199999851175,4.814924999984214,5.3800500000070315,6.073880000010831,6.695594999997411,7.276949999999488,7.857790000009118,8.530469999997877,9.212310000002617,9.91096499998821,10.60972499998752,11.24611000000732,11.89444000000367,12.581130000005942,13.243979999999283,13.958364999998594,14.693739999987883,15.354720000002999,16.060754999984056,16.745549999992363,17.35417000000598,18.04600999999093,18.685089999984484,19.737464999983786,20.147289999993518,20.84487000000081,21.579559999983758,22.258555000007618,22.919099999999162]",space,0.330215,0.0,29.0,29.0,21.0,1.0,,,,,,,,,,,,,,
,,,,,,,,,,,block_1/weak_n_81_3.wav,no,n,weak,81.0,1.412334255,16.47029344,,,no,none,none,no,f,20,R,yes,1,2020-09-07_11h08.21.418,kura-A2,2020.1.2,Win32,60,,,"[""space"",""space"",""space"",""space"",""space"",""space"",""space"",""space"",""space"",""space"",""space"",""space"",""space"",""space"",""space"",""space"",""space"",""space"",""space"",""space""]","[1.2297599999874365,2.138409999985015,2.6641949999902863,3.3419099999882746,4.0752250000077765,4.8286950000037905,5.479735000000801,6.202214999997523,6.933129999990342,7.663819999987027,8.484244999999646,9.232820000004722,10.04522500000894,10.81641500000842,11.628495000011753,12.362294999998994,13.191120000003139,13.867310000001453,14.66673999998602,15.403099999995902]",space,0.47253,0.0,30.0,30.0,30.0,1.0,,,,,,,,,,,,,,
,,,,,,,,,,,block_1/none_n_119_3.wav,no,n,none,119.0,1.932281918,14.89500301,,,no,none,none,no,f,20,R,yes,1,2020-09-07_11h08.21.418,kura-A2,2020.1.2,Win32,60,,,"[""space"",""space"",""space"",""space"",""space"",""space"",""space"",""space"",""space"",""space"",""space"",""space"",""space"",""space"",""space""]","[2.661840000015218,3.429790000023786,4.086135000019567,4.734085000003688,5.5310150000150315,6.250660000019707,7.10426500000176,7.7430850000237115,8.517229999997653,9.230665000010049,10.029594999999972,10.742955000023358,11.517185000004247,12.284740000002785,12.916930000006687]",space,0.244455,0.0,31.0,31.0,24.0,1.0,,,,,,,,,,,,,,
,,,,,,,,,,,block_1/none_n_72_3.wav,no,n,none,72.0,1.892162994,23.61892036,,,no,none,none,no,f,20,R,yes,1,2020-09-07_11h08.21.418,kura-A2,2020.1.2,Win32,60,,,"[""space"",""space"",""space"",""space"",""space"",""space"",""space"",""space"",""space"",""space"",""space"",""space"",""space"",""space"",""space"",""space"",""space"",""space"",""space"",""space"",""space"",""space"",""space"",""space"",""space"",""space""]","[4.642595000012079,5.339690000022529,6.061635000020033,6.710745000018505,7.410839999996824,8.088530000008177,8.661764999997104,9.323740000021644,10.01006500000949,10.663255000021309,11.36104499999783,12.144000000000233,12.872995000012452,13.539864999998827,14.243150000023888,15.027224999997998,15.714345000014873,16.460040000005392,17.312845000007655,18.045190000004368,18.711510000022827,19.3315050000092,20.015360000019427,20.644495000015013,21.345950000017183,21.96440500000608]",space,0.244895,0.0,32.0,32.0,18.0,1.0,,,,,,,,,,,,,,
,,,,,,,,,,,block_1/weak_n_72_3.wav,no,n,weak,72.0,1.008682366,16.87657352,,,no,none,none,no,f,20,R,yes,1,2020-09-07_11h08.21.418,kura-A2,2020.1.2,Win32,60,,,"[""space"",""space"",""space"",""space"",""space"",""space"",""space"",""space"",""space"",""space"",""space"",""space"",""space"",""space"",""space"",""space"",""space"",""space"",""space""]","[1.99137500001234,2.659425000019837,3.3602499999979045,4.092420000000857,4.949265000002924,5.799300000013318,6.610755000001518,7.324170000007143,8.192550000007031,8.895750000025146,9.690380000014557,10.3433200000145,11.160765000007814,11.941615000017919,12.776845000014873,13.524185000016587,14.375505000003614,15.136595000018133,15.876775000011548]",space,0.329435,0.0,33.0,33.0,8.0,1.0,,,,,,,,,,,,,,
,,,,,,,,,,,block_1/strong_n_81_4.wav,no,n,strong,81.0,1.727706814,17.69954355,,,no,none,none,no,f,20,R,yes,1,2020-09-07_11h08.21.418,kura-A2,2020.1.2,Win32,60,,,"[""space"",""space"",""space"",""space"",""space"",""space"",""space"",""space"",""space"",""space"",""space"",""space"",""space"",""space"",""space"",""space"",""space"",""space"",""space"",""space""]","[0.8981050000002142,1.7108700000098906,2.5120650000171736,3.266280000010738,4.225525000016205,4.92626000000746,5.758835000015097,6.415580000000773,7.329924999998184,8.211999999999534,9.093525000003865,9.88023000000976,10.67977499999688,11.45860499999253,12.26881000000867,13.07951999999932,13.955415000003995,14.693939999997383,15.488400000002002,16.332920000015292]",space,0.2589,0.0,34.0,34.0,1.0,1.0,,,,,,,,,,,,,,
,,,,,,,,,,,block_1/medium_n_72_3.wav,no,n,medium,72.0,2.102023577,18.17590113,,,no,none,none,no,f,20,R,yes,1,2020-09-07_11h08.21.418,kura-A2,2020.1.2,Win32,60,,,"[""space"",""space"",""space"",""space"",""space"",""space"",""space"",""space"",""space"",""space"",""space"",""space"",""space"",""space"",""space"",""space"",""space"",""space"",""space"",""space"",""space"",""space""]","[0.3170500000123866,0.9488999999884982,1.5499199999903794,2.29881999999634,2.996405000012601,3.7842299999902025,4.551734999986365,5.596980000002077,6.425970000011148,7.325604999990901,8.17837999999756,8.975269999995362,9.715534999995725,10.61386000001221,11.41721499999403,12.231130000000121,13.075875000009546,13.997380000015255,14.765199999994365,15.631194999994477,16.437115000007907,18.12614000000758]",space,0.398675,0.0,35.0,35.0,13.0,1.0,,,,,,,,,,,,,,
,,,,,,,,,,,block_1/weak_n_119_4.wav,no,n,weak,119.0,2.305568033,13.07926418,,,no,none,none,no,f,20,R,yes,1,2020-09-07_11h08.21.418,kura-A2,2020.1.2,Win32,60,,,"[""space"",""space"",""space"",""space"",""space"",""space"",""space""]","[2.6626200000173412,4.279215000016848,5.700570000015432,7.194915000000037,8.781950000004144,10.524355000001378,12.542795000015758]",space,0.330415,0.0,36.0,36.0,31.0,1.0,,,,,,,,,,,,,,
,,,,,,,,,,,block_1/medium_n_92_3.wav,no,n,medium,92.0,1.602440637,13.28810957,,,no,none,none,no,f,20,R,yes,1,2020-09-07_11h08.21.418,kura-A2,2020.1.2,Win32,60,,,"[""space"",""space"",""space"",""space"",""space"",""space"",""space"",""space"",""space"",""space"",""space"",""space"",""space"",""space"",""space"",""space"",""space"",""space"",""space"",""space""]","[0.4539199999999255,1.4861350000137463,1.7338650000165217,2.2450149999931455,2.8300300000119023,3.4161299999977928,4.027105000015581,4.60025499999756,5.198455000005197,5.8510649999952875,6.477130000013858,7.10526499999105,7.734519999998156,8.361449999996694,8.943640000012238,9.551975000009406,10.079555000003893,10.699454999994487,11.300745000015013,11.920455000014044]",space,0.24197,0.0,37.0,37.0,2.0,1.0,,,,,,,,,,,,,,
,,,,,,,,,,,block_1/strong_n_105_3.wav,no,n,strong,105.0,1.156897655,12.38746455,,,no,none,none,no,f,20,R,yes,1,2020-09-07_11h08.21.418,kura-A2,2020.1.2,Win32,60,,,"[""space"",""space"",""space"",""space"",""space"",""space"",""space"",""space"",""space"",""space"",""space"",""space"",""space"",""space"",""space"",""space"",""space"",""space"",""space"",""space""]","[0.7269299999752548,1.1764799999946263,1.7419599999848288,2.2963049999962095,2.9136799999978393,3.463850000000093,4.047659999981988,4.632889999978943,5.228399999992689,5.776899999997113,6.349709999980405,6.889634999999544,7.476699999999255,8.064094999979716,8.661024999979418,9.196714999998221,9.810204999987036,10.326424999977462,10.896494999993593,11.41163499999675]",space,0.225315,0.0,38.0,38.0,9.0,1.0,,,,,,,,,,,,,,
,,,,,,,,,,,block_1/none_n_92_3.wav,no,n,none,92.0,2.336707073,18.23675242,,,no,none,none,no,f,20,R,yes,1,2020-09-07_11h08.21.418,kura-A2,2020.1.2,Win32,60,,,"[""space"",""space"",""space"",""space"",""space"",""space"",""space"",""space"",""space"",""space""]","[1.8677100000204518,3.3477100000018254,4.947780000016792,6.587585000001127,8.059255000000121,9.623030000017025,11.132700000016484,12.697360000020126,14.38170500000706,15.998090000008233]",space,0.24118,0.0,39.0,39.0,25.0,1.0,,,,,,,,,,,,,,
,,,,,,,,,,,block_2/none_t_72_3.wav,timbre,t,none,72.0,1.763210745,21.95785927,,,no,none,none,no,f,20,R,yes,1,2020-09-07_11h08.21.418,kura-A2,2020.1.2,Win32,60,,,,,,,,,,,,space,21.92799,"[""space"",""space"",""space"",""space"",""space"",""space"",""space"",""space"",""space"",""space"",""space"",""space"",""space"",""space"",""space"",""space"",""space"",""space"",""space"",""space"",""space"",""space"",""space"",""space"",""space"",""space"",""space""]","[1.759619999997085,2.591065000015078,3.372495000017807,4.563504999998258,5.363080000010086,6.1242700000002515,6.909574999997858,7.695250000018859,8.41537000000244,9.141230000008363,9.811845000018366,10.482025000004796,11.138785000017378,11.776050000014948,12.337709999992512,13.025270000012824,13.638720000017202,14.316229999996722,14.9913499999966,15.738925000012387,16.46186999999918,17.130650000006426,17.875360000005458,18.575195000012172,19.17950500000734,19.859714999998687,20.482344999996712]",space,0.405445,0.0,0.0,0.0,19.0,1.0,,,
,,,,,,,,,,,block_2/medium_t_92_3.wav,timbre,t,medium,92.0,1.388240232,13.37372776,,,no,none,none,no,f,20,R,yes,1,2020-09-07_11h08.21.418,kura-A2,2020.1.2,Win32,60,,,,,,,,,,,,,,"[""space"",""space"",""space"",""space"",""space"",""space"",""space"",""space"",""space"",""space"",""space"",""space"",""space"",""space"",""space"",""space"",""space"",""space"",""space"",""space""]","[0.7610899999854155,1.4111549999797717,1.993579999980284,2.6260199999960605,3.1633299999812152,3.7417199999908917,4.3816099999821745,4.955789999978151,5.589409999985946,6.153059999982361,6.737899999978254,7.310989999998128,7.950270000001183,8.560494999983348,9.15573499997845,9.810384999989765,10.376049999991665,10.943239999993239,11.58714499999769,12.160974999977043]",space,0.26225,0.0,1.0,1.0,35.0,1.0,,,
,,,,,,,,,,,block_2/medium_t_105_4.wav,timbre,t,medium,105.0,1.80685877,13.54300389,,,no,none,none,no,f,20,R,yes,1,2020-09-07_11h08.21.418,kura-A2,2020.1.2,Win32,60,,,,,,,,,,,,,,"[""space"",""space"",""space"",""space"",""space"",""space"",""space"",""space"",""space"",""space"",""space"",""space"",""space"",""space"",""space"",""space"",""space"",""space"",""space""]","[0.3816450000158511,1.0269550000084564,1.997075000021141,3.0762350000150036,3.59379500002251,4.16163499999675,4.732450000010431,5.346260000020266,5.960285000008298,6.53269000002183,7.160390000004554,7.713625000003958,8.31012500001816,8.929765000008047,9.55971000000136,10.2124199999962,10.812630000000354,11.371270000003278,13.180034999997588]",space,0.28029,0.0,2.0,2.0,23.0,1.0,,,
,,,,,,,,,,,block_2/medium_t_81_3.wav,timbre,t,medium,81.0,1.280563259,13.87394194,,,no,none,none,no,f,20,R,yes,1,2020-09-07_11h08.21.418,kura-A2,2020.1.2,Win32,60,,,,,,,,,,,,,,"[""space"",""space"",""space"",""space"",""space"",""space"",""space"",""space"",""space"",""space"",""space"",""space""]","[0.4011649999883957,1.0230299999821,1.5953699999954551,2.56095999997342,3.392584999994142,4.527334999991581,5.81043499999214,7.28436999997939,8.47338499999023,9.611109999998007,10.989809999999125,12.1809699999867]",space,0.26687,0.0,3.0,3.0,8.0,1.0,,,
,,,,,,,,,,,block_2/medium_t_92_4.wav,timbre,t,medium,92.0,1.599417172,14.59601581,,,no,none,none,no,f,20,R,yes,1,2020-09-07_11h08.21.418,kura-A2,2020.1.2,Win32,60,,,,,,,,,,,,,,"[""space"",""space"",""space"",""space"",""space"",""space"",""space"",""space"",""space"",""space"",""space"",""space"",""space"",""space"",""space"",""space"",""space"",""space""]","[1.9933399999863468,2.7935099999886006,3.3598849999834783,3.9806600000010803,4.57941999999457,5.22971499999403,5.928320000006352,6.544224999990547,7.193484999996144,7.844444999995176,8.520545000006678,9.144274999998743,9.801104999991367,10.483384999999544,11.110264999995707,11.780704999982845,12.42050000000745,13.112445000006119]",space,0.240635,0.0,4.0,4.0,25.0,1.0,,,
,,,,,,,,,,,block_2/strong_t_119_3.wav,timbre,t,strong,119.0,2.177542179,13.00520658,,,no,none,none,no,f,20,R,yes,1,2020-09-07_11h08.21.418,kura-A2,2020.1.2,Win32,60,,,,,,,,,,,,,,"[""space"",""space"",""space"",""space"",""space"",""space"",""space"",""space"",""space"",""space"",""space"",""space"",""space"",""space"",""space"",""space"",""space"",""space"",""space""]","[1.331884999992326,1.7323000000033062,2.1953750000102445,2.6975150000071153,3.2102500000037253,3.74571499999729,4.331644999998389,4.895435000013094,5.450944999989588,5.9574699999939185,6.54530500000692,7.150805000012042,7.680649999994785,8.23066000000108,8.758070000010775,9.312130000005709,9.912099999986822,10.457800000003772,10.96205000000191]",space,0.29548,0.0,5.0,5.0,28.0,1.0,,,
,,,,,,,,,,,block_2/weak_t_92_4.wav,timbre,t,weak,92.0,2.338363624,13.8208126,,,no,none,none,no,f,20,R,yes,1,2020-09-07_11h08.21.418,kura-A2,2020.1.2,Win32,60,,,,,,,,,,,,,,"[""space"",""space"",""space"",""space"",""space"",""space"",""space"",""space"",""space"",""space"",""space"",""space""]","[3.1301000000094064,4.7445799999986775,6.115145000017947,6.7314600000099745,7.307750000007218,7.871069999993779,8.341560000000754,9.258490000007441,10.230444999993779,10.78182000000379,11.312730000005104,11.93099500000244]",space,0.504995,0.0,6.0,6.0,29.0,1.0,,,
,,,,,,,,,,,block_2/none_t_119_3.wav,timbre,t,none,119.0,1.207484261,12.32644118,,,no,none,none,no,f,20,R,yes,1,2020-09-07_11h08.21.418,kura-A2,2020.1.2,Win32,60,,,,,,,,,,,,,,"[""space"",""space"",""space"",""space"",""space"",""space"",""space"",""space"",""space"",""space"",""space"",""space"",""space"",""space"",""space"",""space""]","[0.5296000000089407,1.2155349999957252,1.8800500000070315,2.478239999996731,3.144204999989597,3.7657450000115205,4.4650649999966845,5.104064999992261,5.811170000000857,6.583275000011781,7.380154999991646,8.221424999996088,9.07067499999539,9.91063500000746,10.758780000003753,11.400774999987334]",space,1.541505,0.0,7.0,7.0,32.0,1.0,,,
,,,,,,,,,,,block_2/none_t_105_4.wav,timbre,t,none,105.0,1.723889958,15.53967227,,,no,none,none,no,f,20,R,yes,1,2020-09-07_11h08.21.418,kura-A2,2020.1.2,Win32,60,,,,,,,,,,,,,,"[""space"",""space"",""space"",""space"",""space"",""space"",""space"",""space"",""space"",""space"",""space"",""space"",""space"",""space"",""space"",""space"",""space"",""space"",""space""]","[0.8118299999914598,1.4960100000025705,2.2958199999993667,3.2809049999923445,4.611334999994142,5.251139999978477,5.964704999991227,6.730524999991758,7.344844999985071,8.108574999991106,9.049404999997932,9.544529999984661,9.879309999989346,10.638569999980973,11.042069999995874,12.12925999998697,12.731369999994058,13.879944999993313,15.334470000001602]",space,1.861795,0.0,8.0,8.0,20.0,1.0,,,
,,,,,,,,,,,block_2/medium_t_105_3.wav,timbre,t,medium,105.0,1.319167427,12.09599282,,,no,none,none,no,f,20,R,yes,1,2020-09-07_11h08.21.418,kura-A2,2020.1.2,Win32,60,,,,,,,,,,,,,,"[""space"",""space"",""space"",""space"",""space"",""space"",""space"",""space"",""space"",""space"",""space"",""space"",""space""]","[1.529339999979129,2.1261200000008103,2.6755899999989197,3.1171099999919534,3.818679999996675,4.311199999996461,4.928625000000466,5.497419999999693,6.1293599999917205,9.376289999985602,9.93488499999512,10.581404999975348,11.079334999987623]",space,0.606395,0.0,9.0,9.0,16.0,1.0,,,
,,,,,,,,,,,block_2/none_t_105_3.wav,timbre,t,none,105.0,1.906849656,15.72757528,,,no,none,none,no,f,20,R,yes,1,2020-09-07_11h08.21.418,kura-A2,2020.1.2,Win32,60,,,,,,,,,,,,,,"[""space"",""space"",""space"",""space"",""space"",""space"",""space"",""space"",""space"",""space"",""space"",""space"",""space"",""space"",""space"",""space"",""space"",""space"",""space""]","[1.4144950000045355,2.020445000001928,2.6595699999888893,3.2998650000081398,3.978189999994356,4.530709999991814,5.095514999993611,5.757964999997057,6.5827400000125635,7.2802950000041164,7.934550000005402,8.635069999989355,9.310250000009546,10.013429999991786,10.747015000000829,11.787340000009863,12.54351499999757,13.359304999990854,14.047484999988228]",space,0.44102,0.0,10.0,10.0,14.0,1.0,,,
,,,,,,,,,,,block_2/none_t_119_4.wav,timbre,t,none,119.0,2.16972576,11.23222009,,,no,none,none,no,f,20,R,yes,1,2020-09-07_11h08.21.418,kura-A2,2020.1.2,Win32,60,,,,,,,,,,,,,,"[""space"",""space"",""space"",""space"",""space"",""space"",""space"",""space"",""space"",""space"",""space"",""space"",""space"",""space""]","[0.7237199999799486,1.3976699999766424,2.16053500000271,2.7111599999770988,3.231195000000298,3.8323099999979604,4.39658000000054,4.915064999979222,5.555824999988545,6.24095499998657,6.941754999978002,7.800649999990128,8.641579999995884,9.21100499999011]",space,0.396875,0.0,11.0,11.0,27.0,1.0,,,
,,,,,,,,,,,block_2/weak_t_119_4.wav,timbre,t,weak,119.0,2.497661912,13.1066415,,,no,none,none,no,f,20,R,yes,1,2020-09-07_11h08.21.418,kura-A2,2020.1.2,Win32,60,,,,,,,,,,,,,,"[""space"",""space"",""space"",""space"",""space"",""space"",""space"",""space"",""space"",""space"",""space"",""space"",""space""]","[1.8607499999925494,2.4597149999754038,3.179969999997411,3.925019999995129,4.658144999993965,5.291064999997616,5.907219999993686,6.591954999981681,7.17770999998902,7.860149999993155,8.47632999997586,9.18802499998128,10.497299999988172]",space,0.36159,0.0,12.0,12.0,11.0,1.0,,,
,,,,,,,,,,,block_2/weak_t_105_3.wav,timbre,t,weak,105.0,1.911505731,13.14248079,,,no,none,none,no,f,20,R,yes,1,2020-09-07_11h08.21.418,kura-A2,2020.1.2,Win32,60,,,,,,,,,,,,,,"[""space"",""space"",""space"",""space"",""space"",""space"",""space"",""space"",""space"",""space"",""space"",""space"",""space"",""space"",""space"",""space"",""space"",""space""]","[0.5002450000029057,1.2960149999998976,2.170524999994086,2.9000099999830127,3.59753999998793,4.195825000002515,4.810024999984307,5.41442499999539,6.080604999995558,6.745200000004843,7.294364999979734,8.010970000002999,8.629569999990053,9.208364999998594,9.785329999984242,10.346369999984745,10.910044999996899,11.462839999992866]",space,1.131335,0.0,13.0,13.0,4.0,1.0,,,
,,,,,,,,,,,block_2/strong_t_81_4.wav,timbre,t,strong,81.0,1.059530738,15.41717246,,,no,none,none,no,f,20,R,yes,1,2020-09-07_11h08.21.418,kura-A2,2020.1.2,Win32,60,,,,,,,,,,,,,,"[""space"",""space"",""space"",""space"",""space"",""space"",""space"",""space"",""space"",""space"",""space"",""space"",""space"",""space"",""space"",""space"",""space"",""space"",""space""]","[0.744925000006333,1.6757799999904819,2.4017299999832176,3.2405199999921024,3.888234999991255,4.624989999982063,5.346675000007963,5.9294149999914225,6.531090000004042,7.38912999999593,8.261839999991935,9.149789999995846,9.738754999998491,10.274489999981597,11.174339999997756,12.11011999999755,12.788384999992559,13.494940000004135,14.8110250000027]",space,2.51173,0.0,14.0,14.0,34.0,1.0,,,
,,,,,,,,,,,block_2/strong_t_81_3.wav,timbre,t,strong,81.0,1.276002308,16.49137646,,,no,none,none,no,f,20,R,yes,1,2020-09-07_11h08.21.418,kura-A2,2020.1.2,Win32,60,,,,,,,,,,,,,,"[""space"",""space"",""space"",""space"",""space"",""space"",""space"",""space"",""space"",""space"",""space"",""space"",""space"",""space"",""space"",""space"",""space"",""space"",""space"",""space""]","[0.8616500000061933,1.4784600000130013,2.5479700000141747,3.265525000024354,3.8646300000254996,4.678275000012945,5.421385000023292,6.152245000004768,6.960965000005672,7.706455000006827,8.433490000024904,9.397610000014538,10.108830000011949,10.997185000014724,11.636470000026748,12.465795000025537,13.183300000004238,14.059189999999944,15.032650000008289,15.659995000023628]",space,0.94257,0.0,15.0,15.0,24.0,1.0,,,
,,,,,,,,,,,block_2/none_t_81_3.wav,timbre,t,none,81.0,2.3234515,21.58667145,,,no,none,none,no,f,20,R,yes,1,2020-09-07_11h08.21.418,kura-A2,2020.1.2,Win32,60,,,,,,,,,,,,,,"[""space"",""space"",""space"",""space"",""space"",""space"",""space"",""space"",""space"",""space"",""space"",""space"",""space"",""space"",""space"",""space"",""space"",""space"",""space"",""space"",""space"",""space"",""space"",""space"",""space"",""space"",""space"",""space"",""space"",""space"",""space"",""space""]","[0.33274499999242835,1.794129999994766,2.4628049999882933,3.0438149999827147,3.5804349999816623,4.165479999996023,4.713690000004135,5.308954999985872,5.808705000003101,6.409090000001015,6.934210000006715,7.558430000004591,8.066334999981336,8.696135000005597,9.29061999998521,9.867769999982556,10.46670499999891,10.929719999985537,11.58510500000557,12.11291500000516,12.792909999989206,13.342485000001034,13.915984999999637,14.609005000005709,15.179984999995213,15.764544999983627,16.3291999999783,16.930189999984577,17.479999999981374,18.065810000000056,18.69313499997952,19.42875500000082]",space,1.09381,0.0,16.0,16.0,10.0,1.0,,,
,,,,,,,,,,,block_2/weak_t_72_3.wav,timbre,t,weak,72.0,1.543417886,17.01208002,,,no,none,none,no,f,20,R,yes,1,2020-09-07_11h08.21.418,kura-A2,2020.1.2,Win32,60,,,,,,,,,,,,,,"[""space"",""space"",""space"",""space"",""space"",""space"",""space"",""space"",""space"",""space"",""space"",""space"",""space"",""space"",""space"",""space"",""space"",""space"",""space"",""space""]","[0.9597650000068825,1.473165000003064,2.0922799999825656,2.8798399999795947,3.5280949999869335,4.429789999994682,5.113469999982044,5.980719999992289,6.928714999987278,7.781004999997094,8.493214999994962,9.279764999984764,10.059344999986934,10.930644999985816,11.844329999992624,12.650555000000168,13.335534999991069,14.096610000007786,14.810514999990119,15.712215000006836]",space,0.91144,0.0,17.0,17.0,26.0,1.0,,,
,,,,,,,,,,,block_2/strong_t_72_4.wav,timbre,t,strong,72.0,1.957123463,17.07435702,,,no,none,none,no,f,20,R,yes,1,2020-09-07_11h08.21.418,kura-A2,2020.1.2,Win32,60,,,,,,,,,,,,,,"[""space"",""space"",""space"",""space"",""space"",""space"",""space"",""space"",""space"",""space"",""space"",""space"",""space"",""space"",""space"",""space"",""space"",""space""]","[1.3703200000163633,2.4210949999978766,2.9790000000211876,3.8083950000000186,4.524795000004815,5.41285500000231,6.24815500000841,6.960974999994505,7.774300000019139,8.500865000009071,9.276624999998603,10.683640000002924,11.38357000000542,12.331479999993462,13.182029999996303,13.977905000007013,14.794615000020713,15.528519999992568]",space,1.30076,0.0,18.0,18.0,1.0,1.0,,,
,,,,,,,,,,,block_2/medium_t_72_3.wav,timbre,t,medium,72.0,1.064285065,17.84451182,,,no,none,none,no,f,20,R,yes,1,2020-09-07_11h08.21.418,kura-A2,2020.1.2,Win32,60,,,,,,,,,,,,,,"[""space"",""space"",""space"",""space"",""space"",""space"",""space"",""space"",""space"",""space"",""space"",""space"",""space"",""space"",""space"",""space"",""space"",""space"",""space"",""space""]","[0.4273700000194367,1.4943900000071153,2.31028000000515,3.198740000021644,3.8140150000108406,4.848780000000261,5.860385000007227,6.630035000009229,7.349840000009863,8.43129000000772,9.411019999999553,10.262280000024475,11.075425000017276,12.047360000025947,12.788885000016307,13.667350000003353,14.449320000014268,15.397665000025881,16.16295500000706,16.87960500002373]",space,0.583675,0.0,19.0,19.0,31.0,1.0,,,
,,,,,,,,,,,block_2/none_t_92_3.wav,timbre,t,none,92.0,1.328085357,13.39815338,,,no,none,none,no,f,20,R,yes,1,2020-09-07_11h08.21.418,kura-A2,2020.1.2,Win32,60,,,,,,,,,,,,,,"[""space"",""space"",""space"",""space"",""space"",""space"",""space"",""space"",""space"",""space"",""space"",""space"",""space"",""space""]","[1.57929999998305,2.445305000001099,3.3295499999949243,4.032344999985071,4.780394999979762,5.600420000002487,6.363744999980554,7.179934999992838,8.179424999980256,8.830179999989923,9.745324999996228,10.629794999986188,11.481824999995297,12.011154999985592]",space,0.712225,0.0,20.0,20.0,17.0,1.0,,,
,,,,,,,,,,,block_2/weak_t_72_4.wav,timbre,t,weak,72.0,1.41938316,17.89516547,,,no,none,none,no,f,20,R,yes,1,2020-09-07_11h08.21.418,kura-A2,2020.1.2,Win32,60,,,,,,,,,,,,,,"[""space"",""space"",""space"",""space"",""space"",""space"",""space"",""space"",""space"",""space"",""space"",""space"",""space"",""space"",""space"",""space"",""space"",""space"",""space"",""space""]","[0.5253300000040326,1.6626150000083726,2.6122449999966193,3.52863499999512,4.233150000014575,5.061780000018189,6.113420000008773,6.87482500000624,7.711655000020983,8.46209000001545,9.401475000020582,10.310235000011744,11.112829999998212,11.957229999999981,12.78682999999728,13.631010000011884,14.483334999997169,15.237575000006473,16.102825000009034,16.966955000010785]",space,0.347635,0.0,21.0,21.0,33.0,1.0,,,
,,,,,,,,,,,block_2/strong_t_92_4.wav,timbre,t,strong,92.0,1.817525361,14.05856845,,,no,none,none,no,f,20,R,yes,1,2020-09-07_11h08.21.418,kura-A2,2020.1.2,Win32,60,,,,,,,,,,,,,,"[""space"",""space"",""space"",""space"",""space"",""space"",""space"",""space"",""space"",""space"",""space"",""space"",""space"",""space"",""space"",""space"",""space"",""space"",""space"",""space""]","[0.7052050000056624,1.219554999988759,1.7308799999882467,2.42977499999688,3.0090949999867007,3.6299700000090525,4.264930000004824,4.913750000006985,5.554819999990286,6.233325000008335,6.893199999991339,7.493129999988014,8.258119999984046,8.779739999998128,9.35899999999674,10.051080000004731,10.679944999981672,11.343250000005355,12.043204999994487,12.65903999999864]",space,0.764075,0.0,22.0,22.0,9.0,1.0,,,
,,,,,,,,,,,block_2/strong_t_72_3.wav,timbre,t,strong,72.0,1.757165856,18.23458082,,,no,none,none,no,f,20,R,yes,1,2020-09-07_11h08.21.418,kura-A2,2020.1.2,Win32,60,,,,,,,,,,,,,,"[""space"",""space"",""space"",""space"",""space"",""space"",""space"",""space"",""space"",""space"",""space"",""space"",""space"",""space"",""space"",""space"",""space"",""space"",""space"",""space""]","[1.145329999999376,1.8231350000132807,2.5942849999992177,3.3784100000048056,4.127004999987548,5.095705000014277,5.894009999989066,6.827144999988377,7.782724999997299,8.430714999994962,9.135024999995949,10.05470000000787,10.828015000006417,11.693759999994654,12.740439999994123,13.52345000000787,14.34526500001084,15.2147399999958,16.08481000000029,16.995530000014696]",space,0.28003,0.0,23.0,23.0,5.0,1.0,,,
,,,,,,,,,,,block_2/strong_t_105_4.wav,timbre,t,strong,105.0,1.910106179,12.02788396,,,no,none,none,no,f,20,R,yes,1,2020-09-07_11h08.21.418,kura-A2,2020.1.2,Win32,60,,,,,,,,,,,,,,"[""space"",""space"",""space"",""space"",""space"",""space"",""space"",""space"",""space"",""space"",""space"",""space"",""space"",""space"",""space"",""space"",""space""]","[2.3646050000097603,2.8611200000159442,3.3467400000081398,3.847490000014659,4.324850000004517,4.829584999999497,5.364549999998417,5.831735000014305,6.329205000016373,6.782475000014529,7.348640000011073,7.79886500001885,8.362750000000233,8.831145000003744,9.364020000008168,9.860840000008466,10.513080000004265]",space,1.536065,0.0,24.0,24.0,18.0,1.0,,,
,,,,,,,,,,,block_2/strong_t_119_4.wav,timbre,t,strong,119.0,1.529717424,11.39760858,,,no,none,none,no,f,20,R,yes,1,2020-09-07_11h08.21.418,kura-A2,2020.1.2,Win32,60,,,,,,,,,,,,,,"[""space"",""space"",""space"",""space"",""space"",""space"",""space"",""space"",""space"",""space"",""space"",""space"",""space"",""space"",""space"",""space"",""space""]","[2.048980000021402,2.5629400000034366,3.051630000001751,3.610865000024205,4.071530000015628,4.599160000012489,5.177120000007562,5.625585000001593,6.162284999998519,6.648475000023609,7.237125000014203,7.648430000001099,8.22939000002225,8.68355500002508,9.096270000009099,9.652510000014445,10.180985000013607]",space,0.432885,0.0,25.0,25.0,39.0,1.0,,,
,,,,,,,,,,,block_2/weak_t_81_3.wav,timbre,t,weak,81.0,1.745235196,18.01484971,,,no,none,none,no,f,20,R,yes,1,2020-09-07_11h08.21.418,kura-A2,2020.1.2,Win32,60,,,,,,,,,,,,,,"[""space"",""space"",""space"",""space"",""space"",""space"",""space"",""space"",""space"",""space"",""space"",""space"",""space"",""space"",""space"",""space"",""space"",""space""]","[1.6817800000135321,2.631489999999758,3.612729999993462,4.997514999995474,5.461585000011837,6.227095000009285,7.114635000005364,7.981995000009192,8.758535000000848,9.551834999991115,10.447535000013886,11.132225000008475,11.900075000012293,12.679839999997057,13.630275000003166,14.530159999994794,15.380024999991292,16.128194999997504]",space,0.2932,0.0,26.0,26.0,6.0,1.0,,,
,,,,,,,,,,,block_2/medium_t_81_4.wav,timbre,t,medium,81.0,2.313262111,15.10881767,,,no,none,none,no,f,20,R,yes,1,2020-09-07_11h08.21.418,kura-A2,2020.1.2,Win32,60,,,,,,,,,,,,,,"[""space"",""space"",""space"",""space"",""space"",""space"",""space"",""space"",""space"",""space"",""space"",""space"",""space"",""space"",""space"",""space"",""space"",""space"",""space"",""space"",""space""]","[0.5482349999947473,1.2301399999996647,1.9318400000047404,2.6103199999779463,3.3607499999925494,3.960894999996526,4.4887999999918975,5.173099999985425,5.766234999988228,6.3896700000041164,7.110335000004852,7.7965149999945424,8.523919999977807,9.160504999978002,9.895524999999907,10.476484999991953,11.110289999982342,11.778005000000121,12.450179999985266,13.076264999981504,14.88988000000245]",space,1.99564,0.0,27.0,27.0,2.0,1.0,,,
,,,,,,,,,,,block_2/weak_t_81_4.wav,timbre,t,weak,81.0,1.138387897,14.33417021,,,no,none,none,no,f,20,R,yes,1,2020-09-07_11h08.21.418,kura-A2,2020.1.2,Win32,60,,,,,,,,,,,,,,"[""space"",""space"",""space"",""space"",""space"",""space"",""space"",""space"",""space"",""space"",""space"",""space"",""space"",""space"",""space"",""space"",""space"",""space"",""space""]","[0.928795000014361,1.63167999999132,2.221669999998994,2.8368999999947846,3.421585000003688,4.108585000009043,4.799520000000484,5.409669999993639,6.058855000010226,6.859044999990147,7.77467000001343,8.27820500000962,8.893505000014557,9.625035000004573,10.242620000004536,10.875505000003614,11.629515000007814,12.292480000003707,12.89845000000787]",space,0.43301,0.0,28.0,28.0,0.0,1.0,,,
,,,,,,,,,,,block_2/medium_t_119_3.wav,timbre,t,medium,119.0,1.894752713,10.65330147,,,no,none,none,no,f,20,R,yes,1,2020-09-07_11h08.21.418,kura-A2,2020.1.2,Win32,60,,,,,,,,,,,,,,"[""space"",""space"",""space"",""space"",""space"",""space"",""space"",""space"",""space"",""space"",""space"",""space"",""space"",""space"",""space"",""space"",""space"",""space"",""space""]","[0.4649700000009034,1.093619999999646,1.74922999998671,2.2894300000043586,2.700199999992037,3.1493400000035763,3.5804349999816623,4.02314999999362,4.494189999997616,4.975394999986747,5.721154999977443,5.91327999997884,6.3569900000002235,6.808934999979101,7.244214999984251,7.712700000003679,8.100074999994831,8.584845000004862,9.08051999998861]",space,0.493085,0.0,29.0,29.0,37.0,1.0,,,
,,,,,,,,,,,block_2/weak_t_119_3.wav,timbre,t,weak,119.0,2.134308914,11.54587354,,,no,none,none,no,f,20,R,yes,1,2020-09-07_11h08.21.418,kura-A2,2020.1.2,Win32,60,,,,,,,,,,,,,,"[""space"",""space"",""space"",""space"",""space"",""space"",""space"",""space"",""space"",""space"",""space"",""space"",""space"",""space""]","[1.4099949999945238,2.143030000006547,2.8947150000021793,3.6604799999913666,4.416379999980563,5.115395000000717,5.813915000006091,6.49003499999526,7.132415000000037,7.763325000007171,8.299689999985276,8.830669999995735,9.317049999983283,9.780085000005784]",space,0.217085,0.0,30.0,30.0,13.0,1.0,,,
,,,,,,,,,,,block_2/strong_t_92_3.wav,timbre,t,strong,92.0,2.058598996,15.10526566,,,no,none,none,no,f,20,R,yes,1,2020-09-07_11h08.21.418,kura-A2,2020.1.2,Win32,60,,,,,,,,,,,,,,"[""space"",""space"",""space"",""space"",""space"",""space"",""space"",""space"",""space"",""space"",""space"",""space"",""space"",""space"",""space"",""space"",""space"",""space"",""space"",""space""]","[0.6825949999911245,1.337809999997262,1.9811449999979232,2.580530000006547,3.292955000011716,3.9813349999894854,4.59793499999796,5.28391999998712,5.981614999996964,6.616050000011455,7.199595000012778,8.052189999987604,8.766455000004498,9.447004999994533,10.093489999999292,10.766130000003614,11.416089999984251,12.1518100000103,12.766529999993509,13.284840000007534]",space,0.300165,0.0,31.0,31.0,3.0,1.0,,,
,,,,,,,,,,,block_2/none_t_81_4.wav,timbre,t,none,81.0,1.883383873,17.9242909,,,no,none,none,no,f,20,R,yes,1,2020-09-07_11h08.21.418,kura-A2,2020.1.2,Win32,60,,,,,,,,,,,,,,"[""space"",""space"",""space"",""space"",""space"",""space"",""space"",""space"",""space"",""space"",""space"",""space"",""space"",""space"",""space"",""space"",""space"",""space"",""space"",""space"",""space""]","[1.024344999983441,1.724869999976363,2.4271149999985937,3.2618649999785703,4.025620000000345,4.7378049999824725,5.541604999976698,6.294620000000577,7.060679999995045,7.887994999997318,8.625984999991488,9.394464999990305,10.159614999982296,10.826089999987744,11.576739999989513,12.342189999995753,13.143419999978505,13.930429999978514,14.77992999998969,15.642189999984112,16.638314999989234]",space,0.39086,0.0,32.0,32.0,12.0,1.0,,,
,,,,,,,,,,,block_2/medium_t_72_4.wav,timbre,t,medium,72.0,1.912133969,19.94959429,,,no,none,none,no,f,20,R,yes,1,2020-09-07_11h08.21.418,kura-A2,2020.1.2,Win32,60,,,,,,,,,,,,,,"[""space"",""space"",""space"",""space"",""space"",""space"",""space"",""space"",""space"",""space"",""space"",""space"",""space"",""space"",""space"",""space"",""space"",""space"",""space"",""space""]","[1.2881999999808613,2.099594999977853,2.896859999978915,3.9195400000025984,4.765829999989364,5.638199999986682,6.54816999999457,7.468959999998333,8.347890000004554,9.171539999981178,10.102205000002868,10.994974999979604,12.017479999980424,12.879729999986012,13.7557149999775,14.74561499999254,15.999339999980293,16.678625000000466,17.648589999997057,18.40314499998931]",space,0.379945,0.0,33.0,33.0,36.0,1.0,,,
,,,,,,,,,,,block_2/strong_t_105_3.wav,timbre,t,strong,105.0,1.973938856,13.50654657,,,no,none,none,no,f,20,R,yes,1,2020-09-07_11h08.21.418,kura-A2,2020.1.2,Win32,60,,,,,,,,,,,,,,"[""space"",""space"",""space"",""space"",""space"",""space"",""space"",""space"",""space"",""space"",""space"",""space"",""space"",""space"",""space"",""space"",""space"",""space"",""space"",""space""]","[0.6993549999897368,1.2613349999883212,1.7382250000082422,2.3093349999981,2.926240000000689,3.461329999990994,4.1294399999897,4.748744999989867,5.399104999989504,6.059349999995902,6.5907249999872874,7.16432499999064,7.659379999997327,8.271145000006072,8.862315000005765,9.43787500000326,9.993849999998929,10.65971000000718,11.163094999996247,11.759224999987055]",space,0.839825,0.0,34.0,34.0,21.0,1.0,,,
,,,,,,,,,,,block_2/none_t_92_4.wav,timbre,t,none,92.0,1.414044957,16.25508804,,,no,none,none,no,f,20,R,yes,1,2020-09-07_11h08.21.418,kura-A2,2020.1.2,Win32,60,,,,,,,,,,,,,,"[""space"",""space"",""space"",""space"",""space"",""space"",""space"",""space"",""space"",""space"",""space"",""space"",""space"",""space"",""space"",""space""]","[1.6091000000014901,2.469524999993155,3.4099799999967217,4.35710999998264,5.172504999994999,6.022704999981215,7.310054999979911,7.743454999988899,8.680089999979828,9.538759999995818,10.389719999977387,11.253654999978608,12.257614999980433,13.124459999991814,14.076199999981327,14.975634999980684]",space,0.746225,0.0,35.0,35.0,22.0,1.0,,,
,,,,,,,,,,,block_2/none_t_72_4.wav,timbre,t,none,72.0,1.053800106,24.75334659,,,no,none,none,no,f,20,R,yes,1,2020-09-07_11h08.21.418,kura-A2,2020.1.2,Win32,60,,,,,,,,,,,,,,"[""space"",""space"",""space"",""space"",""space"",""space"",""space"",""space"",""space"",""space"",""space"",""space"",""space"",""space"",""space"",""space"",""space"",""space"",""space"",""space"",""space"",""space"",""space"",""space"",""space"",""space"",""space"",""space""]","[0.9637299999885727,1.931335000001127,2.7306299999763723,3.5642700000025798,4.457954999990761,5.18154499999946,6.0207899999804795,6.916209999995772,7.799329999979818,8.629134999995586,9.433074999978999,10.263894999981858,11.128774999990128,11.963759999984177,12.928639999998268,13.700809999980265,14.518839999975171,15.332599999994272,16.199460000003455,16.976880000001984,17.81854999999632,18.600565000000643,19.381020000000717,20.214099999982864,21.163134999980684,21.95245499999146,22.766489999979967,23.552685000002384]",space,0.52476,0.0,36.0,36.0,15.0,1.0,,,
,,,,,,,,,,,block_2/weak_t_105_4.wav,timbre,t,weak,105.0,1.205192231,12.73516956,,,no,none,none,no,f,20,R,yes,1,2020-09-07_11h08.21.418,kura-A2,2020.1.2,Win32,60,,,,,,,,,,,,,,"[""space"",""space"",""space"",""space"",""space"",""space"",""space"",""space"",""space"",""space"",""space"",""space"",""space"",""space"",""space"",""space"",""space"",""space"",""space"",""space""]","[1.089750000013737,1.710995000001276,2.2106499999936204,2.7402000000001863,3.326120000012452,3.8260149999987334,4.396074999996927,4.960735000000568,5.496645000006538,5.962455000000773,6.524575000017649,7.081884999992326,7.659680000011576,8.240445000003092,8.807174999994459,9.374765000015032,9.999314999993658,10.500425000005635,11.093305000016699,11.690300000016578]",space,0.379145,0.0,37.0,37.0,7.0,1.0,,,
,,,,,,,,,,,block_2/medium_t_119_4.wav,timbre,t,medium,119.0,2.1713947,11.99221103,,,no,none,none,no,f,20,R,yes,1,2020-09-07_11h08.21.418,kura-A2,2020.1.2,Win32,60,,,,,,,,,,,,,,"[""space"",""space"",""space"",""space"",""space"",""space"",""space"",""space"",""space"",""space""]","[1.1749350000172853,2.0556800000194926,2.8598350000102073,3.8555950000009034,4.8558650000195485,5.876530000008643,6.90363499999512,8.005300000018906,9.066454999992857,10.09170499999891]",space,0.437355,0.0,38.0,38.0,30.0,1.0,,,
,,,,,,,,,,,block_2/weak_t_92_3.wav,timbre,t,weak,92.0,1.995389518,17.35720358,,,no,none,none,no,f,20,R,yes,1,2020-09-07_11h08.21.418,kura-A2,2020.1.2,Win32,60,,,,,,,,,,,,,,"[""space"",""space"",""space"",""space"",""space"",""space"",""space"",""space"",""space"",""space"",""space"",""space"",""space"",""space"",""space"",""space"",""space"",""space"",""space""]","[1.5335449999838602,2.3672699999879114,3.162014999979874,4.01729499999783,4.847344999987399,5.697029999981169,6.363949999999022,7.148209999984829,7.816884999978356,8.497674999991432,9.25409000000218,9.9991549999977,10.934119999990799,11.718844999995781,12.529674999997951,13.30980499999714,14.079845000000205,14.834029999998165,15.53299499998684]",space,0.59698,0.0,39.0,39.0,38.0,1.0,,,
,,,,,,,,,,,,,,,,,,,,no,none,none,no,f,20,R,yes,1,2020-09-07_11h08.21.418,kura-A2,2020.1.2,Win32,60,,,,,,,,,,,,,,,,,,,,,,,space,4.571255,
