key_resp.keys,key_resp.rt,practice_taps.keys,practice_taps.rt,keyresp.keys,keyresp.rt,practice_stims_loop.thisRepN,practice_stims_loop.thisTrialN,practice_stims_loop.thisN,practice_stims_loop.thisIndex,practice_stims_loop.ran,sndfile,type,tempo,cond,version,delay,dur,Participant Initials,"If you are a MTurk worker, what is your MTurk worker ID?","If you are not an MTurk worker, please provide your email address",Are you wearing headphones?,What are the headphone make and model?,"How many years of musical training, if any, do you have?",Do you have any hearing problems? Please describe,What is your sex (f/m/decline)?,What is your age?,What is your handedness (R/L/ambi)?,Are you currently in a secure and quiet room without a possible interruption?,session ,date,expName,psychopyVersion,OS,frameRate,instructions_prompt.keys,instructions_prompt.rt,block1_taps.keys,block1_taps.rt,key_resp_2.keys,key_resp_2.rt,trials.thisRepN,trials.thisTrialN,trials.thisN,trials.thisIndex,trials.ran,key_resp2.keys,key_resp2.rt,block2_taps.keys,block2_taps.rt,key_resp_3.keys,key_resp_3.rt,trials_2.thisRepN,trials_2.thisTrialN,trials_2.thisN,trials_2.thisIndex,trials_2.ran,key_resp_4.keys,key_resp_4.rt
space,9.98759,"[""space"",""space"",""space"",""space"",""space"",""space"",""space"",""space"",""space"",""space"",""space"",""space"",""space"",""space""]","[3.0354900000384077,3.4432699999888428,3.998040000034962,4.458825000037905,4.95511500001885,5.403035000024829,5.92324000003282,6.435304999991786,6.939364999998361,7.479440000024624,7.986774999997579,8.539519999991171,9.075175000005402,9.628305000020191]",space,2.361825,0.0,0.0,0.0,3.0,1.0,block_1/medium_t_119_4.wav,timbre,t,medium,119.0,1.752316959,11.57313329,,,,Yes,Koss KSC75,15,No,m,34,R,Yes,1,2020-09-13_16h50.25.586,kura-B2,2020.1.2,Win32,60,,,,,,,,,,,,,,,,,,,,,,,,
,,"[""space"",""space"",""space"",""space"",""space"",""space"",""space"",""space"",""space"",""space"",""space"",""space"",""space"",""space"",""space"",""space""]","[0.6170600000186823,1.784429999999702,2.769335000019055,3.768674999999348,4.40109499997925,5.409005000023171,6.336675000027753,7.217015000001993,8.120615000021644,9.040749999985565,10.017110000015236,11.049195000028703,12.089284999994561,13.027880000008736,13.93667500000447,15.113249999994878]",space,10.104045,0.0,1.0,1.0,0.0,1.0,block_2/none_n_92_3.wav,no,n,none,92.0,2.306164339,18.20620969,,,,Yes,Koss KSC75,15,No,m,34,R,Yes,1,2020-09-13_16h50.25.586,kura-B2,2020.1.2,Win32,60,,,,,,,,,,,,,,,,,,,,,,,,
,,"[""space"",""space"",""space"",""space"",""space"",""space"",""space"",""space"",""space"",""space"",""space"",""space"",""space"",""space"",""space"",""space"",""space""]","[0.43356999999377877,1.1851250000181608,2.1378200000035577,3.2170899999910034,4.305434999987483,5.04887499997858,5.425240000011399,5.8814300000085495,6.4012300000176765,6.881104999978561,7.417454999987967,7.937470000004396,8.473575000010896,8.962974999973085,9.473319999990053,10.012494999973569,10.585359999968205]",space,1.08432,0.0,2.0,2.0,2.0,1.0,block_2/weak_n_105_4.wav,no,n,weak,105.0,1.982674472,12.75578105,,,,Yes,Koss KSC75,15,No,m,34,R,Yes,1,2020-09-13_16h50.25.586,kura-B2,2020.1.2,Win32,60,,,,,,,,,,,,,,,,,,,,,,,,
,,"[""space"",""space"",""space"",""space"",""space"",""space"",""space"",""space"",""space"",""space"",""space"",""space"",""space"",""space"",""space"",""space""]","[0.5506349999923259,1.3241300000227056,1.940070000011474,2.5717750000185333,3.059705000021495,3.5403950000181794,3.9879949999740347,4.484330000006594,4.947924999985844,5.430935000011232,5.915900000021793,6.3476299999747425,6.830755000002682,7.300044999981765,7.707769999979064,8.155474999977741]",space,1.582775,0.0,3.0,3.0,1.0,1.0,block_2/medium_n_119_4.wav,no,n,medium,119.0,1.224634286,9.531709116,,,,Yes,Koss KSC75,15,No,m,34,R,Yes,1,2020-09-13_16h50.25.586,kura-B2,2020.1.2,Win32,60,,,,,,,,,,,,,,,,,,,,,,,,
,,,,,,,,,,,block_1/none_t_72_4.wav,timbre,t,none,72.0,1.772355542,25.47190203,,,,Yes,Koss KSC75,15,No,m,34,R,Yes,1,2020-09-13_16h50.25.586,kura-B2,2020.1.2,Win32,60,space,25.113255,"[""space"",""space"",""space"",""space"",""space"",""space"",""space"",""space"",""space"",""space"",""space"",""space"",""space"",""space"",""space"",""space"",""space"",""space"",""space"",""space"",""space"",""space"",""space"",""space"",""space"",""space"",""space"",""space"",""space"",""space"",""space""]","[0.6413849999662489,1.4178250000113621,2.0175450000097044,2.585389999963809,3.089349999965634,3.689279999991413,4.3478849999955855,5.009359999967273,5.849864999996498,6.489460000011604,7.08136499999091,7.801259999978356,8.482554999995045,9.217349999991711,9.897324999968987,10.705409999995027,11.52942500001518,12.426975000009406,13.21827499999199,14.126784999971278,14.961889999976847,15.769444999983534,16.74544500000775,18.009734999970533,18.929774999967776,19.54580999998143,20.273715000017546,21.04143500002101,21.8978149999748,22.761289999994915,23.593339999963064]",space,1.801775,0.0,0.0,0.0,15.0,1.0,,,,,,,,,,,,,
,,,,,,,,,,,block_1/medium_t_119_3.wav,timbre,t,medium,119.0,2.226222359,10.98477111,,,,Yes,Koss KSC75,15,No,m,34,R,Yes,1,2020-09-13_16h50.25.586,kura-B2,2020.1.2,Win32,60,,,"[""space"",""space"",""space"",""space"",""space"",""space"",""space"",""space"",""space"",""space"",""space"",""space"",""space"",""space"",""space"",""space"",""space"",""space"",""space""]","[0.32189000002108514,0.9540400000405498,1.369455000036396,1.874210000038147,2.349385000008624,2.7695350000285544,3.218395000032615,3.698465000023134,4.1149549999972805,4.569980000029318,5.017545000009704,5.4420699999900535,5.93061999999918,6.397080000024289,6.850039999990258,7.289565000042785,7.763355000002775,8.179575000016484,8.649455000006128]",space,1.45184,0.0,1.0,1.0,37.0,1.0,,,,,,,,,,,,,
,,,,,,,,,,,block_1/medium_t_81_4.wav,timbre,t,medium,81.0,1.136743646,13.9322992,,,,Yes,Koss KSC75,15,No,m,34,R,Yes,1,2020-09-13_16h50.25.586,kura-B2,2020.1.2,Win32,60,,,"[""space"",""space"",""space"",""space"",""space"",""space"",""space"",""space"",""space"",""space"",""space"",""space"",""space"",""space"",""space"",""space"",""space"",""space"",""space""]","[0.5360399999772198,1.2713050000020303,1.991219999967143,2.6992199999513105,3.3520450000069104,3.9152499999618158,4.515229999960866,5.199204999953508,5.823174999968614,6.497169999987818,7.192169999994803,7.896844999981113,8.575779999955557,9.223529999959283,9.83119999995688,10.487359999970067,11.195684999984223,11.799884999985807,12.479774999956135]",space,3.082935,0.0,2.0,2.0,2.0,1.0,,,,,,,,,,,,,
,,,,,,,,,,,block_1/none_t_119_3.wav,timbre,t,none,119.0,1.169893331,12.28885025,,,,Yes,Koss KSC75,15,No,m,34,R,Yes,1,2020-09-13_16h50.25.586,kura-B2,2020.1.2,Win32,60,,,"[""space"",""space"",""space"",""space"",""space"",""space"",""space"",""space"",""space"",""space"",""space"",""space"",""space"",""space"",""space"",""space"",""space"",""space"",""space"",""space"",""space"",""space"",""space""]","[0.2805200000293553,0.8550300000351854,1.3758300000336021,1.911034999997355,2.3510150000220165,2.8551149999839254,3.4070749999955297,3.9109349999926053,4.42341500002658,4.967620000010356,5.55950999999186,6.10366999998223,6.639295000000857,7.1603849999955855,7.546994999982417,8.063414999982342,8.454970000020694,8.913585000031162,9.36288999998942,9.87968000001274,10.31247499998426,10.778770000033546,11.223110000020824]",space,1.35354,0.0,3.0,3.0,32.0,1.0,,,,,,,,,,,,,
,,,,,,,,,,,block_1/medium_t_72_4.wav,timbre,t,medium,72.0,1.659874932,19.69733525,,,,Yes,Koss KSC75,15,No,m,34,R,Yes,1,2020-09-13_16h50.25.586,kura-B2,2020.1.2,Win32,60,,,"[""space"",""space"",""space"",""space"",""space"",""space"",""space"",""space"",""space"",""space"",""space"",""space"",""space"",""space"",""space"",""space"",""space"",""space"",""space"",""space""]","[0.5768649999517947,1.2169999999459833,2.201199999952223,3.265769999998156,4.2008249999489635,5.105174999975134,5.9694499999750406,6.872819999989588,7.801734999986365,8.697574999998324,9.563289999961853,10.428994999965653,11.336784999992233,12.304824999999255,13.161684999999125,14.04901499999687,14.993664999958128,15.952804999949876,16.83278999995673,17.737859999993816]",space,2.740915,0.0,4.0,4.0,36.0,1.0,,,,,,,,,,,,,
,,,,,,,,,,,block_1/strong_t_105_4.wav,timbre,t,strong,105.0,2.094581561,12.21235934,,,,Yes,Koss KSC75,15,No,m,34,R,Yes,1,2020-09-13_16h50.25.586,kura-B2,2020.1.2,Win32,60,,,"[""space"",""space"",""space"",""space"",""space"",""space"",""space"",""space"",""space"",""space"",""space"",""space"",""space"",""space"",""space"",""space"",""space"",""space"",""space"",""space""]","[0.5578100000275299,1.2853800000157207,1.83761000004597,2.3896550000063144,2.893625000026077,3.38972500001546,3.9016750000300817,4.3983400000142865,4.909810000041034,5.3898900000494905,5.885590000019874,6.349505000049248,6.869810000003781,7.3897800000268035,7.901600000041071,8.389635000028647,8.912765000015497,9.405530000047293,9.941945000027772,10.389755000011064]",space,2.72166,0.0,5.0,5.0,18.0,1.0,,,,,,,,,,,,,
,,,,,,,,,,,block_1/medium_t_105_3.wav,timbre,t,medium,105.0,1.131854181,11.90867958,,,,Yes,Koss KSC75,15,No,m,34,R,Yes,1,2020-09-13_16h50.25.586,kura-B2,2020.1.2,Win32,60,,,"[""space"",""space"",""space"",""space"",""space"",""space"",""space"",""space"",""space"",""space"",""space"",""space"",""space"",""space"",""space"",""space"",""space"",""space"",""space""]","[0.5612200000323355,1.2171800000360236,1.7531850000377744,2.283510000037495,2.857000000018161,3.4414300000062212,4.001250000030268,4.498970000015106,5.064955000008922,5.592815000039991,6.164489999995567,6.71461000002455,7.305530000012368,7.888860000006389,8.401089999999385,8.980195000011008,9.537699999986216,10.081035000039265,10.640970000007655]",space,1.117625,0.0,6.0,6.0,16.0,1.0,,,,,,,,,,,,,
,,,,,,,,,,,block_1/strong_t_105_3.wav,timbre,t,strong,105.0,1.518747526,13.05135524,,,,Yes,Koss KSC75,15,No,m,34,R,Yes,1,2020-09-13_16h50.25.586,kura-B2,2020.1.2,Win32,60,,,"[""space"",""space"",""space"",""space"",""space"",""space"",""space"",""space"",""space"",""space"",""space"",""space"",""space"",""space"",""space"",""space"",""space"",""space"",""space"",""space""]","[0.5770250000059605,1.2499800000223331,1.8834500000230037,2.499535000009928,3.0657800000044517,3.6566449999809265,4.249270000029355,4.840169999981299,5.44091499998467,6.000690000015311,6.632525000022724,7.192530000000261,7.7933349999948405,8.368590000027325,8.963655000028666,9.568925000028685,10.1207600000198,10.672959999996237,11.272724999987986,11.832360000000335]",space,1.48376,0.0,7.0,7.0,21.0,1.0,,,,,,,,,,,,,
,,,,,,,,,,,block_1/weak_t_81_4.wav,timbre,t,weak,81.0,2.31768599,15.5134683,,,,Yes,Koss KSC75,15,No,m,34,R,Yes,1,2020-09-13_16h50.25.586,kura-B2,2020.1.2,Win32,60,,,"[""space"",""space"",""space"",""space"",""space"",""space"",""space"",""space"",""space"",""space"",""space"",""space"",""space"",""space"",""space"",""space"",""space"",""space"",""space""]","[0.6615950000123121,1.6329700000351295,2.25343000004068,2.916880000033416,3.5990200000233017,4.173365000053309,4.864570000034291,5.581150000041816,6.214200000045821,6.853570000035688,7.5491150000016205,8.28540500003146,9.037085000018124,9.629270000034012,10.28510500001721,11.145015000016429,11.773035000020172,12.389955000020564,13.037215000018477]",space,6.34811,0.0,8.0,8.0,0.0,1.0,,,,,,,,,,,,,
,,,,,,,,,,,block_1/none_t_105_4.wav,timbre,t,none,105.0,1.782068205,15.59785052,,,,Yes,Koss KSC75,15,No,m,34,R,Yes,1,2020-09-13_16h50.25.586,kura-B2,2020.1.2,Win32,60,,,"[""space"",""space"",""space"",""space"",""space"",""space"",""space"",""space"",""space"",""space"",""space"",""space"",""space"",""space"",""space"",""space"",""space"",""space"",""space"",""space"",""space"",""space"",""space"",""space""]","[0.637250000028871,1.3897750000469387,2.0129799999995157,2.652795000001788,3.301270000054501,4.021365000051446,4.648550000041723,5.198560000048019,5.864765000005718,6.397540000034496,6.933070000028238,7.430835000006482,7.892840000044089,8.446779999998398,9.013090000022203,9.557365000015125,10.112580000015441,10.685385000018869,11.221409999998286,11.728820000018459,12.285415000049397,12.87788000004366,13.373240000044461,13.901275000011083]",space,1.49221,0.0,9.0,9.0,20.0,1.0,,,,,,,,,,,,,
,,,,,,,,,,,block_1/medium_t_119_4.wav,timbre,t,medium,119.0,1.399295551,11.22011188,,,,Yes,Koss KSC75,15,No,m,34,R,Yes,1,2020-09-13_16h50.25.586,kura-B2,2020.1.2,Win32,60,,,"[""space"",""space"",""space"",""space"",""space"",""space"",""space"",""space"",""space"",""space"",""space"",""space"",""space"",""space"",""space"",""space"",""space"",""space"",""space"",""space""]","[0.5365999999921769,1.136545000015758,1.6329350000014529,2.088770000031218,2.472775000031106,2.993075000005774,3.4570950000197627,3.95990499999607,4.424319999990985,4.948065000004135,5.448245000035968,5.968185000005178,6.4567600000300445,6.980505000043195,7.480645000003278,7.984709999989718,8.52025500003947,9.048620000015944,9.612599999993108,10.10431000002427]",space,0.88399,0.0,10.0,10.0,30.0,1.0,,,,,,,,,,,,,
,,,,,,,,,,,block_1/weak_t_105_3.wav,timbre,t,weak,105.0,2.038080476,13.26905553,,,,Yes,Koss KSC75,15,No,m,34,R,Yes,1,2020-09-13_16h50.25.586,kura-B2,2020.1.2,Win32,60,,,"[""space"",""space"",""space"",""space"",""space"",""space"",""space"",""space"",""space"",""space"",""space"",""space"",""space"",""space"",""space"",""space"",""space"",""space"",""space""]","[0.5842149999807589,1.1364550000289455,1.7837650000001304,2.3685699999914505,3.082575000007637,3.7360699999844655,4.331155000021681,4.824424999998882,5.3685699999914505,5.931555000017397,6.456130000005942,7.056470000010449,7.672640000004321,8.280540000007022,8.824064999993425,9.396119999990333,9.895925000018906,10.488475000020117,11.121050000016112]",space,1.466955,0.0,11.0,11.0,4.0,1.0,,,,,,,,,,,,,
,,,,,,,,,,,block_1/none_t_81_4.wav,timbre,t,none,81.0,1.802900323,17.84380735,,,,Yes,Koss KSC75,15,No,m,34,R,Yes,1,2020-09-13_16h50.25.586,kura-B2,2020.1.2,Win32,60,,,"[""space"",""space"",""space"",""space"",""space"",""space"",""space"",""space"",""space"",""space"",""space"",""space"",""space"",""space"",""space"",""space"",""space"",""space"",""space"",""space"",""space"",""space"",""space"",""space"",""space"",""space"",""space"",""space"",""space"",""space"",""space"",""space"",""space"",""space"",""space"",""space"",""space"",""space"",""space"",""space"",""space"",""space"",""space"",""space""]","[0.3293200000189245,0.8690950000309385,1.5370600000023842,2.0670150000369176,2.322020000021439,2.5298900000052527,2.769529999990482,3.018180000013672,3.32127000001492,3.6662450000294484,4.041584999999031,4.402014999999665,4.7157700000097975,5.090025000041351,5.433684999996331,5.7857500000391155,6.132704999996349,6.53114999999525,6.898719999997411,7.273715000017546,7.58572000003187,7.9381150000263005,8.321585000026971,8.69813500001328,9.065770000044722,9.409310000017285,9.78182500001276,10.12131000001682,10.46543500002008,10.866370000003371,11.249945000046864,11.633895000035409,11.969670000020415,12.329644999990705,12.689420000009704,13.073495000018738,13.417455000046175,13.78530500002671,14.185419999994338,14.529849999991711,14.89812000002712,15.25,15.60127000004286,16.001770000031684]",space,0.983795,0.0,12.0,12.0,12.0,1.0,,,,,,,,,,,,,
,,,,,,,,,,,block_1/weak_t_81_3.wav,timbre,t,weak,81.0,1.53156375,17.80117826,,,,Yes,Koss KSC75,15,No,m,34,R,Yes,1,2020-09-13_16h50.25.586,kura-B2,2020.1.2,Win32,60,,,"[""space"",""space"",""space"",""space"",""space"",""space"",""space"",""space"",""space"",""space"",""space"",""space"",""space"",""space"",""space"",""space"",""space"",""space"",""space"",""space"",""space"",""space"",""space"",""space"",""space"",""space"",""space""]","[0.2997499999473803,0.7708199999760836,1.4270649999962188,2.2191899999743327,2.932509999955073,3.634879999968689,4.331834999960847,4.971579999953974,5.627039999992121,6.290594999969471,7.0747799999662675,7.931204999971669,8.213879999995697,8.674769999983255,9.138615000003483,9.69866999995429,10.379474999965169,11.11513999995077,11.899244999978691,12.677754999953322,13.251044999982696,13.682624999957625,14.155104999954347,14.634559999976773,14.987484999990556,15.299239999963902,15.811199999996461]",space,1.20976,0.0,13.0,13.0,6.0,1.0,,,,,,,,,,,,,
,,,,,,,,,,,block_1/strong_t_81_4.wav,timbre,t,strong,81.0,1.870008989,16.22765071,,,,Yes,Koss KSC75,15,No,m,34,R,Yes,1,2020-09-13_16h50.25.586,kura-B2,2020.1.2,Win32,60,,,"[""space"",""space"",""space"",""space"",""space"",""space"",""space"",""space"",""space"",""space"",""space"",""space"",""space"",""space"",""space"",""space"",""space"",""space"",""space"",""space""]","[0.7450599999865517,1.7050649999873713,2.465874999994412,3.233524999988731,3.92087500001071,4.66619499999797,5.361314999987371,6.133030000026338,6.801005000015721,7.5377149999840185,8.385825000004843,8.99645999999484,9.737034999998286,10.456750000012107,11.19716999999946,11.92135000001872,12.632949999999255,13.444394999998622,14.097294999985024,14.827820000005886]",space,0.992055,0.0,14.0,14.0,34.0,1.0,,,,,,,,,,,,,
,,,,,,,,,,,block_1/medium_t_72_3.wav,timbre,t,medium,72.0,2.203768917,18.98399567,,,,Yes,Koss KSC75,15,No,m,34,R,Yes,1,2020-09-13_16h50.25.586,kura-B2,2020.1.2,Win32,60,,,"[""space"",""space"",""space"",""space"",""space"",""space"",""space"",""space"",""space"",""space"",""space"",""space"",""space"",""space"",""space"",""space"",""space"",""space"",""space"",""space""]","[0.27318999997805804,0.7687699999660254,1.7129100000020117,2.576989999972284,3.5213199999998324,4.360604999994393,5.184729999979027,6.073525000014342,6.969074999971781,7.809175000002142,8.689245000015944,9.579964999982622,10.384465000010096,11.265054999967106,12.185074999986682,12.984965000010561,13.81319999997504,14.680584999965504,15.561069999996107,16.459819999989122]",space,1.360875,0.0,15.0,15.0,31.0,1.0,,,,,,,,,,,,,
,,,,,,,,,,,block_1/strong_t_81_3.wav,timbre,t,strong,81.0,2.437587677,17.65296183,,,,Yes,Koss KSC75,15,No,m,34,R,Yes,1,2020-09-13_16h50.25.586,kura-B2,2020.1.2,Win32,60,,,"[""space"",""space"",""space"",""space"",""space"",""space"",""space"",""space"",""space"",""space"",""space"",""space"",""space"",""space"",""space"",""space"",""space"",""space"",""space"",""space"",""space""]","[0.38728500000433996,1.051854999968782,1.8520649999845773,2.5793899999698624,3.323394999955781,4.0600399999530055,4.8510999999707565,5.611455000005662,6.364769999985583,7.155134999949951,7.939729999983683,8.675854999979492,9.467729999974836,10.22974499996053,11.062195000005886,11.78768999996828,12.49945999996271,13.331784999987576,14.094660000002477,14.835519999964163,15.635199999960605]",space,1.86524,0.0,16.0,16.0,24.0,1.0,,,,,,,,,,,,,
,,,,,,,,,,,block_1/weak_t_119_4.wav,timbre,t,weak,119.0,1.438381355,12.04736095,,,,Yes,Koss KSC75,15,No,m,34,R,Yes,1,2020-09-13_16h50.25.586,kura-B2,2020.1.2,Win32,60,,,"[""space"",""space"",""space"",""space"",""space"",""space"",""space"",""space"",""space"",""space"",""space"",""space"",""space"",""space"",""space"",""space"",""space"",""space"",""space"",""space"",""space"",""space"",""space""]","[0.30171500000869855,0.7733749999897555,1.2691300000296906,1.6777100000181235,2.165945000015199,2.636980000010226,3.06982000003336,3.6056700000190176,4.077820000005886,4.415165000013076,4.892850000003818,5.301435000030324,5.757660000002943,6.157769999990705,6.652954999997746,7.181779999984428,7.669270000013057,8.17311500001233,8.725659999996424,9.2373399999924,9.781394999998156,10.318469999998342,10.86288999998942]",space,1.18379,0.0,17.0,17.0,11.0,1.0,,,,,,,,,,,,,
,,,,,,,,,,,block_1/medium_t_81_3.wav,timbre,t,medium,81.0,1.352794873,13.94617356,,,,Yes,Koss KSC75,15,No,m,34,R,Yes,1,2020-09-13_16h50.25.586,kura-B2,2020.1.2,Win32,60,,,"[""space"",""space"",""space"",""space"",""space"",""space"",""space"",""space"",""space"",""space"",""space"",""space"",""space"",""space"",""space"",""space"",""space"",""space"",""space"",""space""]","[0.2691200000117533,0.8044900000095367,1.33418000000529,2.0445349999936298,2.6921849999926053,3.3331149999867193,3.987829999998212,4.676500000001397,5.308689999976195,5.972490000014659,6.6207549999817275,7.299735000007786,7.932459999981802,8.556080000009388,9.204295000003185,9.80457999999635,10.468829999968875,11.148604999994859,11.796444999985397,12.43658499995945]",space,1.01952,0.0,18.0,18.0,8.0,1.0,,,,,,,,,,,,,
,,,,,,,,,,,block_1/weak_t_92_4.wav,timbre,t,weak,92.0,1.530875014,13.01332399,,,,Yes,Koss KSC75,15,No,m,34,R,Yes,1,2020-09-13_16h50.25.586,kura-B2,2020.1.2,Win32,60,,,"[""space"",""space"",""space"",""space"",""space"",""space"",""space"",""space"",""space"",""space"",""space"",""space"",""space"",""space"",""space"",""space"",""space"",""space"",""space"",""space""]","[0.27192500000819564,0.7917400000151247,1.4562000000150874,2.0002199999871664,2.535730000003241,3.082720000005793,3.6395699999993667,4.207899999979418,4.8163649999769405,5.415934999997262,5.951869999989867,6.567110000003595,7.1203199999872595,7.746775000006892,8.296794999972917,8.93603499996243,9.487749999971129,10.071924999996554,10.703645000001416,11.287375000014435]",space,1.35635,0.0,19.0,19.0,29.0,1.0,,,,,,,,,,,,,
,,,,,,,,,,,block_1/medium_t_92_4.wav,timbre,t,medium,92.0,1.590939721,14.58753836,,,,Yes,Koss KSC75,15,No,m,34,R,Yes,1,2020-09-13_16h50.25.586,kura-B2,2020.1.2,Win32,60,,,"[""space"",""space"",""space"",""space"",""space"",""space"",""space"",""space"",""space"",""space"",""space"",""space"",""space"",""space"",""space"",""space"",""space"",""space"",""space"",""space""]","[0.31121499999426305,0.6956150000332855,1.3516350000281818,2.039710000040941,2.7279599999892525,3.4657700000097975,4.0983950000372715,4.759989999991376,5.38359500002116,6.099655000027269,6.808015000016894,7.455690000031609,8.103884999989532,8.76451500004623,9.431520000041928,10.13566999998875,10.791440000000875,11.479790000012144,12.120029999990948,12.799709999992047]",space,1.19068,0.0,20.0,20.0,25.0,1.0,,,,,,,,,,,,,
,,,,,,,,,,,block_1/strong_t_72_4.wav,timbre,t,strong,72.0,1.194355845,16.3115894,,,,Yes,Koss KSC75,15,No,m,34,R,Yes,1,2020-09-13_16h50.25.586,kura-B2,2020.1.2,Win32,60,,,"[""space"",""space"",""space"",""space"",""space"",""space"",""space"",""space"",""space"",""space"",""space"",""space"",""space"",""space"",""space"",""space"",""space"",""space"",""space"",""space""]","[0.7206600000499748,1.2728900000220165,2.193245000031311,3.0241099999984726,3.7849150000256486,4.608900000050198,5.353175000054762,6.152685000037309,6.953090000024531,7.748215000028722,8.552740000013728,9.305180000024848,10.073285000049509,10.880960000038613,11.648565000039525,12.448660000052769,13.256510000035632,14.088975000020582,14.813255000044592,15.5939500000095]",space,2.592985,0.0,21.0,21.0,1.0,1.0,,,,,,,,,,,,,
,,,,,,,,,,,block_1/weak_t_105_4.wav,timbre,t,weak,105.0,1.882880114,13.41285744,,,,Yes,Koss KSC75,15,No,m,34,R,Yes,1,2020-09-13_16h50.25.586,kura-B2,2020.1.2,Win32,60,,,"[""space"",""space"",""space"",""space"",""space"",""space"",""space"",""space"",""space"",""space"",""space"",""space"",""space"",""space"",""space"",""space"",""space"",""space"",""space"",""space""]","[0.3203300000168383,0.9208349999971688,1.488565000006929,2.105069999990519,2.7159199999878183,3.28251500002807,3.832939999992959,4.392685000027996,4.888480000023264,5.440835000015795,5.985205000033602,6.568495000014082,7.1366350000025705,7.737360000028275,8.320999999996275,8.929884999990463,9.481030000024475,10.088470000016969,10.664905000012368,11.249115000013262]",space,0.734675,0.0,22.0,22.0,7.0,1.0,,,,,,,,,,,,,
,,,,,,,,,,,block_1/strong_t_119_4.wav,timbre,t,strong,119.0,1.237037075,11.10492823,,,,Yes,Koss KSC75,15,No,m,34,R,Yes,1,2020-09-13_16h50.25.586,kura-B2,2020.1.2,Win32,60,,,"[""space"",""space"",""space"",""space"",""space"",""space"",""space"",""space"",""space"",""space"",""space"",""space"",""space"",""space"",""space"",""space"",""space"",""space"",""space"",""space""]","[0.6566899999743327,1.056369999947492,1.5525749999796972,2.0798849999555387,2.576574999955483,3.084504999977071,3.5923449999536388,4.103979999956209,4.624409999989439,5.098749999946449,5.599999999976717,6.127999999967869,6.632539999962319,7.132289999979548,7.623939999961294,8.14407499996014,8.624399999971502,9.132264999963809,9.656169999972917,10.152409999980591]",space,2.134445,0.0,23.0,23.0,39.0,1.0,,,,,,,,,,,,,
,,,,,,,,,,,block_1/weak_t_72_4.wav,timbre,t,weak,72.0,1.01386198,17.48964429,,,,Yes,Koss KSC75,15,No,m,34,R,Yes,1,2020-09-13_16h50.25.586,kura-B2,2020.1.2,Win32,60,,,"[""space"",""space"",""space"",""space"",""space"",""space"",""space"",""space"",""space"",""space"",""space"",""space"",""space"",""space"",""space"",""space"",""space"",""space"",""space"",""space""]","[0.33890500001143664,0.8035450000315905,1.7077450000215322,2.6917399999802,3.619795000005979,4.4598100000293925,5.251830000022892,6.139575000037439,6.980625000025611,7.848579999990761,8.699605000030715,9.602950000029523,10.467044999997597,11.235065000015311,12.067429999995511,12.878154999983963,13.819759999983944,14.699819999979809,15.595470000000205,16.444250000000466]",space,0.853535,0.0,24.0,24.0,33.0,1.0,,,,,,,,,,,,,
,,,,,,,,,,,block_1/strong_t_92_4.wav,timbre,t,strong,92.0,1.022726917,13.26377,,,,Yes,Koss KSC75,15,No,m,34,R,Yes,1,2020-09-13_16h50.25.586,kura-B2,2020.1.2,Win32,60,,,"[""space"",""space"",""space"",""space"",""space"",""space"",""space"",""space"",""space"",""space"",""space"",""space"",""space"",""space"",""space"",""space"",""space"",""space"",""space"",""space""]","[0.6444049999699928,1.2523400000063702,1.8366099999984726,2.4842249999637716,3.108529999968596,3.7409200000111014,4.381935000012163,5.032169999962207,5.676945000013802,6.26958999998169,6.885109999973793,7.540594999969471,8.164794999989681,8.79839000001084,9.413850000011735,10.081460000015795,10.701239999965765,11.348300000012387,11.972644999972545,12.573349999962375]",space,1.74252,0.0,25.0,25.0,9.0,1.0,,,,,,,,,,,,,
,,,,,,,,,,,block_1/none_t_119_4.wav,timbre,t,none,119.0,1.977931805,11.04042614,,,,Yes,Koss KSC75,15,No,m,34,R,Yes,1,2020-09-13_16h50.25.586,kura-B2,2020.1.2,Win32,60,,,"[""space"",""space"",""space"",""space"",""space"",""space"",""space"",""space"",""space"",""space"",""space"",""space"",""space"",""space"",""space"",""space"",""space"",""space"",""space"",""space"",""space"",""space""]","[0.32545499998377636,0.8931299999821931,1.3256449999753386,1.7572700000018813,2.2055399999953806,2.654225000005681,3.077404999989085,3.5014099999680184,3.917409999994561,4.325349999999162,4.7174099999829195,5.093539999972563,5.493414999975357,5.849699999962468,6.237469999992754,6.648114999989048,7.031144999957178,7.453564999974333,7.863819999969564,8.300539999967441,8.75732999999309,9.19761999999173]",space,2.76631,0.0,26.0,26.0,27.0,1.0,,,,,,,,,,,,,
,,,,,,,,,,,block_1/none_t_105_3.wav,timbre,t,none,105.0,2.248615294,16.06934092,,,,Yes,Koss KSC75,15,No,m,34,R,Yes,1,2020-09-13_16h50.25.586,kura-B2,2020.1.2,Win32,60,,,"[""space"",""space"",""space"",""space"",""space"",""space"",""space"",""space"",""space"",""space"",""space"",""space"",""space"",""space"",""space"",""space"",""space"",""space"",""space"",""space"",""space"",""space"",""space"",""space"",""space""]","[0.22473499999614432,0.7372200000099838,1.409354999952484,1.9445799999521114,2.472554999985732,3.088739999977406,3.6089349999674596,4.16148000000976,4.731774999992922,5.265465000004042,5.84878999995999,6.3849000000045635,6.91372999997111,7.449239999987185,8.001454999961425,8.521119999990333,9.041404999967199,9.681424999958836,10.272784999979194,10.816624999977648,11.368829999992158,11.896719999960624,12.45708999998169,13.056764999986626,13.64079999999376]",space,1.939555,0.0,27.0,27.0,14.0,1.0,,,,,,,,,,,,,
,,,,,,,,,,,block_1/strong_t_119_3.wav,timbre,t,strong,119.0,1.722630655,12.55029505,,,,Yes,Koss KSC75,15,No,m,34,R,Yes,1,2020-09-13_16h50.25.586,kura-B2,2020.1.2,Win32,60,,,"[""space"",""space"",""space"",""space"",""space"",""space"",""space"",""space"",""space"",""space"",""space"",""space"",""space"",""space"",""space"",""space"",""space"",""space"",""space"",""space""]","[0.533835000009276,1.117435000021942,1.660600000002887,2.1998100000200793,2.766170000017155,3.3330449999775738,3.9005699999979697,4.436965000000782,5.004644999979064,5.565025000018068,6.124810000008438,6.684505000011995,7.252845000009984,7.82034500001464,8.348415000014938,8.924845000030473,9.493004999996629,10.06477499997709,10.62104499997804,11.140765000018291]",space,2.12262,0.0,28.0,28.0,28.0,1.0,,,,,,,,,,,,,
,,,,,,,,,,,block_1/none_t_92_4.wav,timbre,t,none,92.0,2.400883628,17.24192671,,,,Yes,Koss KSC75,15,No,m,34,R,Yes,1,2020-09-13_16h50.25.586,kura-B2,2020.1.2,Win32,60,,,"[""space"",""space"",""space"",""space"",""space"",""space"",""space"",""space"",""space"",""space"",""space"",""space"",""space"",""space"",""space"",""space"",""space"",""space"",""space"",""space"",""space"",""space"",""space"",""space"",""space"",""space""]","[0.31241499999305233,0.7048300000024028,1.1688800000119954,1.6848899999749847,2.3525599999702536,3.04047000000719,3.704830000002403,4.368379999999888,4.792509999999311,5.3046749999630265,5.904594999970868,6.360790000006091,6.736180000007153,7.1926300000050105,7.9470499999588355,8.513409999955911,9.27260500000557,9.76824000000488,10.440429999958724,11.008594999962952,11.784639999968931,12.480530000000726,13.072415000002366,13.800899999972899,14.400424999999814,14.995114999997895]",space,1.217275,0.0,29.0,29.0,22.0,1.0,,,,,,,,,,,,,
,,,,,,,,,,,block_1/weak_t_92_3.wav,timbre,t,weak,92.0,1.190820523,16.55263458,,,,Yes,Koss KSC75,15,No,m,34,R,Yes,1,2020-09-13_16h50.25.586,kura-B2,2020.1.2,Win32,60,,,"[""space"",""space"",""space"",""space"",""space"",""space"",""space"",""space"",""space"",""space"",""space"",""space"",""space"",""space"",""space"",""space"",""space"",""space"",""space"",""space""]","[0.3673699999926612,0.8351799999945797,1.56738000002224,2.234610000043176,3.0786800000350922,4.022775000019465,5.0074599999934435,5.899200000043493,6.622429999988526,7.438825000019278,8.174540000036359,8.847204999998212,9.582820000010543,10.33094000001438,11.22288000001572,11.928220000001602,12.67892000003485,13.430595000041649,14.230890000006184,15.01507500000298]",space,0.66713,0.0,30.0,30.0,38.0,1.0,,,,,,,,,,,,,
,,,,,,,,,,,block_1/medium_t_92_3.wav,timbre,t,medium,92.0,2.360774731,14.34626226,,,,Yes,Koss KSC75,15,No,m,34,R,Yes,1,2020-09-13_16h50.25.586,kura-B2,2020.1.2,Win32,60,,,"[""space"",""space"",""space"",""space"",""space"",""space"",""space"",""space"",""space"",""space"",""space"",""space"",""space"",""space"",""space"",""space"",""space"",""space"",""space""]","[0.8358599999919534,1.4558349999715574,2.0518150000134483,2.651290000008885,3.2825249999877997,3.8662849999964237,4.484034999972209,5.071835000009742,5.7363100000075065,6.335544999979902,6.967449999996461,7.591744999983348,8.183934999979101,8.799919999961276,9.383734999981243,10.031840000010561,10.583984999975655,11.175249999971129,11.763930000015534]",space,2.08134,0.0,31.0,31.0,35.0,1.0,,,,,,,,,,,,,
,,,,,,,,,,,block_1/weak_t_119_3.wav,timbre,t,weak,119.0,1.729530605,11.14109523,,,,Yes,Koss KSC75,15,No,m,34,R,Yes,1,2020-09-13_16h50.25.586,kura-B2,2020.1.2,Win32,60,,,"[""space"",""space"",""space"",""space"",""space"",""space"",""space"",""space"",""space"",""space"",""space"",""space"",""space"",""space"",""space"",""space"",""space"",""space"",""space"",""space"",""space""]","[0.24087999999755993,0.8409450000035577,1.4013799999956973,1.8851450000074692,2.6248300000443123,3.040980000048876,3.384180000051856,3.7368200000491925,4.152455000032205,4.504565000010189,4.93164500000421,5.416605000034906,5.969070000050124,6.416430000041146,6.792524999997113,7.224480000033509,7.6725850000511855,8.192559999995865,8.681225000007544,9.181559999997262,9.640980000025593]",space,1.030995,0.0,32.0,32.0,13.0,1.0,,,,,,,,,,,,,
,,,,,,,,,,,block_1/medium_t_105_4.wav,timbre,t,medium,105.0,2.498438995,14.23458412,,,,Yes,Koss KSC75,15,No,m,34,R,Yes,1,2020-09-13_16h50.25.586,kura-B2,2020.1.2,Win32,60,,,"[""space"",""space"",""space"",""space"",""space"",""space"",""space"",""space"",""space"",""space"",""space"",""space"",""space"",""space"",""space"",""space"",""space"",""space"",""space"",""space""]","[0.2675399999716319,0.6912700000102632,1.2189650000073016,1.7554399999789894,2.3792399999802,2.987410000001546,3.6274950000224635,4.203174999973271,4.803220000001602,5.458760000008624,6.075300000025891,6.731665000028443,7.323210000002291,7.907394999987446,8.514789999986533,9.139214999973774,9.738584999984596,10.290789999999106,10.914954999985639,11.47518000000855]",space,0.665755,0.0,33.0,33.0,23.0,1.0,,,,,,,,,,,,,
,,,,,,,,,,,block_1/weak_t_72_3.wav,timbre,t,weak,72.0,1.571303333,17.03996546,,,,Yes,Koss KSC75,15,No,m,34,R,Yes,1,2020-09-13_16h50.25.586,kura-B2,2020.1.2,Win32,60,,,"[""space"",""space"",""space"",""space"",""space"",""space"",""space"",""space"",""space"",""space"",""space"",""space"",""space"",""space"",""space"",""space"",""space"",""space"",""space"",""space""]","[0.29651499999454245,0.7116150000365451,1.4959600000292994,2.183865000028163,3.1199699999997392,4.007435000035912,4.767995000001974,5.591650000016671,6.336249999993015,7.104040000005625,7.903555000026245,8.6883150000358,9.496645000006538,10.296154999989085,11.147549999994226,11.983524999988731,12.778570000024047,13.596285000036005,14.287865000020247,15.079414999985602]",space,0.70748,0.0,34.0,34.0,26.0,1.0,,,,,,,,,,,,,
,,,,,,,,,,,block_1/none_t_81_3.wav,timbre,t,none,81.0,2.10326082,21.36648077,,,,Yes,Koss KSC75,15,No,m,34,R,Yes,1,2020-09-13_16h50.25.586,kura-B2,2020.1.2,Win32,60,,,"[""space"",""space"",""space"",""space"",""space"",""space"",""space"",""space"",""space"",""space"",""space"",""space"",""space"",""space"",""space"",""space"",""space"",""space"",""space"",""space"",""space"",""space"",""space"",""space"",""space"",""space"",""space"",""space"",""space"",""space""]","[0.2785349999903701,0.8697150000371039,1.5020150000345893,2.6177000000025146,3.2624349999823608,3.9421750000328757,4.910254999995232,5.582204999984242,6.142210000019986,6.6858549999888055,7.382190000033006,8.064439999987371,8.749859999981709,9.479775000014342,10.198115000035614,10.885665000008885,11.757905000005849,12.590185000037309,13.365860000019893,14.014460000034887,14.678090000001248,15.597775000031106,16.317740000027698,16.765955000009853,17.246289999980945,17.55922500003362,17.838415000005625,18.14994500001194,18.526255000033416,19.165855000028387]",space,1.127075,0.0,35.0,35.0,10.0,1.0,,,,,,,,,,,,,
,,,,,,,,,,,block_1/none_t_92_3.wav,timbre,t,none,92.0,1.813425609,13.88349364,,,,Yes,Koss KSC75,15,No,m,34,R,Yes,1,2020-09-13_16h50.25.586,kura-B2,2020.1.2,Win32,60,,,"[""space"",""space"",""space"",""space"",""space"",""space"",""space"",""space"",""space"",""space"",""space"",""space"",""space"",""space"",""space"",""space"",""space"",""space"",""space"",""space"",""space"",""space"",""space"",""space"",""space"",""space"",""space"",""space"",""space"",""space"",""space"",""space"",""space"",""space"",""space"",""space""]","[0.23585499997716397,0.7079249999951571,0.9884399999864399,1.3561650000046939,1.6198399999993853,1.8125899999868125,1.9843499999842606,2.1724249999970198,2.4361449999851175,2.6043949999730103,2.8288750000065193,3.05988499999512,3.300509999971837,3.616969999973662,3.8841600000159815,4.1819200000027195,4.620004999975208,4.98843999998644,5.381485000019893,5.756179999967571,6.236095000000205,6.65218500001356,7.084365000016987,7.476305000018328,7.86480500001926,8.332285000011325,8.756349999981467,9.07633499999065,9.356114999973215,9.724619999993593,10.10872499999823,10.495379999978468,10.812659999995958,11.332460000005085,11.835565000015777,12.236419999971986]",space,0.66137,0.0,36.0,36.0,17.0,1.0,,,,,,,,,,,,,
,,,,,,,,,,,block_1/strong_t_72_3.wav,timbre,t,strong,72.0,1.503157527,17.98057249,,,,Yes,Koss KSC75,15,No,m,34,R,Yes,1,2020-09-13_16h50.25.586,kura-B2,2020.1.2,Win32,60,,,"[""space"",""space"",""space"",""space"",""space"",""space"",""space"",""space"",""space"",""space"",""space"",""space"",""space"",""space"",""space"",""space"",""space"",""space"",""space"",""space"",""space""]","[0.2505150000215508,0.7206749999895692,1.745134999975562,2.609394999977667,3.5053550000302494,4.345354999997653,5.21720000001369,5.985195000015665,6.833579999976791,7.673255000030622,8.530344999977387,9.381590000004508,10.249115000013262,11.06449000001885,11.913215000007767,12.745929999975488,13.612859999993816,14.43308500002604,15.369324999977835,16.104579999984708,16.969389999983832]",space,1.024355,0.0,37.0,37.0,5.0,1.0,,,,,,,,,,,,,
,,,,,,,,,,,block_1/none_t_72_3.wav,timbre,t,none,72.0,1.707698408,21.90234693,,,,Yes,Koss KSC75,15,No,m,34,R,Yes,1,2020-09-13_16h50.25.586,kura-B2,2020.1.2,Win32,60,,,"[""space"",""space"",""space"",""space"",""space"",""space"",""space"",""space"",""space"",""space"",""space"",""space"",""space"",""space"",""space"",""space"",""space"",""space"",""space"",""space"",""space"",""space"",""space"",""space"",""space"",""space"",""space"",""space"",""space"",""space"",""space"",""space"",""space"",""space"",""space"",""space"",""space"",""space"",""space"",""space"",""space"",""space""]","[0.24550999997882172,0.6782050000037998,1.0853800000040792,1.5100949999759905,1.989324999973178,2.5667799999937415,3.070045000000391,3.583199999993667,4.125484999967739,4.654289999976754,5.133984999964014,5.637944999965839,6.266409999981988,6.680799999972805,7.030689999985043,7.406235000002198,7.853974999976344,8.26376000000164,8.782309999980498,9.230370000004768,9.565799999982119,9.950049999984913,10.542229999962728,10.981655000010505,11.413944999978412,11.901934999972582,12.33428000001004,12.65443499997491,13.16571999998996,13.582224999961909,14.128229999972973,14.534019999962766,15.145434999954887,15.637954999983776,16.13401999999769,16.830379999999423,17.39755499997409,18.029804999998305,18.61394999996992,19.193874999997206,19.749964999966323,20.166039999981876]",space,3.473895,0.0,38.0,38.0,19.0,1.0,,,,,,,,,,,,,
,,,,,,,,,,,block_1/strong_t_92_3.wav,timbre,t,strong,92.0,1.987733848,15.03440052,,,,Yes,Koss KSC75,15,No,m,34,R,Yes,1,2020-09-13_16h50.25.586,kura-B2,2020.1.2,Win32,60,,,"[""space"",""space"",""space"",""space"",""space"",""space"",""space"",""space"",""space"",""space"",""space"",""space"",""space"",""space"",""space"",""space"",""space"",""space"",""space"",""space"",""space""]","[0.24283000000286847,0.8265899999532849,1.4187099999981,2.0832899999804795,2.770989999989979,3.4191049999790266,4.0511149999802,4.731999999959953,5.3833449999801815,6.058604999969248,6.738864999962971,7.399074999964796,8.059299999964423,8.699039999977686,9.402824999997392,10.047269999980927,10.722674999968149,11.395419999957085,12.04623499995796,12.739194999972824,13.411714999994729]",space,0.68215,0.0,39.0,39.0,3.0,1.0,,,,,,,,,,,,,
,,,,,,,,,,,block_2/medium_n_92_4.wav,no,n,medium,92.0,1.021723279,13.61201806,,,,Yes,Koss KSC75,15,No,m,34,R,Yes,1,2020-09-13_16h50.25.586,kura-B2,2020.1.2,Win32,60,,,,,,,,,,,,space,84.11718,"[""space"",""space"",""space"",""space"",""space"",""space"",""space"",""space"",""space"",""space"",""space"",""space"",""space"",""space"",""space"",""space"",""space"",""space"",""space"",""space""]","[0.9331050000037067,1.315969999996014,1.922339999990072,2.602024999971036,3.2425700000021607,3.8419400000129826,4.506070000003092,5.154014999978244,5.786149999999907,6.413315000012517,7.042324999987613,7.66602000000421,8.290380000020377,8.890394999994896,9.554594999994151,10.246574999997392,10.866425000014715,11.482610000006389,12.114334999991115,12.737955000018701]",space,0.928225,0.0,0.0,0.0,11.0,1.0,,
,,,,,,,,,,,block_2/weak_n_105_4.wav,no,n,weak,105.0,1.277365727,12.0504723,,,,Yes,Koss KSC75,15,No,m,34,R,Yes,1,2020-09-13_16h50.25.586,kura-B2,2020.1.2,Win32,60,,,,,,,,,,,,,,"[""space"",""space"",""space"",""space"",""space"",""space"",""space"",""space"",""space"",""space"",""space"",""space"",""space"",""space"",""space"",""space"",""space"",""space"",""space"",""space"",""space""]","[0.26896499999566004,0.7045600000419654,1.1605299999937415,1.5446050000027753,2.032950000022538,2.5759149999939837,3.1762200000230223,3.7528499999898486,4.317039999994449,4.881984999985434,5.416395000007469,5.9038650000002235,6.424534999998286,6.920280000020284,7.4327850000117905,7.932075000018813,8.448420000029728,8.976250000006985,9.488315000024159,10.032085000013467,10.564470000041183]",space,0.933325,0.0,1.0,1.0,28.0,1.0,,
,,,,,,,,,,,block_2/medium_n_81_4.wav,no,n,medium,81.0,1.594727623,16.1032537,,,,Yes,Koss KSC75,15,No,m,34,R,Yes,1,2020-09-13_16h50.25.586,kura-B2,2020.1.2,Win32,60,,,,,,,,,,,,,,"[""space"",""space"",""space"",""space"",""space"",""space"",""space"",""space"",""space"",""space"",""space"",""space"",""space"",""space"",""space"",""space"",""space"",""space"",""space"",""space""]","[0.32762500003445894,0.8187350000371225,1.5913300000247546,2.3912600000039674,3.150965000037104,3.823514999996405,4.574635000026319,5.342715000035241,6.0828050000127405,6.807170000043698,7.54271000000881,8.190700000035577,8.951305000053253,9.671610000019427,10.464115000038873,11.26302500005113,11.950965000025462,12.712035000033211,13.45504000002984,14.198795000032987]",space,2.487785,0.0,2.0,2.0,38.0,1.0,,
,,,,,,,,,,,block_2/strong_n_105_3.wav,no,n,strong,105.0,2.095458379,13.32602527,,,,Yes,Koss KSC75,15,No,m,34,R,Yes,1,2020-09-13_16h50.25.586,kura-B2,2020.1.2,Win32,60,,,,,,,,,,,,,,"[""space"",""space"",""space"",""space"",""space"",""space"",""space"",""space"",""space"",""space"",""space"",""space"",""space"",""space"",""space"",""space"",""space"",""space"",""space"",""space"",""space""]","[0.32471000001532957,0.7885200000018813,1.1957800000091083,1.7881899999920279,2.366435000032652,2.9661900000064634,3.5083400000003166,4.092095000029076,4.632745000009891,5.259995000029448,5.819989999989048,6.35586000001058,6.981450000021141,7.564465000003111,8.124330000020564,8.716320000006817,9.283519999997225,9.829789999988861,10.44517000002088,11.012805000005756,11.571525000035763]",space,0.48414,0.0,3.0,3.0,9.0,1.0,,
,,,,,,,,,,,block_2/medium_n_92_3.wav,no,n,medium,92.0,2.163023573,13.84869251,,,,Yes,Koss KSC75,15,No,m,34,R,Yes,1,2020-09-13_16h50.25.586,kura-B2,2020.1.2,Win32,60,,,,,,,,,,,,,,"[""space"",""space"",""space"",""space"",""space"",""space"",""space"",""space"",""space"",""space"",""space"",""space"",""space"",""space"",""space"",""space"",""space"",""space"",""space"",""space""]","[0.30079499998828396,0.6842600000090897,1.1559699999634176,1.7003350000013597,2.2999849999905564,2.8517049999791197,3.4998999999952503,4.124209999979939,4.73978999996325,5.339395000017248,5.948559999989811,6.532070000015665,7.180744999961462,7.7966250000172295,8.419424999970943,9.003670000005513,9.613115000014659,10.264105000009295,10.864224999968428,11.446094999962952]",space,0.91767,0.0,4.0,4.0,2.0,1.0,,
,,,,,,,,,,,block_2/strong_n_72_3.wav,no,n,strong,72.0,2.337906276,17.4032124,,,,Yes,Koss KSC75,15,No,m,34,R,Yes,1,2020-09-13_16h50.25.586,kura-B2,2020.1.2,Win32,60,,,,,,,,,,,,,,"[""space"",""space"",""space"",""space"",""space"",""space"",""space"",""space"",""space"",""space"",""space"",""space"",""space"",""space"",""space"",""space"",""space"",""space"",""space"",""space"",""space""]","[0.3182599999709055,0.8020099999848753,1.5997549999738112,2.373810000019148,3.1585199999972247,3.902155000017956,4.6936299999943,5.4498400000156835,6.253945000004023,7.030940000026021,7.863260000012815,8.54236000002129,9.317809999978635,10.030274999968242,10.86268999997992,11.613884999998845,12.413539999979548,13.166209999995772,13.933750000025611,14.750289999996312,15.533969999989495]",space,0.74878,0.0,5.0,5.0,32.0,1.0,,
,,,,,,,,,,,block_2/weak_n_119_3.wav,no,n,weak,119.0,1.689359171,10.04573105,,,,Yes,Koss KSC75,15,No,m,34,R,Yes,1,2020-09-13_16h50.25.586,kura-B2,2020.1.2,Win32,60,,,,,,,,,,,,,,"[""space"",""space"",""space"",""space"",""space"",""space"",""space"",""space"",""space"",""space"",""space"",""space"",""space"",""space"",""space"",""space"",""space"",""space"",""space"",""space""]","[0.27661000000080094,0.7509699999936856,1.3405449999845587,1.750049999973271,2.185089999984484,2.6047599999583326,3.0205149999819696,3.452274999988731,3.9329649999854155,4.349125000007916,4.732725000008941,5.132689999998547,5.549544999958016,5.998495000007097,6.420860000012908,6.860149999964051,7.3006099999765866,7.76524999999674,8.19690499996068,8.653104999975767]",space,1.0666,0.0,6.0,6.0,37.0,1.0,,
,,,,,,,,,,,block_2/none_n_119_4.wav,no,n,none,119.0,1.538189981,14.89986799,,,,Yes,Koss KSC75,15,No,m,34,R,Yes,1,2020-09-13_16h50.25.586,kura-B2,2020.1.2,Win32,60,,,,,,,,,,,,,,"[""space"",""space"",""space"",""space"",""space"",""space"",""space"",""space"",""space"",""space"",""space"",""space"",""space"",""space"",""space"",""space"",""space"",""space"",""space"",""space"",""space"",""space"",""space"",""space"",""space"",""space"",""space"",""space"",""space"",""space"",""space"",""space"",""space"",""space"",""space""]","[0.3118549999780953,0.775519999966491,1.2168449999880977,1.6076299999840558,1.9595899999840185,2.3522050000028685,2.687945000012405,3.071974999969825,3.488084999960847,3.9035450000083074,4.288339999970049,4.687594999966677,5.0397549999761395,5.466344999964349,5.916244999971241,6.332624999980908,6.703555000014603,7.103850000014063,7.503564999962691,7.897400000016205,8.335939999960829,8.703054999990854,9.113559999968857,9.455970000009984,9.84781499998644,10.255309999978635,10.591489999962505,10.999030000006314,11.39957000000868,11.815279999980703,12.223609999986365,12.631394999974873,13.119839999999385,13.580075000005309,14.79977499996312]",space,0.624015,0.0,7.0,7.0,20.0,1.0,,
,,,,,,,,,,,block_2/medium_n_81_3.wav,no,n,medium,81.0,2.235189468,17.75582439,,,,Yes,Koss KSC75,15,No,m,34,R,Yes,1,2020-09-13_16h50.25.586,kura-B2,2020.1.2,Win32,60,,,,,,,,,,,,,,"[""space"",""space"",""space"",""space"",""space"",""space"",""space"",""space"",""space"",""space"",""space"",""space"",""space"",""space"",""space"",""space"",""space"",""space"",""space"",""space""]","[0.3767050000024028,0.7122899999958463,1.2242950000218116,2.2242700000060722,3.049460000009276,3.9764350000186823,4.7522400000016205,5.536435000016354,6.2978149999980815,7.120025000011083,7.936410000023898,8.69682000001194,9.440419999998994,10.335955000016838,11.2001600000076,11.984645000018645,12.784274999983609,13.616370000003371,14.383860000001732,15.184674999967683]",space,1.46538,0.0,8.0,8.0,33.0,1.0,,
,,,,,,,,,,,block_2/weak_n_105_3.wav,no,n,weak,105.0,2.432347709,14.10785791,,,,Yes,Koss KSC75,15,No,m,34,R,Yes,1,2020-09-13_16h50.25.586,kura-B2,2020.1.2,Win32,60,,,,,,,,,,,,,,"[""space"",""space"",""space"",""space"",""space"",""space"",""space"",""space"",""space"",""space"",""space"",""space"",""space"",""space"",""space"",""space"",""space"",""space"",""space"",""space"",""space""]","[0.2865600000368431,0.9835300000268035,1.566820000007283,2.326564999995753,3.006310000026133,3.686260000045877,4.283095000020694,4.726410000002943,5.249335000000428,5.848310000030324,6.382849999994505,6.88224500004435,7.463755000033416,7.99855000001844,8.590830000001006,9.270795000018552,9.838065000018105,10.366734999988694,10.911705000034999,11.415015000035055,11.982935000036377]",space,0.53546,0.0,9.0,9.0,27.0,1.0,,
,,,,,,,,,,,block_2/weak_n_119_4.wav,no,n,weak,119.0,1.653391966,12.42708811,,,,Yes,Koss KSC75,15,No,m,34,R,Yes,1,2020-09-13_16h50.25.586,kura-B2,2020.1.2,Win32,60,,,,,,,,,,,,,,"[""space"",""space"",""space"",""space"",""space"",""space"",""space"",""space"",""space"",""space"",""space"",""space"",""space"",""space"",""space"",""space"",""space"",""space"",""space"",""space"",""space"",""space"",""space"",""space""]","[0.25101499998709187,0.7940449999878183,1.0583999999798834,1.3860599999898113,1.6901049999869429,2.074465000012424,2.4422299999860115,2.770235000003595,3.0579699999652803,3.554844999976922,3.937854999967385,4.322875000012573,4.850969999970403,5.298959999985527,5.71541000000434,6.209854999964591,6.738175000005867,7.290254999999888,7.818039999983739,8.417914999998175,8.98661500000162,9.450369999976829,9.954714999999851,10.530585000000428]",space,1.019995,0.0,10.0,10.0,31.0,1.0,,
,,,,,,,,,,,block_2/medium_n_105_3.wav,no,n,medium,105.0,2.480661226,14.16274739,,,,Yes,Koss KSC75,15,No,m,34,R,Yes,1,2020-09-13_16h50.25.586,kura-B2,2020.1.2,Win32,60,,,,,,,,,,,,,,"[""space"",""space"",""space"",""space"",""space"",""space"",""space"",""space"",""space"",""space"",""space"",""space"",""space"",""space"",""space"",""space"",""space"",""space"",""space"",""space""]","[0.34000000002561137,0.987810000020545,1.6114450000459328,2.1714900000370108,2.7004650000017136,3.2756650000228547,3.8837200000416487,4.451310000033118,5.027885000046808,5.619345000013709,6.18814000004204,6.764265000005253,7.331609999993816,7.915335000026971,8.49122000002535,9.099510000029113,9.699270000040997,10.247830000007525,10.828435000032187,11.41950000001816]",space,1.816895,0.0,11.0,11.0,0.0,1.0,,
,,,,,,,,,,,block_2/none_n_81_4.wav,no,n,none,81.0,1.032736778,20.98466422,,,,Yes,Koss KSC75,15,No,m,34,R,Yes,1,2020-09-13_16h50.25.586,kura-B2,2020.1.2,Win32,60,,,,,,,,,,,,,,"[""space"",""space"",""space"",""space"",""space"",""space"",""space"",""space"",""space"",""space"",""space"",""space"",""space"",""space"",""space"",""space"",""space"",""space"",""space"",""space"",""space"",""space"",""space"",""space"",""space"",""space"",""space"",""space"",""space"",""space"",""space"",""space"",""space"",""space"",""space"",""space"",""space"",""space"",""space"",""space"",""space"",""space"",""space"",""space"",""space"",""space"",""space"",""space"",""space"",""space"",""space"",""space"",""space""]","[0.27283000003080815,0.7050550000276417,1.0851499999989755,1.5849800000432879,1.9769100000266917,2.3931400000001304,2.8731900000129826,3.4087300000246614,3.889020000002347,4.349645000009332,4.825315000023693,5.332980000006501,5.792660000035539,6.105154999997467,6.4883550000377,6.90470000001369,7.288700000033714,7.721345000027213,8.13701000000583,8.546480000019073,8.921380000014324,9.257270000001881,9.640635000017937,9.985395000025164,10.368810000014491,10.816675000009127,11.240835000004154,11.537280000047758,11.880800000042655,12.232905000040773,12.545015000039712,12.937095000001136,13.361300000047777,13.688805000041611,14.03351500001736,14.393735000048764,14.744995000015479,15.136670000036247,15.416390000027604,15.826304999995045,16.026840000005905,16.30505500000436,16.676525000017136,17.04288500000257,17.477230000018608,17.848460000008345,18.26513499999419,18.642150000028778,18.985335000033956,19.20934500003932,19.512340000015683,19.8006400000304,20.064745000039693]",space,0.53814,0.0,12.0,12.0,26.0,1.0,,
,,,,,,,,,,,block_2/none_n_92_3.wav,no,n,none,92.0,2.008897919,17.90894327,,,,Yes,Koss KSC75,15,No,m,34,R,Yes,1,2020-09-13_16h50.25.586,kura-B2,2020.1.2,Win32,60,,,,,,,,,,,,,,"[""space"",""space"",""space"",""space"",""space"",""space"",""space"",""space"",""space"",""space"",""space"",""space"",""space"",""space"",""space"",""space"",""space"",""space"",""space"",""space"",""space"",""space"",""space"",""space"",""space"",""space"",""space"",""space"",""space"",""space"",""space"",""space"",""space"",""space"",""space"",""space"",""space"",""space"",""space"",""space"",""space"",""space"",""space"",""space"",""space"",""space"",""space"",""space"",""space"",""space"",""space"",""space"",""space""]","[0.30264000000897795,0.7673799999756739,1.6385199999785982,2.0164499999955297,2.2785150000127032,2.5426299999817275,2.85097999998834,3.16716999997152,3.454454999999143,3.7748649999848567,4.142569999967236,4.486340000003111,4.854735000000801,5.310274999996182,5.774815000011586,6.3024899999727495,6.682614999997895,6.8707200000062585,7.0705200000084005,7.286259999964386,7.482465000008233,7.774960000009742,8.174899999983609,8.558589999971446,8.814855000004172,9.014504999970086,9.238499999977648,9.446835000009742,9.838439999963157,10.190799999982119,10.414385000010952,10.670594999974128,10.863254999974743,10.998410000000149,11.238819999969564,11.454114999971353,11.68625999998767,12.070669999986421,12.318725000019185,12.563305000017863,12.744850000017323,12.902439999976195,13.054914999986067,13.262645000009798,13.518180000013672,13.782834999961779,14.343989999964833,14.582554999971762,14.822334999975283,15.134859999991022,15.431014999980107,15.670340000011493,15.966444999969099]",space,0.53234,0.0,13.0,13.0,25.0,1.0,,
,,,,,,,,,,,block_2/strong_n_119_3.wav,no,n,strong,119.0,2.299979207,12.06555744,,,,Yes,Koss KSC75,15,No,m,34,R,Yes,1,2020-09-13_16h50.25.586,kura-B2,2020.1.2,Win32,60,,,,,,,,,,,,,,"[""space"",""space"",""space"",""space"",""space"",""space"",""space"",""space"",""space"",""space"",""space"",""space"",""space"",""space"",""space"",""space"",""space"",""space"",""space"",""space"",""space""]","[0.48374500003410503,0.9132749999989755,1.3050250000087544,1.769075000018347,2.2335800000000745,2.717590000014752,3.233615000033751,3.69861000002129,4.1776600000448525,4.689300000027288,5.121130000043195,5.633195000002161,6.121420000039507,6.641880000010133,7.121515000006184,7.598245000001043,8.09780500002671,8.581695000000764,9.04884000000311,9.562740000023041,10.081075000052806]",space,1.458795,0.0,14.0,14.0,16.0,1.0,,
,,,,,,,,,,,block_2/weak_n_92_3.wav,no,n,weak,92.0,2.16711471,14.91038002,,,,Yes,Koss KSC75,15,No,m,34,R,Yes,1,2020-09-13_16h50.25.586,kura-B2,2020.1.2,Win32,60,,,,,,,,,,,,,,"[""space"",""space"",""space"",""space"",""space"",""space"",""space"",""space"",""space"",""space"",""space"",""space"",""space"",""space"",""space"",""space"",""space"",""space"",""space"",""space""]","[0.3412300000200048,0.7731350000249222,1.4133049999945797,2.045140000001993,2.700989999982994,3.3890799999935552,4.033995000005234,4.633505000034347,5.260665000008885,5.9090849999920465,6.5651749999960884,7.197830000019167,7.909545000002254,8.597175000002608,9.265315000026021,9.897615000023507,10.509160000015981,11.15724999998929,11.788575000013225,12.453169999993406]",space,0.76558,0.0,15.0,15.0,5.0,1.0,,
,,,,,,,,,,,block_2/medium_n_119_3.wav,no,n,medium,119.0,2.317779723,12.17918562,,,,Yes,Koss KSC75,15,No,m,34,R,Yes,1,2020-09-13_16h50.25.586,kura-B2,2020.1.2,Win32,60,,,,,,,,,,,,,,"[""space"",""space"",""space"",""space"",""space"",""space"",""space"",""space"",""space"",""space"",""space"",""space"",""space"",""space"",""space"",""space"",""space"",""space"",""space"",""space"",""space"",""space"",""space"",""space"",""space"",""space"",""space"",""space"",""space"",""space"",""space""]","[0.4847650000010617,0.8280650000087917,1.152315000013914,1.3847800000221469,1.6363950000377372,1.8845150000415742,2.10802500002319,2.31720500002848,2.54073500004597,2.8363349999999627,3.06845500000054,3.2681500000180677,3.524650000035763,3.8045100000454113,4.108030000003055,4.332745000021532,4.582140000013169,4.8281800000113435,5.0604650000459515,5.300325000018347,5.556490000046324,5.788095000025351,6.284320000035223,6.788300000014715,7.22066500002984,7.676940000033937,8.173070000018924,8.665135000017472,9.164610000036191,9.648250000027474,10.116325000009965]",space,0.27283,0.0,16.0,16.0,22.0,1.0,,
,,,,,,,,,,,block_2/weak_n_81_3.wav,no,n,weak,81.0,2.376095497,17.43405468,,,,Yes,Koss KSC75,15,No,m,34,R,Yes,1,2020-09-13_16h50.25.586,kura-B2,2020.1.2,Win32,60,,,,,,,,,,,,,,"[""space"",""space"",""space"",""space"",""space"",""space"",""space"",""space"",""space"",""space"",""space"",""space"",""space"",""space"",""space"",""space"",""space"",""space"",""space"",""space"",""space"",""space"",""space"",""space"",""space"",""space"",""space"",""space"",""space""]","[0.26909499999601394,0.7220650000381283,0.9372950000106357,1.1457900000386871,1.3781099999905564,1.6414850000292063,2.0831100000068545,2.4178350000292994,2.7176000000326894,2.993929999996908,3.3856399999931455,3.8576750000356697,4.281935000035446,4.898615000012796,5.617850000038743,6.382299999997485,7.153300000005402,7.898289999982808,8.665595000027679,9.25006500002928,9.537884999997914,10.081185000017285,10.601360000029672,10.92115000000922,11.617605000035837,12.361855000024661,13.246314999996684,14.121329999994487,14.921365000016522]",space,0.43892,0.0,17.0,17.0,30.0,1.0,,
,,,,,,,,,,,block_2/none_n_105_4.wav,no,n,none,105.0,1.256367297,16.73296594,,,,Yes,Koss KSC75,15,No,m,34,R,Yes,1,2020-09-13_16h50.25.586,kura-B2,2020.1.2,Win32,60,,,,,,,,,,,,,,"[""space"",""space"",""space"",""space"",""space"",""space"",""space"",""space"",""space"",""space"",""space"",""space"",""space"",""space"",""space"",""space"",""space"",""space"",""space"",""space"",""space"",""space"",""space"",""space"",""space"",""space"",""space"",""space"",""space"",""space"",""space"",""space"",""space"",""space"",""space"",""space"",""space"",""space"",""space"",""space"",""space"",""space"",""space"",""space"",""space"",""space""]","[0.3020350000006147,0.7804699999978766,1.384905000042636,1.8053450000006706,2.2448200000217184,2.668999999994412,3.0010699999984354,3.16646000003675,3.4610150000080466,3.7168600000441074,3.892755000037141,4.100405000033788,4.33300500002224,4.60476000001654,4.932740000018384,5.324699999997392,5.633300000044983,6.02872500004014,6.365800000028685,6.740445000003092,7.116230000043288,7.540250000020023,7.99720000004163,8.420220000029076,8.740340000018477,9.092795000004116,9.332144999993034,9.652365000045393,9.988479999999981,10.297530000039842,10.6530849999981,11.01273499999661,11.324490000028163,11.756764999998268,12.148930000024848,12.44547000003513,12.696900000039022,13.07984000002034,13.364465000049677,13.678180000046268,13.948625000019092,14.261205000046175,14.54071000003023,14.948425000009593,15.261289999994915,15.684550000005402]",space,0.45248,0.0,18.0,18.0,14.0,1.0,,
,,,,,,,,,,,block_2/none_n_105_3.wav,no,n,none,105.0,1.200203838,13.86165508,,,,Yes,Koss KSC75,15,No,m,34,R,Yes,1,2020-09-13_16h50.25.586,kura-B2,2020.1.2,Win32,60,,,,,,,,,,,,,,"[""space"",""space"",""space"",""space"",""space"",""space"",""space"",""space"",""space"",""space"",""space"",""space"",""space"",""space"",""space"",""space"",""space"",""space"",""space"",""space"",""space"",""space"",""space"",""space"",""space"",""space"",""space"",""space"",""space"",""space"",""space"",""space"",""space"",""space"",""space"",""space"",""space"",""space"",""space""]","[0.3539450000389479,0.8743350000004284,1.298754999996163,1.6343000000342727,1.9379049999988638,2.3324349999893457,2.6341150000225753,2.970035000005737,3.3063100000144914,3.582265000033658,3.8902949999901466,4.234005000034813,4.450055000022985,4.814424999989569,5.121800000022631,5.562615000002552,5.7793750000419095,5.979350000037812,6.305970000044908,6.530495000013616,6.762994999997318,7.013685000012629,7.273615000012796,7.490135000029113,7.722185000020545,7.994745000032708,8.402349999989383,8.818399999989197,9.265850000025239,9.63379500003066,9.898184999998193,10.201830000034533,10.578245000040624,10.91437000001315,11.266025000018999,11.722234999993816,12.12975500000175,12.5225700000301,12.961765000014566]",space,0.43883,0.0,19.0,19.0,6.0,1.0,,
,,,,,,,,,,,block_2/medium_n_72_3.wav,no,n,medium,72.0,1.994146771,18.06802432,,,,Yes,Koss KSC75,15,No,m,34,R,Yes,1,2020-09-13_16h50.25.586,kura-B2,2020.1.2,Win32,60,,,,,,,,,,,,,,"[""space"",""space"",""space"",""space"",""space"",""space"",""space"",""space"",""space"",""space"",""space"",""space"",""space"",""space"",""space"",""space"",""space"",""space"",""space"",""space""]","[0.22397000005003065,0.6716400000150315,1.6880150000215508,2.5192600000300445,3.298980000021402,4.143920000002254,5.065410000039265,5.823945000011008,6.608015000005253,7.448190000024624,8.287985000002664,9.14819500001613,9.947440000018105,10.800050000019837,11.615365000034217,12.439669999992475,13.24757500004489,14.039675000007264,14.839355000003707,15.663365000043996]",space,0.8271,0.0,20.0,20.0,13.0,1.0,,
,,,,,,,,,,,block_2/strong_n_92_3.wav,no,n,strong,92.0,1.019287146,13.50967263,,,,Yes,Koss KSC75,15,No,m,34,R,Yes,1,2020-09-13_16h50.25.586,kura-B2,2020.1.2,Win32,60,,,,,,,,,,,,,,"[""space"",""space"",""space"",""space"",""space"",""space"",""space"",""space"",""space"",""space"",""space"",""space"",""space"",""space"",""space"",""space"",""space"",""space"",""space"",""space"",""space""]","[0.4574799999827519,0.9694649999728426,1.5615649999817833,2.137445000000298,2.7534249999444,3.433509999944363,4.033459999947809,4.641459999955259,5.281634999962989,5.9146449999534525,6.601439999998547,7.24953499995172,7.84148499998264,8.47350500000175,9.065744999970775,9.705529999977443,10.33750499994494,10.945464999997057,11.579064999998081,12.22795499995118,12.82854999997653]",space,1.18319,0.0,21.0,21.0,39.0,1.0,,
,,,,,,,,,,,block_2/weak_n_72_4.wav,no,n,weak,72.0,1.671954957,17.64637673,,,,Yes,Koss KSC75,15,No,m,34,R,Yes,1,2020-09-13_16h50.25.586,kura-B2,2020.1.2,Win32,60,,,,,,,,,,,,,,"[""space"",""space"",""space"",""space"",""space"",""space"",""space"",""space"",""space"",""space"",""space"",""space"",""space"",""space"",""space"",""space"",""space"",""space"",""space"",""space"",""space"",""space""]","[0.5058050000225194,1.0579649999854155,1.4663799999980256,1.8416449999785982,2.2660199999809265,2.7156400000094436,3.0737049999879673,3.8823800000245683,4.865730000019539,5.730555000016466,6.465825000021141,7.337754999985918,8.073789999994915,8.889695000019856,9.721944999997504,10.553695000009611,11.412149999989197,12.217765000008512,13.045024999999441,13.92979500000365,14.777679999999236,15.633685000007972]",space,0.699815,0.0,22.0,22.0,4.0,1.0,,
,,,,,,,,,,,block_2/none_n_119_3.wav,no,n,none,119.0,1.37370001,14.3364211,,,,Yes,Koss KSC75,15,No,m,34,R,Yes,1,2020-09-13_16h50.25.586,kura-B2,2020.1.2,Win32,60,,,,,,,,,,,,,,"[""space"",""space"",""space"",""space"",""space"",""space"",""space"",""space"",""space"",""space"",""space"",""space"",""space"",""space"",""space"",""space"",""space"",""space"",""space"",""space"",""space"",""space"",""space"",""space"",""space"",""space"",""space"",""space"",""space"",""space"",""space"",""space""]","[0.25365000002784654,0.8012300000409596,1.2143050000304356,1.5736150000011548,1.925630000012461,2.3015700000105426,2.7335800000000745,3.1997600000468083,3.7580500000040047,4.165750000043772,4.557670000009239,4.881835000007413,5.26535000000149,5.6636250000447035,5.958385000005364,6.239210000028834,6.565705000015441,6.950390000012703,7.318395000009332,7.718240000016522,8.086185000021942,8.413895000005141,8.838430000003427,9.469875000009779,10.166245000029448,10.573980000044685,10.929709999996703,11.286190000013448,11.646165000041947,12.038434999994934,12.422535000019707,13.01402500004042]",space,0.7031,0.0,23.0,23.0,24.0,1.0,,
,,,,,,,,,,,block_2/strong_n_119_4.wav,no,n,strong,119.0,2.003027148,12.07137182,,,,Yes,Koss KSC75,15,No,m,34,R,Yes,1,2020-09-13_16h50.25.586,kura-B2,2020.1.2,Win32,60,,,,,,,,,,,,,,"[""space"",""space"",""space"",""space"",""space"",""space"",""space"",""space"",""space"",""space"",""space"",""space"",""space"",""space"",""space"",""space"",""space"",""space"",""space"",""space"",""space""]","[0.3962499999906868,0.9009049999876879,1.260584999981802,1.7883949999813922,2.268084999988787,2.7721350000356324,3.2923099999898113,3.7655399999930523,4.275970000016969,4.781505000020843,5.292330000025686,5.798004999989644,6.316590000002179,6.835980000032578,7.332540000032168,7.852275000012014,8.35627500002738,8.864549999998417,9.380520000006072,9.884034999995492,10.387860000017099]",space,1.36653,0.0,24.0,24.0,23.0,1.0,,
,,,,,,,,,,,block_2/weak_n_72_3.wav,no,n,weak,72.0,1.604938988,17.47283014,,,,Yes,Koss KSC75,15,No,m,34,R,Yes,1,2020-09-13_16h50.25.586,kura-B2,2020.1.2,Win32,60,,,,,,,,,,,,,,"[""space"",""space"",""space"",""space"",""space"",""space"",""space"",""space"",""space"",""space"",""space"",""space"",""space"",""space"",""space"",""space"",""space"",""space"",""space"",""space"",""space"",""space"",""space"",""space"",""space"",""space""]","[0.48380000004544854,0.8518299999996088,1.3281000000424683,1.6725200000219047,2.0343350000330247,2.3761999999987893,2.7759749999968335,3.1169600000139326,3.536339999991469,3.8559550000354648,4.265585000044666,4.881259999994654,5.272350000042934,5.960770000005141,6.714190000027884,7.600410000013653,8.336315000022296,9.113065000041388,9.88820000004489,10.5677550000255,11.400255000044126,12.19696000003023,12.96119500003988,13.794630000018515,14.695930000045337,15.432565000024624]",space,0.499955,0.0,25.0,25.0,8.0,1.0,,
,,,,,,,,,,,block_2/medium_n_72_4.wav,no,n,medium,72.0,1.35197092,15.86054235,,,,Yes,Koss KSC75,15,No,m,34,R,Yes,1,2020-09-13_16h50.25.586,kura-B2,2020.1.2,Win32,60,,,,,,,,,,,,,,"[""space"",""space"",""space"",""space"",""space"",""space"",""space"",""space"",""space"",""space"",""space"",""space"",""space"",""space"",""space"",""space"",""space"",""space"",""space"",""space""]","[0.2849350000033155,0.8033750000176951,1.6189650000305846,2.3551750000333413,3.1552550000487827,3.7949099999968894,4.567024999996647,5.315585000033025,6.067295000015292,6.835495000006631,7.599084999994375,8.355380000022706,9.091379999998026,9.78764500003308,10.547520000021905,11.283840000047348,11.987285000039265,12.723525000037625,13.451380000042263,14.267385000013746]",space,0.33478,0.0,26.0,26.0,7.0,1.0,,
,,,,,,,,,,,block_2/none_n_81_3.wav,no,n,none,81.0,2.161532659,18.80565964,,,,Yes,Koss KSC75,15,No,m,34,R,Yes,1,2020-09-13_16h50.25.586,kura-B2,2020.1.2,Win32,60,,,,,,,,,,,,,,"[""space"",""space"",""space"",""space"",""space"",""space"",""space"",""space"",""space"",""space"",""space"",""space"",""space"",""space"",""space"",""space"",""space"",""space"",""space"",""space"",""space"",""space"",""space"",""space"",""space"",""space"",""space"",""space"",""space"",""space"",""space"",""space"",""space"",""space"",""space"",""space""]","[0.25280999997630715,0.9410749999806285,1.3499449999653734,1.6205949999857694,1.9829249999602325,2.4452349999919534,2.860709999979008,3.276740000001155,3.645235000003595,3.98210999998264,4.237234999949578,4.500479999987874,4.781969999952707,5.108514999970794,5.449269999982789,5.756869999982882,6.033064999966882,6.301080000004731,6.708935000002384,7.069034999993164,7.465609999955632,7.965579999960028,8.485049999959301,9.220919999992475,9.853279999981169,10.445955000002868,11.036644999985583,11.780494999955408,12.565254999964964,13.229324999963865,13.964779999980237,14.732779999962077,15.361369999998715,15.945169999962673,16.27701999997953,16.820499999972526]",space,0.30749,0.0,27.0,27.0,29.0,1.0,,
,,,,,,,,,,,block_2/none_n_72_4.wav,no,n,none,72.0,1.743803892,24.48607147,,,,Yes,Koss KSC75,15,No,m,34,R,Yes,1,2020-09-13_16h50.25.586,kura-B2,2020.1.2,Win32,60,,,,,,,,,,,,,,"[""space"",""space"",""space"",""space"",""space"",""space"",""space"",""space"",""space"",""space"",""space"",""space"",""space"",""space"",""space"",""space"",""space"",""space"",""space"",""space"",""space"",""space"",""space"",""space"",""space"",""space"",""space"",""space"",""space"",""space"",""space"",""space"",""space"",""space""]","[0.37262499995995313,0.9965049999882467,1.6525900000124238,2.316820000007283,3.0045849999878556,3.6845399999874644,4.217219999991357,4.8288249999750406,5.500584999972489,6.165035000012722,6.788484999968205,7.381279999972321,8.060129999998026,8.75705499999458,9.414084999996703,9.804739999992307,10.124509999994189,10.63625999999931,11.172380000003614,11.724494999973103,12.580599999986589,13.284299999999348,13.964645000000019,14.678069999965373,15.628824999963399,16.572615000011865,17.692994999990333,18.700075000000652,19.45305999997072,20.292929999995977,20.793024999962654,21.42011000000639,22.29224499996053,24.308565000013914]",space,0.92152,0.0,28.0,28.0,21.0,1.0,,
,,,,,,,,,,,block_2/strong_n_81_3.wav,no,n,strong,81.0,2.384474622,16.38941793,,,,Yes,Koss KSC75,15,No,m,34,R,Yes,1,2020-09-13_16h50.25.586,kura-B2,2020.1.2,Win32,60,,,,,,,,,,,,,,"[""space"",""space"",""space"",""space"",""space"",""space"",""space"",""space"",""space"",""space"",""space"",""space"",""space"",""space"",""space"",""space"",""space"",""space"",""space"",""space"",""space""]","[0.2953700000070967,0.9040750000276603,1.6517500000190921,2.336010000028182,3.0160800000303425,3.735244999988936,4.4158600000082515,5.175495000032242,5.855370000004768,6.575490000017453,7.297610000008717,8.031814999994822,8.703184999991208,9.391255000024103,10.119630000030156,10.847695000004023,11.579960000002757,12.295890000008512,13.031605000025593,13.767850000003818,14.463770000031218]",space,0.38958,0.0,29.0,29.0,10.0,1.0,,
,,,,,,,,,,,block_2/medium_n_119_4.wav,no,n,medium,119.0,1.918272059,10.22534689,,,,Yes,Koss KSC75,15,No,m,34,R,Yes,1,2020-09-13_16h50.25.586,kura-B2,2020.1.2,Win32,60,,,,,,,,,,,,,,"[""space"",""space"",""space"",""space"",""space"",""space"",""space"",""space"",""space"",""space"",""space"",""space"",""space"",""space"",""space"",""space"",""space"",""space"",""space"",""space""]","[0.28557499998714775,0.7638399999705143,1.151354999979958,1.6201299999956973,2.0119100000010803,2.420140000001993,2.787964999966789,3.1719499999890104,3.5879950000089593,4.019845000002533,4.476380000007339,4.956209999974817,5.427879999973811,5.916465000016615,6.372005000011995,6.832524999976158,7.251720000000205,7.716444999969099,8.124305000004824,9.299999999988358]",space,0.47797,0.0,30.0,30.0,17.0,1.0,,
,,,,,,,,,,,block_2/medium_n_105_4.wav,no,n,medium,105.0,2.115061775,16.52181914,,,,Yes,Koss KSC75,15,No,m,34,R,Yes,1,2020-09-13_16h50.25.586,kura-B2,2020.1.2,Win32,60,,,,,,,,,,,,,,"[""space"",""space"",""space"",""space"",""space"",""space"",""space"",""space"",""space"",""space"",""space"",""space"",""space"",""space"",""space"",""space"",""space"",""space"",""space"",""space"",""space"",""space"",""space""]","[0.2551200000452809,0.7102550000417978,1.3988700000336394,2.238510000053793,2.990650000050664,3.7908250000327826,4.1180850000237115,4.438309999997728,4.734490000002552,5.134445000032429,5.574630000046454,6.1425250000320375,6.9182650000439025,7.646900000050664,8.34670500003267,9.086465000000317,9.82189500000095,10.486515000055078,11.214680000033695,11.943575000041164,12.662635000015143,13.376575000002049,14.094535000040196]",space,0.548615,0.0,31.0,31.0,12.0,1.0,,
,,,,,,,,,,,block_2/weak_n_81_4.wav,no,n,weak,81.0,1.139338257,16.19847658,,,,Yes,Koss KSC75,15,No,m,34,R,Yes,1,2020-09-13_16h50.25.586,kura-B2,2020.1.2,Win32,60,,,,,,,,,,,,,,"[""space"",""space"",""space"",""space"",""space"",""space"",""space"",""space"",""space"",""space"",""space"",""space"",""space"",""space"",""space"",""space"",""space"",""space"",""space"",""space"",""space""]","[0.2793299999902956,0.7512449999921955,1.3190850000246428,2.016140000021551,2.799639999982901,3.631890000018757,4.303315000026487,5.116075000027195,5.615280000027269,6.115675000008196,6.934914999990724,7.734775000018999,8.503499999991618,9.231054999982007,10.096030000015162,10.782630000030622,11.591450000007171,12.328329999989364,13.038434999994934,13.831405000004452,14.59881499997573]",space,0.4612,0.0,32.0,32.0,36.0,1.0,,
,,,,,,,,,,,block_2/strong_n_105_4.wav,no,n,strong,105.0,1.723608797,13.55862014,,,,Yes,Koss KSC75,15,No,m,34,R,Yes,1,2020-09-13_16h50.25.586,kura-B2,2020.1.2,Win32,60,,,,,,,,,,,,,,"[""space"",""space"",""space"",""space"",""space"",""space"",""space"",""space"",""space"",""space"",""space"",""space"",""space"",""space"",""space"",""space"",""space"",""space"",""space"",""space""]","[0.3508949999813922,0.9344799999962561,1.4067250000080094,2.022339999966789,2.6545099999639206,3.2481299999635667,3.838744999957271,4.415074999968056,5.014979999978095,5.631099999998696,6.206709999998566,6.7910050000064075,7.406634999962989,8.0141500000027,8.622839999967255,9.20683999999892,9.814780000015162,10.398764999990817,11.006939999992028,11.59856499999296]",space,0.789555,0.0,33.0,33.0,3.0,1.0,,
,,,,,,,,,,,block_2/strong_n_92_4.wav,no,n,strong,92.0,1.480736093,15.18463632,,,,Yes,Koss KSC75,15,No,m,34,R,Yes,1,2020-09-13_16h50.25.586,kura-B2,2020.1.2,Win32,60,,,,,,,,,,,,,,"[""space"",""space"",""space"",""space"",""space"",""space"",""space"",""space"",""space"",""space"",""space"",""space"",""space"",""space"",""space"",""space"",""space"",""space"",""space"",""space""]","[0.5686250000144355,1.3018300000112504,2.0850850000279024,2.7896600000094622,3.566945000027772,4.23743999999715,4.9575000000186265,5.6663100000005215,6.341865000023972,7.069400000036694,7.797680000017863,8.501325000019278,9.213665000046603,9.917065000045113,10.629760000039823,11.373490000027232,12.05327000003308,12.73357500002021,13.429490000009537,14.133705000043847]",space,2.199635,0.0,34.0,34.0,34.0,1.0,,
,,,,,,,,,,,block_2/none_n_72_3.wav,no,n,none,72.0,2.393872505,24.12062987,,,,Yes,Koss KSC75,15,No,m,34,R,Yes,1,2020-09-13_16h50.25.586,kura-B2,2020.1.2,Win32,60,,,,,,,,,,,,,,"[""space"",""space"",""space"",""space"",""space"",""space"",""space"",""space"",""space"",""space"",""space"",""space"",""space"",""space"",""space"",""space"",""space"",""space"",""space"",""space"",""space"",""space"",""space"",""space"",""space"",""space"",""space"",""space"",""space"",""space"",""space"",""space"",""space"",""space"",""space"",""space"",""space"",""space"",""space"",""space"",""space"",""space"",""space"",""space"",""space"",""space"",""space"",""space""]","[0.270844999991823,0.8467899999814108,1.3834250000072643,1.8707949999952689,2.2792049999698065,2.650804999982938,3.015819999971427,3.399249999958556,3.87861499999417,4.286350000009406,4.631554999970831,4.9992050000000745,5.558484999986831,6.086394999991171,6.726484999991953,7.422259999962989,7.950879999960307,8.542714999988675,9.006385000015143,9.622700000007171,10.198199999984354,10.7749199999962,11.334559999988414,11.895424999995157,12.363184999965597,12.766980000014883,13.150450000015553,13.579359999974258,13.944465000007767,14.295370000007097,14.614799999981187,15.135454999981448,15.430675000010524,15.895099999965169,16.326939999999013,16.73482499999227,17.094905000005383,17.430749999999534,17.878459999978077,18.278649999992922,18.627180000010412,19.027279999980237,19.414424999966286,19.846329999971204,20.192849999992177,20.630375000007916,21.278924999991432,21.842654999985825]",space,1.89221,0.0,35.0,35.0,18.0,1.0,,
,,,,,,,,,,,block_2/weak_n_92_4.wav,no,n,weak,92.0,2.26710089,14.35326869,,,,Yes,Koss KSC75,15,No,m,34,R,Yes,1,2020-09-13_16h50.25.586,kura-B2,2020.1.2,Win32,60,,,,,,,,,,,,,,"[""space"",""space"",""space"",""space"",""space"",""space"",""space"",""space"",""space"",""space"",""space"",""space"",""space"",""space"",""space"",""space"",""space"",""space"",""space"",""space""]","[0.2636200000415556,0.8958500000298955,1.4794349999865517,2.1118400000268593,2.735160000040196,3.359630000020843,3.9516099999891594,4.511475000006612,5.103189999994356,5.735879999992903,6.3675050000310875,6.951869999989867,7.599129999987781,8.19210500002373,8.791520000027958,9.42324000003282,10.015285000030417,10.62385000003269,11.18353500001831,11.799475000007078]",space,1.03774,0.0,36.0,36.0,15.0,1.0,,
,,,,,,,,,,,block_2/strong_n_72_4.wav,no,n,strong,72.0,1.689031128,17.05764791,,,,Yes,Koss KSC75,15,No,m,34,R,Yes,1,2020-09-13_16h50.25.586,kura-B2,2020.1.2,Win32,60,,,,,,,,,,,,,,"[""space"",""space"",""space"",""space"",""space"",""space"",""space"",""space"",""space"",""space"",""space"",""space"",""space"",""space"",""space"",""space"",""space"",""space"",""space"",""space""]","[0.4760000000242144,1.4360999999917112,2.4357400000444613,3.235210000013467,3.9839750000392087,4.783075000043027,5.581645000027493,6.364385000022594,7.123540000000503,7.899949999991804,8.699920000042766,9.483665000007022,10.280665000027511,11.107770000002347,11.845155000046361,12.644674999988638,13.428255000035278,14.212225000024773,15.011745000025257,15.836040000023786]",space,0.91686,0.0,37.0,37.0,35.0,1.0,,
,,,,,,,,,,,block_2/strong_n_81_4.wav,no,n,strong,81.0,1.736263272,17.70810001,,,,Yes,Koss KSC75,15,No,m,34,R,Yes,1,2020-09-13_16h50.25.586,kura-B2,2020.1.2,Win32,60,,,,,,,,,,,,,,"[""space"",""space"",""space"",""space"",""space"",""space"",""space"",""space"",""space"",""space"",""space"",""space"",""space"",""space"",""space"",""space"",""space"",""space"",""space"",""space"",""space""]","[0.5113499999861233,1.1436000000103377,1.8072149999788962,2.712119999981951,3.495360000000801,4.327285000006668,5.064584999985527,5.887379999971017,6.7191449999809265,7.551414999994449,8.367169999983162,9.191604999999981,9.951264999981504,10.779969999974128,11.528315000003204,12.39623000001302,13.231395000009798,14.023709999979474,14.831695000000764,15.6627800000133,16.447814999963157]",space,1.505185,0.0,38.0,38.0,1.0,1.0,,
,,,,,,,,,,,block_2/none_n_92_4.wav,no,n,none,92.0,2.009431863,15.90199422,,,,Yes,Koss KSC75,15,No,m,34,R,Yes,1,2020-09-13_16h50.25.586,kura-B2,2020.1.2,Win32,60,,,,,,,,,,,,,,"[""space"",""space"",""space"",""space"",""space"",""space"",""space"",""space"",""space"",""space"",""space"",""space"",""space"",""space"",""space"",""space"",""space"",""space"",""space"",""space"",""space"",""space"",""space"",""space""]","[0.29559999995399266,0.7440199999837205,1.3282199999666773,1.9114299999782816,2.608524999988731,3.255849999957718,3.488194999983534,3.799989999970421,4.316599999961909,4.855524999962654,5.639784999948461,6.272349999984726,6.897594999987632,7.4650049999472685,8.135834999964572,8.768154999997932,9.44001500000013,10.147709999990184,10.8241449999623,11.312249999959022,11.880084999953397,12.495989999966696,13.20040999999037,13.84021999995457]",space,1.58552,0.0,39.0,39.0,19.0,1.0,,
,,,,,,,,,,,,,,,,,,,,,Yes,Koss KSC75,15,No,m,34,R,Yes,1,2020-09-13_16h50.25.586,kura-B2,2020.1.2,Win32,60,,,,,,,,,,,,,,,,,,,,,,,space,64.11762
