key_resp.keys,key_resp.rt,practice_taps.keys,practice_taps.rt,keyresp.keys,keyresp.rt,practice_stims_loop.thisRepN,practice_stims_loop.thisTrialN,practice_stims_loop.thisN,practice_stims_loop.thisIndex,practice_stims_loop.ran,sndfile,type,tempo,cond,version,delay,dur,Participant Initials,"If you are a MTurk worker, what is your MTurk worker ID?'",Are you wearing headphones?,What are the headphone make and model?,"How many years of musical training, if any, do you have?",Do you have any hearing problems? Please describe,What is your sex (f/m/decline)?,What is your age?,What is your handedness (R/L/ambi)?,Are you currently in a secure and quiet room without a possible interruption?,session,date,expName,psychopyVersion,OS,frameRate,instructions_prompt.keys,instructions_prompt.rt,block1_taps.keys,block1_taps.rt,key_resp_2.keys,key_resp_2.rt,trials.thisRepN,trials.thisTrialN,trials.thisN,trials.thisIndex,trials.ran,key_resp2.keys,key_resp2.rt,block2_taps.keys,block2_taps.rt,key_resp_3.keys,key_resp_3.rt,trials_2.thisRepN,trials_2.thisTrialN,trials_2.thisN,trials_2.thisIndex,trials_2.ran,key_resp_4.keys,key_resp_4.rt,"If you are not an MTurk worker, please provide your email address"
space,13.70124,"[""space""]",[9.062110000000075],space,1.88505,0.0,0.0,0.0,1.0,1.0,block_2/medium_t_119_4.wav,timbre,t,medium,119.0,2.073396767,11.89421309,,,no,na,0,no,m,37,R,Yes,1,2020-11-05_09h19.11.832,kura-A2,2020.1.2,Win32,60,,,,,,,,,,,,,,,,,,,,,,,,,
,,"[""space"",""space"",""space"",""space"",""space"",""space"",""space"",""space"",""space"",""space"",""space"",""space"",""space"",""space"",""space"",""space""]","[2.6128349999999045,3.180804999999964,3.7414799999999104,4.34069999999997,4.924735000000055,5.517170000000064,6.109290000000101,6.7011099999999715,7.277589999999918,7.83800999999994,8.429090000000087,9.0463400000001,9.64736999999991,10.189004999999952,10.7654500000001,11.4054000000001]",space,1.06901,0.0,1.0,1.0,0.0,1.0,block_1/medium_n_105_3.wav,no,n,medium,105.0,1.683245346,13.36533151,,,no,na,0,no,m,37,R,Yes,1,2020-11-05_09h19.11.832,kura-A2,2020.1.2,Win32,60,,,,,,,,,,,,,,,,,,,,,,,,,
,,"[""space"",""space"",""space"",""space"",""space"",""space"",""space"",""space"",""space"",""space"",""space"",""space"",""space"",""space"",""space"",""space"",""space""]","[1.9562249999998755,2.523239999999973,3.0409549999999257,3.557199999999952,4.059259999999966,4.554579999999987,5.043574999999905,5.529674999999983,6.2777099999998285,6.611584999999863,7.097694999999916,7.564569999999989,8.071354999999798,8.60713999999983,9.0879699999998,9.576294999999831,10.082429999999917]",space,0.94396,0.0,2.0,2.0,3.0,1.0,block_2/strong_t_119_4.wav,timbre,t,strong,119.0,2.380207574,12.24809873,,,no,na,0,no,m,37,R,Yes,1,2020-11-05_09h19.11.832,kura-A2,2020.1.2,Win32,60,,,,,,,,,,,,,,,,,,,,,,,,,
,,"[""space"",""space"",""space"",""space"",""space"",""space"",""space"",""space"",""space"",""space"",""space"",""space"",""space"",""space"",""space"",""space"",""space""]","[3.068870000000061,3.9386449999999513,4.85376999999994,5.676969999999983,5.839439999999968,6.485685000000103,7.291335000000117,8.108355000000074,8.876860000000079,9.681749999999965,10.51188000000002,11.41306499999996,12.267444999999952,13.066000000000031,13.932365000000118,14.761874999999918,15.593795]",space,0.723025,0.0,3.0,3.0,2.0,1.0,block_1/weak_n_72_4.wav,no,n,weak,72.0,1.922330121,17.89675189,,,no,na,0,no,m,37,R,Yes,1,2020-11-05_09h19.11.832,kura-A2,2020.1.2,Win32,60,,,,,,,,,,,,,,,,,,,,,,,,,
,,,,,,,,,,,block_1/weak_n_72_4.wav,no,n,weak,72.0,1.441009476,17.41543124,,,no,na,0,no,m,37,R,Yes,1,2020-11-05_09h19.11.832,kura-A2,2020.1.2,Win32,60,space,8.26647,"[""space"",""space"",""space"",""space"",""space"",""space"",""space"",""space"",""space"",""space"",""space"",""space"",""space"",""space"",""space"",""space"",""space""]","[2.237235000000055,3.098694999999907,4.006444999999971,4.891380000000041,5.6916949999999815,6.498484999999846,7.344849999999951,8.202804999999898,9.001250000000027,9.849789999999985,10.643154999999979,11.46577000000002,12.345685000000003,13.193399999999883,14.003879999999981,14.837544999999864,15.672855000000027]",space,0.902755,0.0,0.0,0.0,4.0,1.0,,,,,,,,,,,,,,
,,,,,,,,,,,block_1/medium_n_81_4.wav,no,n,medium,81.0,1.742854158,16.25138024,,,no,na,0,no,m,37,R,Yes,1,2020-11-05_09h19.11.832,kura-A2,2020.1.2,Win32,60,,,"[""space"",""space"",""space"",""space"",""space"",""space"",""space"",""space"",""space"",""space"",""space"",""space"",""space"",""space"",""space"",""space"",""space"",""space""]","[1.6029600000001665,2.3521950000001652,3.1284250000001066,3.905134999999973,4.569200000000137,5.294520000000148,6.049985000000106,6.817490000000134,7.539690000000064,8.326620000000048,9.126899999999978,9.792200000000093,10.520745000000034,11.245769999999993,11.96574499999997,12.687535000000025,13.447765000000118,14.198485000000119]",space,4.73385,0.0,1.0,1.0,38.0,1.0,,,,,,,,,,,,,,
,,,,,,,,,,,block_1/none_n_105_4.wav,no,n,none,105.0,1.493653366,16.97025201,,,no,na,0,no,m,37,R,Yes,1,2020-11-05_09h19.11.832,kura-A2,2020.1.2,Win32,60,,,"[""space"",""space"",""space"",""space"",""space"",""space"",""space"",""space"",""space"",""space"",""space"",""space"",""space"",""space"",""space"",""space"",""space"",""space"",""space""]","[2.73170499999992,3.1951050000000123,3.6586549999999534,4.1647399999999095,4.667085000000043,5.2349449999999536,5.78207499999985,6.376544999999851,7.044364999999971,7.670965000000024,8.5007599999999,9.963984999999866,10.635669999999891,11.282929999999851,11.971804999999904,12.675025000000005,13.395274999999856,14.180519999999888,15.029039999999895]",space,0.75421,0.0,2.0,2.0,14.0,1.0,,,,,,,,,,,,,,
,,,,,,,,,,,block_1/weak_n_119_3.wav,no,n,weak,119.0,2.459758036,10.81612992,,,no,na,0,no,m,37,R,Yes,1,2020-11-05_09h19.11.832,kura-A2,2020.1.2,Win32,60,,,"[""space"",""space"",""space"",""space"",""space"",""space"",""space"",""space"",""space"",""space"",""space"",""space"",""space"",""space"",""space"",""space""]","[2.0971949999998287,2.5459849999999733,2.9777349999999387,3.4514149999999972,3.8576200000000256,4.274414999999863,4.6742199999998775,5.141480000000001,5.529170000000022,5.938209999999799,6.3287699999998495,6.737294999999904,7.201954999999998,7.618234999999913,8.073490000000021,8.537464999999884]",space,0.99687,0.0,3.0,3.0,37.0,1.0,,,,,,,,,,,,,,
,,,,,,,,,,,block_1/weak_n_105_3.wav,no,n,weak,105.0,1.738990723,13.41450093,,,no,na,0,no,m,37,R,Yes,1,2020-11-05_09h19.11.832,kura-A2,2020.1.2,Win32,60,,,"[""space"",""space"",""space"",""space"",""space"",""space"",""space"",""space"",""space"",""space"",""space""]","[4.729285000000118,5.392749999999978,6.168175000000019,6.944790000000012,7.694835000000012,8.432984999999917,9.233060000000023,9.922019999999975,10.55224999999993,11.243015000000014,11.857604999999921]",space,0.58521,0.0,4.0,4.0,27.0,1.0,,,,,,,,,,,,,,
,,,,,,,,,,,block_1/medium_n_119_3.wav,no,n,medium,119.0,1.238363393,11.09976929,,,no,na,0,no,m,37,R,Yes,1,2020-11-05_09h19.11.832,kura-A2,2020.1.2,Win32,60,,,"[""space"",""space"",""space"",""space"",""space"",""space"",""space"",""space"",""space"",""space"",""space"",""space"",""space"",""space"",""space"",""space"",""space""]","[2.48433,2.8995299999999133,3.3053050000000894,3.643624999999929,4.051484999999957,4.590779999999995,5.042834999999968,5.776595000000043,6.219835000000103,6.711189999999988,7.178235000000086,7.645909999999958,8.113080000000082,8.605289999999968,9.08086000000003,9.53954500000009,10.0151350000001]",space,0.807095,0.0,5.0,5.0,22.0,1.0,,,,,,,,,,,,,,
,,,,,,,,,,,block_1/strong_n_92_4.wav,no,n,strong,92.0,2.276261723,15.98016195,,,no,na,0,no,m,37,R,Yes,1,2020-11-05_09h19.11.832,kura-A2,2020.1.2,Win32,60,,,"[""space"",""space"",""space"",""space"",""space"",""space"",""space"",""space"",""space"",""space"",""space"",""space"",""space"",""space"",""space"",""space"",""space""]","[2.7285850000000664,3.4321199999999408,4.135494999999992,4.848439999999982,5.559119999999865,6.259115000000065,6.976419999999962,7.68725500000005,8.415154999999913,9.129580000000033,9.830819999999903,10.549064999999928,11.239205000000084,11.983760000000075,12.705185000000029,13.402000000000072,14.13687999999999]",space,1.04311,0.0,6.0,6.0,34.0,1.0,,,,,,,,,,,,,,
,,,,,,,,,,,block_1/none_n_119_3.wav,no,n,none,119.0,1.932281918,14.89500301,,,no,na,0,no,m,37,R,Yes,1,2020-11-05_09h19.11.832,kura-A2,2020.1.2,Win32,60,,,"[""space"",""space"",""space"",""space"",""space"",""space""]","[5.238949999999932,6.084875000000011,6.877250000000004,7.729000000000042,8.610940000000028,12.541394999999966]",space,0.41916,0.0,7.0,7.0,24.0,1.0,,,,,,,,,,,,,,
,,,,,,,,,,,block_1/none_n_119_4.wav,no,n,none,119.0,2.009432028,15.37111003,,,no,na,0,no,m,37,R,Yes,1,2020-11-05_09h19.11.832,kura-A2,2020.1.2,Win32,60,,,"[""space"",""space"",""space"",""space"",""space"",""space"",""space"",""space"",""space"",""space"",""space"",""space"",""space"",""space"",""space"",""space"",""space"",""space"",""space""]","[2.8753050000000258,3.451090000000022,4.8915649999999005,5.194700000000012,5.57507499999997,5.97827499999994,6.4036049999999705,6.772915000000012,7.194739999999911,7.628084999999828,8.003555000000006,8.490974999999935,8.915544999999838,9.418709999999919,9.9071899999999,10.427104999999983,10.96625999999992,11.442789999999832,11.967104999999947]",space,0.238255,0.0,8.0,8.0,20.0,1.0,,,,,,,,,,,,,,
,,,,,,,,,,,block_1/medium_n_105_3.wav,no,n,medium,105.0,2.417465983,14.09955215,,,no,na,0,no,m,37,R,Yes,1,2020-11-05_09h19.11.832,kura-A2,2020.1.2,Win32,60,,,"[""space"",""space"",""space"",""space"",""space"",""space"",""space"",""space"",""space"",""space"",""space"",""space"",""space"",""space"",""space"",""space"",""space"",""space"",""space""]","[1.5198450000002595,2.0957000000003063,2.6802550000002157,3.2555350000002363,3.8393150000001697,4.431630000000041,5.0247300000000905,5.583070000000134,6.184490000000096,6.782905000000028,7.335370000000239,7.951075000000401,8.495550000000094,9.088060000000041,9.66325500000039,10.280475000000024,10.817940000000362,11.431170000000293,11.992285000000265]",space,0.981225,0.0,9.0,9.0,0.0,1.0,,,,,,,,,,,,,,
,,,,,,,,,,,block_1/strong_n_72_4.wav,no,n,strong,72.0,1.599228342,16.96784512,,,no,na,0,no,m,37,R,Yes,1,2020-11-05_09h19.11.832,kura-A2,2020.1.2,Win32,60,,,"[""space"",""space"",""space"",""space"",""space"",""space"",""space"",""space"",""space"",""space"",""space"",""space"",""space"",""space"",""space"",""space"",""space"",""space""]","[2.3205900000002657,3.1051299999999173,3.881930000000011,4.6564149999999245,5.48154999999997,6.265390000000025,7.088940000000093,7.882380000000012,8.665050000000065,9.44220499999983,10.242259999999987,11.02475000000004,11.84997999999996,12.641515000000254,13.456685000000107,14.170900000000074,14.955214999999953,15.75651999999991]",space,0.93623,0.0,10.0,10.0,35.0,1.0,,,,,,,,,,,,,,
,,,,,,,,,,,block_1/strong_n_105_4.wav,no,n,strong,105.0,1.30585928,13.14087062,,,no,na,0,no,m,37,R,Yes,1,2020-11-05_09h19.11.832,kura-A2,2020.1.2,Win32,60,,,"[""space"",""space"",""space"",""space"",""space"",""space"",""space"",""space"",""space"",""space"",""space"",""space"",""space"",""space"",""space"",""space"",""space"",""space"",""space""]","[1.3024199999999837,1.9103000000000065,2.5705599999996593,3.126534999999876,3.7422750000000633,4.350104999999985,4.966349999999693,5.534779999999955,6.151389999999992,6.744264999999814,7.361214999999902,7.9623750000000655,8.595765000000029,9.162989999999809,9.775044999999864,10.383299999999963,10.999339999999847,11.591134999999667,12.20889999999963]",space,1.20509,0.0,11.0,11.0,3.0,1.0,,,,,,,,,,,,,,
,,,,,,,,,,,block_1/strong_n_119_3.wav,no,n,strong,119.0,1.213627968,10.9792062,,,no,na,0,no,m,37,R,Yes,1,2020-11-05_09h19.11.832,kura-A2,2020.1.2,Win32,60,,,"[""space"",""space"",""space"",""space"",""space"",""space"",""space"",""space"",""space"",""space"",""space"",""space"",""space"",""space"",""space"",""space"",""space"",""space"",""space""]","[1.1407500000000255,1.670430000000124,2.1873850000001767,2.6820349999998143,3.1891749999999774,3.689444999999978,4.140179999999873,4.642975000000206,5.113844999999856,5.633585000000039,6.108654999999999,6.5780399999998735,7.0593800000001465,7.570044999999936,8.05076999999983,8.539075000000139,9.046139999999923,9.53870999999981,10.010044999999991]",space,0.62062,0.0,12.0,12.0,16.0,1.0,,,,,,,,,,,,,,
,,,,,,,,,,,block_1/strong_n_105_3.wav,no,n,strong,105.0,1.156897655,12.38746455,,,no,na,0,no,m,37,R,Yes,1,2020-11-05_09h19.11.832,kura-A2,2020.1.2,Win32,60,,,"[""space"",""space"",""space"",""space"",""space"",""space"",""space"",""space"",""space"",""space"",""space"",""space"",""space"",""space"",""space"",""space"",""space"",""space"",""space""]","[1.1690549999998439,1.7628700000000208,2.3193750000000364,2.8895149999998466,3.467149999999947,4.049265000000105,4.649594999999863,5.193380000000161,5.7692550000001575,6.346280000000206,6.913660000000164,7.5063749999999345,8.06109000000015,8.645860000000084,9.179395000000113,9.763445000000047,10.353889999999865,10.92194500000005,11.505834999999934]",space,0.76338,0.0,13.0,13.0,9.0,1.0,,,,,,,,,,,,,,
,,,,,,,,,,,block_1/weak_n_92_3.wav,no,n,weak,92.0,1.887522896,14.6307882,,,no,na,0,no,m,37,R,Yes,1,2020-11-05_09h19.11.832,kura-A2,2020.1.2,Win32,60,,,"[""space"",""space"",""space"",""space"",""space"",""space"",""space"",""space"",""space"",""space"",""space"",""space"",""space"",""space"",""space"",""space"",""space"",""space"",""space"",""space""]","[1.5247300000000905,2.0863500000000386,2.716585000000123,3.389035000000149,4.04433999999992,4.673880000000281,5.284375000000182,5.959190000000035,6.621779999999944,7.268149999999878,7.900869999999941,8.516625000000204,9.18916500000023,9.823885000000246,10.468394999999873,11.1565599999999,11.774719999999888,12.437640000000101,13.135369999999966,14.254455000000235]",space,0.66892,0.0,14.0,14.0,5.0,1.0,,,,,,,,,,,,,,
,,,,,,,,,,,block_1/medium_n_92_3.wav,no,n,medium,92.0,1.602440637,13.28810957,,,no,na,0,no,m,37,R,Yes,1,2020-11-05_09h19.11.832,kura-A2,2020.1.2,Win32,60,,,"[""space"",""space"",""space"",""space"",""space"",""space"",""space"",""space"",""space"",""space"",""space"",""space"",""space"",""space"",""space"",""space"",""space"",""space"",""space""]","[0.9945349999998143,1.6579600000000028,2.220139999999901,2.8041550000002644,3.422555000000102,3.973605000000134,4.5737050000002455,5.200995000000148,5.825815000000148,6.442890000000261,7.060295000000224,7.6612850000001345,8.321374999999989,8.930435000000216,9.514549999999872,10.147199999999884,10.737485000000106,11.382480000000214,11.952009999999973]",space,0.34361,0.0,15.0,15.0,2.0,1.0,,,,,,,,,,,,,,
,,,,,,,,,,,block_1/none_n_72_3.wav,no,n,none,72.0,1.892162994,23.61892036,,,no,na,0,no,m,37,R,Yes,1,2020-11-05_09h19.11.832,kura-A2,2020.1.2,Win32,60,,,"[""space"",""space"",""space"",""space"",""space"",""space"",""space"",""space"",""space"",""space"",""space"",""space"",""space"",""space"",""space"",""space"",""space"",""space"",""space"",""space""]","[6.368564999999762,8.31921999999986,11.183059999999841,11.883934999999838,12.569174999999632,13.202499999999873,13.836569999999938,14.405005000000074,14.97769500000004,15.633739999999761,16.233224999999948,16.792050000000017,17.446789999999964,18.062934999999925,18.753879999999754,19.377089999999953,20.060969999999998,20.662734999999884,21.351754999999685,22.023959999999988]",space,0.41898,0.0,16.0,16.0,18.0,1.0,,,,,,,,,,,,,,
,,,,,,,,,,,block_1/weak_n_81_4.wav,no,n,weak,81.0,2.484743178,17.5438815,,,no,na,0,no,m,37,R,Yes,1,2020-11-05_09h19.11.832,kura-A2,2020.1.2,Win32,60,,,"[""space"",""space"",""space"",""space"",""space"",""space"",""space"",""space"",""space"",""space"",""space"",""space"",""space"",""space"",""space"",""space""]","[2.744930000000295,3.572425000000294,4.342755000000125,5.103605000000243,5.918480000000272,6.762700000000223,7.586300000000392,8.41762000000017,9.231750000000375,10.048475000000053,10.775094999999965,11.600765000000138,12.343785000000025,13.10260500000004,13.89473500000031,14.738150000000132]",space,0.35088,0.0,17.0,17.0,36.0,1.0,,,,,,,,,,,,,,
,,,,,,,,,,,block_1/none_n_92_4.wav,no,n,none,92.0,1.296817987,15.18938035,,,no,na,0,no,m,37,R,Yes,1,2020-11-05_09h19.11.832,kura-A2,2020.1.2,Win32,60,,,"[""space"",""space"",""space"",""space"",""space"",""space"",""space""]","[6.959850000000188,10.147890000000189,10.855344999999943,11.567105000000083,12.30212500000016,12.968490000000202,13.886410000000069]",space,0.31883,0.0,18.0,18.0,19.0,1.0,,,,,,,,,,,,,,
,,,,,,,,,,,block_1/none_n_81_3.wav,no,n,none,81.0,1.098648096,17.74277508,,,no,na,0,no,m,37,R,Yes,1,2020-11-05_09h19.11.832,kura-A2,2020.1.2,Win32,60,,,"[""space"",""space"",""space"",""space"",""space"",""space"",""space"",""space"",""space"",""space"",""space"",""space"",""space""]","[3.9996550000000752,5.046939999999722,8.130865000000085,8.799750000000131,9.592274999999972,10.874185000000125,14.136715000000095,14.504579999999805,14.913114999999834,15.376459999999952,15.807949999999892,16.257505000000037,16.707785000000058]",space,0.534695,0.0,19.0,19.0,29.0,1.0,,,,,,,,,,,,,,
,,,,,,,,,,,block_1/medium_n_72_3.wav,no,n,medium,72.0,2.102023577,18.17590113,,,no,na,0,no,m,37,R,Yes,1,2020-11-05_09h19.11.832,kura-A2,2020.1.2,Win32,60,,,"[""space"",""space"",""space"",""space"",""space"",""space"",""space"",""space"",""space"",""space"",""space"",""space"",""space"",""space"",""space"",""space"",""space"",""space""]","[1.7364400000001297,2.4604049999998097,3.228810000000067,4.088940000000093,4.9905650000000605,5.74853499999972,6.612039999999979,7.42779500000006,8.294579999999769,9.100644999999986,9.964204999999765,10.781044999999722,11.620724999999766,12.467939999999999,13.292500000000018,14.05259500000011,14.870344999999816,15.688224999999875]",space,0.630005,0.0,20.0,20.0,13.0,1.0,,,,,,,,,,,,,,
,,,,,,,,,,,block_1/strong_n_72_3.wav,no,n,strong,72.0,2.03136762,17.09667374,,,no,na,0,no,m,37,R,Yes,1,2020-11-05_09h19.11.832,kura-A2,2020.1.2,Win32,60,,,"[""space"",""space"",""space"",""space"",""space"",""space"",""space"",""space"",""space"",""space"",""space"",""space"",""space"",""space"",""space"",""space"",""space"",""space"",""space""]","[1.5918750000000728,2.303229999999985,3.1110750000002554,3.855935000000045,4.67412000000013,5.441319999999905,6.208515000000261,6.961220000000139,7.746059999999943,8.530409999999847,9.298025000000052,10.04048499999999,10.809880000000248,11.61878999999999,12.418865000000096,13.194880000000012,13.953620000000228,14.714995000000272,15.448449999999866]",space,0.669115,0.0,21.0,21.0,32.0,1.0,,,,,,,,,,,,,,
,,,,,,,,,,,block_1/medium_n_92_4.wav,no,n,medium,92.0,1.438882438,14.02917722,,,no,na,0,no,m,37,R,Yes,1,2020-11-05_09h19.11.832,kura-A2,2020.1.2,Win32,60,,,"[""space"",""space"",""space"",""space"",""space"",""space"",""space"",""space"",""space"",""space"",""space"",""space"",""space"",""space"",""space"",""space"",""space"",""space"",""space""]","[1.6372949999999946,2.320220000000063,3.071705000000293,3.7004500000002736,4.30063999999993,4.861450000000332,5.4700550000002295,6.109765000000152,6.776855000000069,7.316534999999931,7.997350000000097,8.579400000000078,9.196475000000191,9.805655000000115,10.416000000000167,11.00518000000011,11.650204999999914,12.283920000000307,12.884919999999966]",space,0.668595,0.0,22.0,22.0,11.0,1.0,,,,,,,,,,,,,,
,,,,,,,,,,,block_1/medium_n_119_4.wav,no,n,medium,119.0,1.261396351,9.568471181,,,no,na,0,no,m,37,R,Yes,1,2020-11-05_09h19.11.832,kura-A2,2020.1.2,Win32,60,,,"[""space"",""space"",""space"",""space"",""space"",""space"",""space"",""space"",""space"",""space"",""space"",""space""]","[3.616665000000012,4.05610999999999,4.464030000000093,4.912589999999909,5.373584999999821,5.833859999999731,6.296864999999798,6.760159999999814,7.226049999999759,7.64391999999998,8.095974999999726,8.536164999999983]",space,0.61835,0.0,23.0,23.0,17.0,1.0,,,,,,,,,,,,,,
,,,,,,,,,,,block_1/weak_n_119_4.wav,no,n,weak,119.0,2.305568033,13.07926418,,,no,na,0,no,m,37,R,Yes,1,2020-11-05_09h19.11.832,kura-A2,2020.1.2,Win32,60,,,"[""space"",""space"",""space"",""space"",""space"",""space"",""space"",""space"",""space"",""space"",""space"",""space"",""space"",""space"",""space"",""space"",""space""]","[2.4884750000001077,3.0722200000000157,3.7226800000003095,4.340385000000424,5.026590000000397,5.62800500000003,6.175865000000158,6.651780000000144,7.173025000000052,7.71721000000025,8.246010000000297,8.78825500000039,9.292374999999993,9.773835000000417,10.308260000000246,10.915960000000268,12.478925000000345]",space,0.33564,0.0,24.0,24.0,31.0,1.0,,,,,,,,,,,,,,
,,,,,,,,,,,block_1/weak_n_105_4.wav,no,n,weak,105.0,1.436012468,12.20911904,,,no,na,0,no,m,37,R,Yes,1,2020-11-05_09h19.11.832,kura-A2,2020.1.2,Win32,60,,,"[""space"",""space"",""space"",""space"",""space"",""space"",""space"",""space"",""space"",""space"",""space"",""space"",""space"",""space"",""space"",""space"",""space""]","[1.1262499999998,1.7739999999998872,3.8559700000000703,4.373499999999694,4.885260000000017,5.425455000000056,5.909764999999879,6.410289999999804,6.927400000000034,7.394734999999855,7.878400000000056,8.379120000000057,8.885899999999765,9.421954999999798,9.957349999999678,10.48135000000002,10.94916000000012]",space,0.385245,0.0,25.0,25.0,28.0,1.0,,,,,,,,,,,,,,
,,,,,,,,,,,block_1/strong_n_81_4.wav,no,n,strong,81.0,1.727706814,17.69954355,,,no,na,0,no,m,37,R,Yes,1,2020-11-05_09h19.11.832,kura-A2,2020.1.2,Win32,60,,,"[""space"",""space"",""space"",""space"",""space"",""space"",""space"",""space"",""space"",""space"",""space"",""space"",""space"",""space"",""space"",""space"",""space"",""space"",""space""]","[1.7976650000000518,2.573660000000018,3.3980350000001636,4.207014999999956,4.974515000000338,5.792214999999942,6.6377950000000965,7.460475000000315,8.262540000000172,9.080515000000105,9.901734999999917,10.699955000000045,11.489669999999933,12.318604999999934,13.152610000000095,13.903835000000072,14.754145000000335,15.558864999999969,16.37485000000015]",space,0.318215,0.0,26.0,26.0,1.0,1.0,,,,,,,,,,,,,,
,,,,,,,,,,,block_1/weak_n_92_4.wav,no,n,weak,92.0,2.208253857,14.29442166,,,no,na,0,no,m,37,R,Yes,1,2020-11-05_09h19.11.832,kura-A2,2020.1.2,Win32,60,,,"[""space"",""space"",""space"",""space"",""space"",""space"",""space"",""space"",""space"",""space"",""space"",""space"",""space"",""space"",""space"",""space"",""space""]","[2.1611250000000837,2.788140000000112,3.3553649999998925,3.9062149999999747,4.5142850000002,5.081920000000082,5.761434999999892,6.362419999999929,6.921665000000303,7.545785000000251,8.230184999999892,8.781880000000001,9.371590000000197,9.949094999999943,10.533245000000079,11.132509999999911,11.787415000000237]",space,0.584225,0.0,27.0,27.0,15.0,1.0,,,,,,,,,,,,,,
,,,,,,,,,,,block_1/none_n_72_4.wav,no,n,none,72.0,1.118979514,23.86124709,,,no,na,0,no,m,37,R,Yes,1,2020-11-05_09h19.11.832,kura-A2,2020.1.2,Win32,60,,,"[""space"",""space"",""space"",""space"",""space"",""space"",""space""]","[4.706695000000309,19.960829999999987,20.578989999999976,21.179055000000062,21.75483000000031,22.296679999999924,22.890805]",space,0.15447,0.0,28.0,28.0,21.0,1.0,,,,,,,,,,,,,,
,,,,,,,,,,,block_1/none_n_81_4.wav,no,n,none,81.0,2.242955119,22.19488256,,,no,na,0,no,m,37,R,Yes,1,2020-11-05_09h19.11.832,kura-A2,2020.1.2,Win32,60,,,"[""space"",""space"",""space"",""space"",""space"",""space"",""space"",""space"",""space"",""space"",""space"",""space"",""space"",""space"",""space"",""space"",""space"",""space"",""space"",""space"",""space"",""space"",""space"",""space"",""space"",""space"",""space"",""space""]","[1.4236300000002302,1.9254150000001573,2.354190000000017,2.846190000000206,3.3414600000000974,3.8387649999999667,7.285725000000184,7.917989999999918,8.51197000000002,9.165750000000116,9.76796000000013,10.40829500000018,11.04977000000008,11.616039999999884,12.206204999999954,12.837530000000243,13.438064999999824,14.062469999999848,14.653530000000046,15.28877999999986,15.925960000000032,16.50644999999986,17.117529999999988,17.693615000000136,18.262075000000095,18.950525000000198,19.55018999999993,20.23788999999988]",space,0.307065,0.0,29.0,29.0,26.0,1.0,,,,,,,,,,,,,,
,,,,,,,,,,,block_1/strong_n_92_3.wav,no,n,strong,92.0,1.754608557,14.24499404,,,no,na,0,no,m,37,R,Yes,1,2020-11-05_09h19.11.832,kura-A2,2020.1.2,Win32,60,,,"[""space"",""space"",""space"",""space"",""space"",""space"",""space"",""space"",""space"",""space"",""space"",""space"",""space"",""space"",""space"",""space"",""space"",""space"",""space""]","[1.4531849999998485,2.0765550000000985,2.7067550000001575,3.290950000000066,3.9633600000001934,4.572555000000193,5.3911550000002535,5.892205000000104,6.525869999999941,7.163045000000238,7.777149999999892,8.361844999999903,9.002880000000005,9.647210000000086,10.338670000000093,10.915150000000267,11.572544999999991,12.188030000000253,12.796780000000126]",space,4.25391,0.0,30.0,30.0,39.0,1.0,,,,,,,,,,,,,,
,,,,,,,,,,,block_1/strong_n_119_4.wav,no,n,strong,119.0,1.980480326,12.048825,,,no,na,0,no,m,37,R,Yes,1,2020-11-05_09h19.11.832,kura-A2,2020.1.2,Win32,60,,,"[""space"",""space"",""space"",""space"",""space"",""space"",""space"",""space"",""space"",""space"",""space"",""space"",""space"",""space"",""space"",""space"",""space"",""space"",""space""]","[1.152784999999767,1.6686799999997675,2.1830449999997654,2.6340449999997873,3.201654999999846,3.729330000000118,4.236319999999978,4.737544999999955,5.187570000000051,5.745504999999866,6.273869999999988,6.774979999999687,7.251420000000053,7.7257549999999355,8.26026499999989,8.760034999999789,9.29498999999987,9.75557499999968,10.296109999999771]",space,2.55387,0.0,31.0,31.0,23.0,1.0,,,,,,,,,,,,,,
,,,,,,,,,,,block_1/weak_n_81_3.wav,no,n,weak,81.0,1.412334255,16.47029344,,,no,na,0,no,m,37,R,Yes,1,2020-11-05_09h19.11.832,kura-A2,2020.1.2,Win32,60,,,"[""space"",""space"",""space"",""space"",""space"",""space"",""space"",""space"",""space"",""space"",""space"",""space"",""space"",""space"",""space"",""space"",""space"",""space""]","[3.551590000000033,4.2954450000002,4.919435000000249,5.599480000000312,6.376710000000003,7.08734000000004,7.861905000000206,8.601060000000416,9.33647000000019,10.09815000000026,10.87159500000007,11.609695000000102,12.41912500000035,13.160894999999982,13.954709999999977,14.66470500000014,15.375504999999976,16.151090000000295]",space,0.790595,0.0,32.0,32.0,30.0,1.0,,,,,,,,,,,,,,
,,,,,,,,,,,block_1/weak_n_72_3.wav,no,n,weak,72.0,1.008682366,16.87657352,,,no,na,0,no,m,37,R,Yes,1,2020-11-05_09h19.11.832,kura-A2,2020.1.2,Win32,60,,,"[""space"",""space"",""space"",""space"",""space"",""space"",""space"",""space"",""space"",""space"",""space"",""space"",""space"",""space"",""space"",""space"",""space"",""space""]","[2.8710700000001452,3.570970000000216,4.306330000000344,5.091075000000274,5.818385000000035,6.626545000000078,7.443770000000313,8.163070000000062,8.93024000000014,9.70667500000036,10.452535000000353,11.299915000000055,12.1084350000001,12.885955000000195,13.676755000000412,14.491115000000264,15.288080000000264,16.056120000000192]",space,0.13484,0.0,33.0,33.0,8.0,1.0,,,,,,,,,,,,,,
,,,,,,,,,,,block_1/medium_n_72_4.wav,no,n,medium,72.0,1.204769933,15.71334136,,,no,na,0,no,m,37,R,Yes,1,2020-11-05_09h19.11.832,kura-A2,2020.1.2,Win32,60,,,"[""space"",""space"",""space"",""space"",""space"",""space"",""space"",""space"",""space"",""space"",""space"",""space"",""space"",""space"",""space"",""space"",""space"",""space"",""space""]","[1.623015000000123,2.3101449999999204,3.033559999999852,3.7344849999999497,4.485509999999977,5.190090000000055,5.973570000000109,6.717729999999847,7.389854999999898,8.149359999999888,8.902274999999918,9.653819999999996,10.410264999999981,11.177909999999883,11.837355000000116,12.589730000000145,13.365194999999858,14.198884999999791,14.821860000000015]",space,0.684985,0.0,34.0,34.0,7.0,1.0,,,,,,,,,,,,,,
,,,,,,,,,,,block_1/medium_n_105_4.wav,no,n,medium,105.0,1.402482856,15.80924023,,,no,na,0,no,m,37,R,Yes,1,2020-11-05_09h19.11.832,kura-A2,2020.1.2,Win32,60,,,"[""space"",""space"",""space"",""space"",""space"",""space"",""space"",""space"",""space"",""space"",""space"",""space"",""space"",""space"",""space"",""space"",""space""]","[2.2500950000003286,3.0222450000001118,3.8633200000003853,4.670630000000074,5.4154600000001665,6.14373999999998,6.90764500000023,7.599790000000212,8.310285000000022,9.126720000000205,9.844115000000329,10.595530000000053,11.254225000000133,11.973725000000286,12.730785000000196,13.499320000000353,14.13423499999999]",space,0.31934,0.0,35.0,35.0,12.0,1.0,,,,,,,,,,,,,,
,,,,,,,,,,,block_1/strong_n_81_3.wav,no,n,strong,81.0,1.6043637,15.60930701,,,no,na,0,no,m,37,R,Yes,1,2020-11-05_09h19.11.832,kura-A2,2020.1.2,Win32,60,,,"[""space"",""space"",""space"",""space"",""space"",""space"",""space"",""space"",""space"",""space"",""space"",""space"",""space"",""space"",""space"",""space"",""space"",""space"",""space"",""space""]","[0.1900999999998021,1.4871549999998024,2.2527299999997012,2.9564249999998538,3.6283199999998033,4.356420000000071,5.069394999999986,5.842034999999669,6.532525000000078,7.259589999999662,7.943489999999656,8.611844999999903,9.397539999999935,10.098195000000032,10.748739999999998,11.525264999999763,12.223079999999754,12.953029999999671,13.631184999999732,14.372469999999794]",space,0.85138,0.0,36.0,36.0,10.0,1.0,,,,,,,,,,,,,,
,,,,,,,,,,,block_1/none_n_92_3.wav,no,n,none,92.0,2.336707073,18.23675242,,,no,na,0,no,m,37,R,Yes,1,2020-11-05_09h19.11.832,kura-A2,2020.1.2,Win32,60,,,"[""space"",""space"",""space"",""space"",""space"",""space"",""space"",""space""]","[9.071865000000344,10.215020000000095,11.300455000000056,12.150285000000167,12.818210000000363,13.570875000000342,14.290655000000243,15.438364999999976]",space,0.23358,0.0,37.0,37.0,25.0,1.0,,,,,,,,,,,,,,
,,,,,,,,,,,block_1/medium_n_81_3.wav,no,n,medium,81.0,1.199970007,16.72060493,,,no,na,0,no,m,37,R,Yes,1,2020-11-05_09h19.11.832,kura-A2,2020.1.2,Win32,60,,,"[""space"",""space"",""space"",""space"",""space"",""space"",""space"",""space"",""space"",""space"",""space"",""space"",""space"",""space"",""space"",""space"",""space""]","[3.006525000000238,3.789130000000114,4.581825000000208,5.401335000000017,6.210225000000264,7.010385000000042,7.8153550000001815,8.550525000000107,9.397260000000188,10.18190500000037,10.998649999999998,11.85461000000032,12.650785000000269,13.387140000000272,14.206560000000081,14.966725000000224,15.782195000000229]",space,2.187805,0.0,38.0,38.0,33.0,1.0,,,,,,,,,,,,,,
,,,,,,,,,,,block_1/none_n_105_3.wav,no,n,none,105.0,2.216733946,14.87818519,,,no,na,0,no,m,37,R,Yes,1,2020-11-05_09h19.11.832,kura-A2,2020.1.2,Win32,60,,,"[""space"",""space"",""space"",""space"",""space""]","[10.990499999999884,11.655629999999746,12.33478500000001,13.036959999999908,14.30259500000011]",space,1.0852,0.0,39.0,39.0,6.0,1.0,,,,,,,,,,,,,,
,,,,,,,,,,,block_2/strong_t_92_3.wav,timbre,t,strong,92.0,2.058598996,15.10526566,,,no,na,0,no,m,37,R,Yes,1,2020-11-05_09h19.11.832,kura-A2,2020.1.2,Win32,60,,,,,,,,,,,,space,4.38336,"[""space"",""space"",""space"",""space"",""space"",""space"",""space"",""space"",""space"",""space"",""space"",""space"",""space"",""space"",""space"",""space"",""space"",""space"",""space""]","[1.3650900000002366,2.0733500000001186,2.735320000000229,3.3693350000003193,4.025590000000193,4.721455000000333,5.362565000000359,6.0403800000003685,6.707310000000234,7.401360000000295,8.107989999999972,8.715350000000399,9.411185000000387,10.044370000000072,10.745260000000144,11.368844999999965,12.057310000000143,12.753015000000232,13.464835000000221]",space,1.552035,0.0,0.0,0.0,3.0,1.0,,,
,,,,,,,,,,,block_2/strong_t_81_4.wav,timbre,t,strong,81.0,1.059530738,15.41717246,,,no,na,0,no,m,37,R,Yes,1,2020-11-05_09h19.11.832,kura-A2,2020.1.2,Win32,60,,,,,,,,,,,,,,"[""space"",""space"",""space"",""space"",""space"",""space"",""space"",""space"",""space"",""space"",""space"",""space"",""space"",""space"",""space"",""space"",""space"",""space"",""space""]","[1.7047599999996237,2.372425000000021,3.073099999999613,3.775109999999586,4.52431499999966,5.217094999999972,5.961519999999837,6.698909999999614,7.450864999999794,8.179479999999785,8.873249999999643,9.626869999999599,10.365924999999606,11.051195000000007,11.81809499999963,12.551934999999958,13.303019999999833,13.978650000000016,14.737684999999601]",space,2.27146,0.0,1.0,1.0,34.0,1.0,,,
,,,,,,,,,,,block_2/medium_t_105_4.wav,timbre,t,medium,105.0,1.80685877,13.54300389,,,no,na,0,no,m,37,R,Yes,1,2020-11-05_09h19.11.832,kura-A2,2020.1.2,Win32,60,,,,,,,,,,,,,,"[""space"",""space"",""space"",""space"",""space"",""space"",""space"",""space"",""space"",""space"",""space"",""space"",""space"",""space"",""space"",""space"",""space""]","[2.917554999999993,3.51825000000008,4.1854000000003,4.839159999999993,5.469235000000026,6.078730000000178,6.704439999999977,7.337590000000091,7.956325000000106,8.565065000000232,9.180875000000015,9.824645000000146,10.374770000000353,10.958980000000338,11.510445000000345,12.494640000000345,13.24583500000017]",space,3.16405,0.0,2.0,2.0,23.0,1.0,,,
,,,,,,,,,,,block_2/none_t_105_3.wav,timbre,t,none,105.0,1.906849656,15.72757528,,,no,na,0,no,m,37,R,Yes,1,2020-11-05_09h19.11.832,kura-A2,2020.1.2,Win32,60,,,,,,,,,,,,,,"[""space"",""space"",""space"",""space"",""space"",""space"",""space""]","[10.13704000000007,10.847944999999982,11.547665000000052,12.266189999999824,12.943745000000035,13.717759999999998,14.824479999999767]",space,3.679695,0.0,3.0,3.0,14.0,1.0,,,
,,,,,,,,,,,block_2/strong_t_105_4.wav,timbre,t,strong,105.0,1.910106179,12.02788396,,,no,na,0,no,m,37,R,Yes,1,2020-11-05_09h19.11.832,kura-A2,2020.1.2,Win32,60,,,,,,,,,,,,,,"[""space"",""space"",""space"",""space"",""space"",""space"",""space"",""space"",""space"",""space"",""space"",""space"",""space"",""space"",""space"",""space"",""space"",""space"",""space""]","[1.3174300000000585,1.8375299999997878,2.3584799999998722,2.8373750000000655,3.3529349999998885,3.8482300000000578,4.3380449999999655,4.837805000000117,5.32540999999992,5.83878999999979,6.3557449999998425,6.812674999999672,7.349795000000086,7.841759999999795,8.332824999999957,8.84394999999995,9.343899999999849,9.827714999999898,10.362329999999929]",space,0.61842,0.0,4.0,4.0,18.0,1.0,,,
,,,,,,,,,,,block_2/weak_t_81_3.wav,timbre,t,weak,81.0,1.745235196,18.01484971,,,no,na,0,no,m,37,R,Yes,1,2020-11-05_09h19.11.832,kura-A2,2020.1.2,Win32,60,,,,,,,,,,,,,,"[""space"",""space"",""space"",""space"",""space"",""space"",""space"",""space"",""space"",""space"",""space"",""space"",""space"",""space"",""space"",""space"",""space""]","[3.6158699999996315,4.3730249999998705,5.174254999999903,6.158959999999752,6.981494999999995,7.766189999999824,8.579854999999952,9.380739999999605,10.157184999999572,11.037374999999884,11.83387999999968,12.567329999999856,13.405629999999746,14.220594999999776,15.008459999999559,15.879004999999779,17.49393999999984]",space,0.51042,0.0,5.0,5.0,6.0,1.0,,,
,,,,,,,,,,,block_2/strong_t_72_3.wav,timbre,t,strong,72.0,1.757165856,18.23458082,,,no,na,0,no,m,37,R,Yes,1,2020-11-05_09h19.11.832,kura-A2,2020.1.2,Win32,60,,,,,,,,,,,,,,"[""space"",""space"",""space"",""space"",""space"",""space"",""space"",""space"",""space"",""space"",""space"",""space"",""space"",""space"",""space"",""space"",""space"",""space"",""space""]","[1.7737350000002152,2.58066000000008,3.430644999999913,4.223340000000007,5.058564999999817,5.960239999999885,6.765769999999975,7.614595000000008,8.470490000000154,9.302270000000135,10.149335000000065,10.949854999999843,11.845830000000205,12.718124999999873,13.541735000000244,14.389549999999872,15.220980000000054,16.071905000000243,16.906980000000203]",space,3.205125,0.0,6.0,6.0,5.0,1.0,,,
,,,,,,,,,,,block_2/medium_t_119_4.wav,timbre,t,medium,119.0,2.1713947,11.99221103,,,no,na,0,no,m,37,R,Yes,1,2020-11-05_09h19.11.832,kura-A2,2020.1.2,Win32,60,,,,,,,,,,,,,,"[""space"",""space"",""space"",""space"",""space"",""space"",""space"",""space"",""space""]","[6.411755000000085,6.96400500000027,7.500710000000254,8.01272999999992,8.565550000000258,9.068395000000237,9.614004999999906,10.117444999999861,11.485895000000255]",space,3.06179,0.0,7.0,7.0,30.0,1.0,,,
,,,,,,,,,,,block_2/weak_t_105_3.wav,timbre,t,weak,105.0,1.911505731,13.14248079,,,no,na,0,no,m,37,R,Yes,1,2020-11-05_09h19.11.832,kura-A2,2020.1.2,Win32,60,,,,,,,,,,,,,,"[""space"",""space"",""space"",""space"",""space"",""space"",""space"",""space"",""space"",""space"",""space"",""space"",""space"",""space"",""space""]","[3.6223399999998946,4.240435000000161,4.857669999999871,5.457589999999982,6.150939999999991,6.8631249999998545,7.527379999999994,8.14484500000026,8.729075000000194,9.295759999999973,9.847084999999879,10.350925000000188,10.953100000000177,11.566115000000082,12.218449999999848]",space,0.852295,0.0,8.0,8.0,4.0,1.0,,,
,,,,,,,,,,,block_2/none_t_72_4.wav,timbre,t,none,72.0,1.053800106,24.75334659,,,no,na,0,no,m,37,R,Yes,1,2020-11-05_09h19.11.832,kura-A2,2020.1.2,Win32,60,,,,,,,,,,,,,,"[""space"",""space"",""space"",""space"",""space"",""space"",""space"",""space"",""space"",""space"",""space"",""space"",""space"",""space"",""space"",""space"",""space"",""space"",""space"",""space"",""space"",""space"",""space"",""space"",""space"",""space"",""space""]","[8.613414999999804,9.226114999999936,9.80978499999992,10.349699999999757,10.917789999999968,11.528999999999996,12.080454999999802,12.730564999999842,13.34922000000006,13.935039999999844,14.542069999999967,15.135674999999992,15.758424999999988,16.37015999999994,16.970014999999876,17.52046500000006,18.08766999999989,18.62944000000016,19.206305000000157,19.79815499999995,20.391419999999925,21.008969999999863,21.608960000000025,22.206075000000055,22.845850000000155,23.496999999999844,24.062524999999823]",space,1.1043,0.0,9.0,9.0,15.0,1.0,,,
,,,,,,,,,,,block_2/medium_t_92_3.wav,timbre,t,medium,92.0,1.388240232,13.37372776,,,no,na,0,no,m,37,R,Yes,1,2020-11-05_09h19.11.832,kura-A2,2020.1.2,Win32,60,,,,,,,,,,,,,,"[""space"",""space"",""space"",""space"",""space"",""space"",""space"",""space"",""space"",""space"",""space"",""space"",""space"",""space"",""space"",""space"",""space"",""space"",""space""]","[1.4197850000000471,2.019459999999981,2.6047599999997146,3.190599999999904,3.7894000000001142,4.4065599999998994,5.024765000000116,5.624754999999823,6.180109999999786,6.826564999999846,7.4034200000000965,8.019284999999854,8.635899999999765,9.262615000000096,9.819639999999708,10.447924999999941,11.072659999999814,11.584190000000035,12.17225499999995]",space,0.9859,0.0,10.0,10.0,35.0,1.0,,,
,,,,,,,,,,,block_2/medium_t_81_4.wav,timbre,t,medium,81.0,2.313262111,15.10881767,,,no,na,0,no,m,37,R,Yes,1,2020-11-05_09h19.11.832,kura-A2,2020.1.2,Win32,60,,,,,,,,,,,,,,"[""space"",""space"",""space"",""space"",""space"",""space"",""space"",""space"",""space"",""space"",""space"",""space"",""space"",""space"",""space"",""space"",""space"",""space"",""space""]","[2.571194999999989,3.2412399999998343,3.897739999999885,4.457254999999805,5.074210000000221,5.742060000000038,6.375120000000152,7.076610000000073,7.722545000000082,8.39465999999993,9.090189999999893,9.74661500000002,10.347659999999905,11.033054999999877,11.65766500000018,12.333180000000084,13.051120000000083,13.737909999999829,14.929009999999835]",space,0.96895,0.0,11.0,11.0,2.0,1.0,,,
,,,,,,,,,,,block_2/strong_t_81_3.wav,timbre,t,strong,81.0,1.276002308,16.49137646,,,no,na,0,no,m,37,R,Yes,1,2020-11-05_09h19.11.832,kura-A2,2020.1.2,Win32,60,,,,,,,,,,,,,,"[""space"",""space"",""space"",""space"",""space"",""space"",""space"",""space"",""space"",""space"",""space"",""space"",""space"",""space"",""space"",""space"",""space"",""space"",""space""]","[1.6991100000000188,2.450489999999718,3.1517699999999422,3.938904999999977,4.720184999999674,5.522825000000012,6.291664999999739,7.05902500000002,7.850134999999682,8.580479999999625,9.363454999999703,10.115209999999934,10.898220000000038,11.8136199999999,12.481884999999693,13.241395000000011,14.010119999999915,14.733789999999772,15.58536499999991]",space,2.525715,0.0,12.0,12.0,24.0,1.0,,,
,,,,,,,,,,,block_2/medium_t_92_4.wav,timbre,t,medium,92.0,1.599417172,14.59601581,,,no,na,0,no,m,37,R,Yes,1,2020-11-05_09h19.11.832,kura-A2,2020.1.2,Win32,60,,,,,,,,,,,,,,"[""space"",""space"",""space"",""space"",""space"",""space"",""space"",""space"",""space"",""space"",""space"",""space"",""space"",""space"",""space"",""space"",""space"",""space"",""space""]","[2.0367299999998068,2.607394999999997,3.2558899999999085,3.9592549999997573,4.640150000000176,5.290939999999864,5.96819000000005,6.659024999999929,7.289404999999988,7.967139999999745,8.629089999999906,9.2963850000001,9.931904999999915,10.666055000000142,11.265904999999748,11.92074999999977,12.600210000000061,13.223344999999881,14.113310000000183]",space,0.419025,0.0,13.0,13.0,25.0,1.0,,,
,,,,,,,,,,,block_2/none_t_81_4.wav,timbre,t,none,81.0,1.883383873,17.9242909,,,no,na,0,no,m,37,R,Yes,1,2020-11-05_09h19.11.832,kura-A2,2020.1.2,Win32,60,,,,,,,,,,,,,,"[""space"",""space"",""space"",""space"",""space"",""space"",""space"",""space"",""space"",""space"",""space"",""space"",""space"",""space"",""space"",""space""]","[7.117525000000114,7.804900000000089,8.461525000000165,9.128990000000158,9.796774999999798,10.46423999999979,11.098439999999528,11.7660249999999,12.484465,13.167974999999842,13.844715000000178,14.487145000000055,15.093174999999974,15.693745000000035,16.339304999999968,16.990414999999757]",space,2.041345,0.0,14.0,14.0,12.0,1.0,,,
,,,,,,,,,,,block_2/medium_t_81_3.wav,timbre,t,medium,81.0,1.280563259,13.87394194,,,no,na,0,no,m,37,R,Yes,1,2020-11-05_09h19.11.832,kura-A2,2020.1.2,Win32,60,,,,,,,,,,,,,,"[""space"",""space"",""space"",""space"",""space"",""space"",""space"",""space"",""space"",""space"",""space"",""space"",""space"",""space"",""space"",""space""]","[3.2551699999999073,3.9057299999999486,4.558945000000222,5.191514999999981,5.808925000000272,6.47606500000029,7.185590000000047,7.862585000000308,8.428985000000011,9.046929999999975,9.61444500000016,10.288669999999911,10.968615000000227,11.600385000000188,12.208370000000286,12.825090000000273]",space,1.436415,0.0,15.0,15.0,8.0,1.0,,,
,,,,,,,,,,,block_2/weak_t_92_4.wav,timbre,t,weak,92.0,2.338363624,13.8208126,,,no,na,0,no,m,37,R,Yes,1,2020-11-05_09h19.11.832,kura-A2,2020.1.2,Win32,60,,,,,,,,,,,,,,"[""space"",""space"",""space"",""space"",""space"",""space"",""space"",""space"",""space"",""space"",""space"",""space"",""space"",""space"",""space"",""space"",""space""]","[3.456279999999879,4.091155000000072,4.678335000000061,5.292484999999942,5.866790000000037,6.497855000000072,7.04569999999967,7.628714999999829,8.166279999999915,8.741784999999709,9.364284999999654,9.965174999999817,10.581954999999653,11.16631499999994,11.766599999999926,12.33444499999996,12.951630000000023]",space,0.22694,0.0,16.0,16.0,29.0,1.0,,,
,,,,,,,,,,,block_2/strong_t_72_4.wav,timbre,t,strong,72.0,1.957123463,17.07435702,,,no,na,0,no,m,37,R,Yes,1,2020-11-05_09h19.11.832,kura-A2,2020.1.2,Win32,60,,,,,,,,,,,,,,"[""space"",""space"",""space"",""space"",""space"",""space"",""space"",""space"",""space"",""space"",""space"",""space"",""space"",""space"",""space"",""space"",""space"",""space"",""space"",""space""]","[0.46780500000022585,1.1277100000002065,2.0949249999998756,2.894760000000133,3.7267000000001644,4.490374999999858,5.274705000000267,6.058755000000019,6.879455000000235,7.568990000000213,8.462239999999838,9.215555000000222,9.99125499999991,10.75885500000004,11.591754999999921,12.3270950000001,13.161965000000237,13.88655000000017,14.688735000000179,15.522815000000264]",space,0.26821,0.0,17.0,17.0,1.0,1.0,,,
,,,,,,,,,,,block_2/none_t_105_4.wav,timbre,t,none,105.0,1.723889958,15.53967227,,,no,na,0,no,m,37,R,Yes,1,2020-11-05_09h19.11.832,kura-A2,2020.1.2,Win32,60,,,,,,,,,,,,,,"[""space"",""space"",""space"",""space"",""space"",""space"",""space"",""space"",""space"",""space"",""space"",""space"",""space"",""space"",""space"",""space""]","[0.1088049999998475,6.293584999999894,7.009720000000016,7.64438999999993,8.295494999999846,8.89603500000021,9.496834999999919,10.049875000000156,10.651875000000018,11.266660000000229,11.857730000000174,12.474050000000261,13.133955000000242,13.768254999999954,14.536285000000134,15.177580000000034]",space,3.088135,0.0,18.0,18.0,20.0,1.0,,,
,,,,,,,,,,,block_2/weak_t_72_4.wav,timbre,t,weak,72.0,1.41938316,17.89516547,,,no,na,0,no,m,37,R,Yes,1,2020-11-05_09h19.11.832,kura-A2,2020.1.2,Win32,60,,,,,,,,,,,,,,"[""space"",""space"",""space"",""space"",""space"",""space"",""space"",""space"",""space"",""space"",""space"",""space"",""space"",""space"",""space"",""space"",""space"",""space"",""space"",""space"",""space"",""space"",""space""]","[0.1576300000001538,0.8025299999999334,1.4866550000001553,2.190425000000232,2.8881000000001222,3.541870000000017,4.150700000000143,4.901934999999867,5.677365000000009,6.429845000000114,7.261820000000171,8.429544999999962,9.239105000000109,10.021804999999858,10.832870000000185,11.700205000000096,12.551645000000008,13.401699999999892,14.262940000000071,15.072099999999864,15.814310000000205,16.639900000000125,17.27394000000004]",space,0.051325,0.0,19.0,19.0,33.0,1.0,,,
,,,,,,,,,,,block_2/weak_t_81_4.wav,timbre,t,weak,81.0,1.138387897,14.33417021,,,no,na,0,no,m,37,R,Yes,1,2020-11-05_09h19.11.832,kura-A2,2020.1.2,Win32,60,,,,,,,,,,,,,,"[""space"",""space"",""space"",""space"",""space"",""space"",""space"",""space"",""space"",""space"",""space"",""space"",""space"",""space"",""space"",""space"",""space"",""space"",""space"",""space""]","[0.250774999999976,1.5936149999997724,2.248474999999871,2.9214349999997467,3.5890300000000934,4.20699999999988,4.842795000000024,5.506574999999884,6.17826500000001,6.828845000000001,7.496924999999919,8.196164999999837,8.881135000000086,9.603309999999965,10.282954999999674,10.9859849999998,11.651079999999865,12.333654999999908,13.018415000000005,13.836199999999735]",space,0.92907,0.0,20.0,20.0,0.0,1.0,,,
,,,,,,,,,,,block_2/medium_t_72_4.wav,timbre,t,medium,72.0,1.912133969,19.94959429,,,no,na,0,no,m,37,R,Yes,1,2020-11-05_09h19.11.832,kura-A2,2020.1.2,Win32,60,,,,,,,,,,,,,,"[""space"",""space"",""space"",""space"",""space"",""space"",""space"",""space"",""space"",""space"",""space"",""space"",""space"",""space"",""space"",""space"",""space"",""space"",""space"",""space"",""space"",""space""]","[0.40257999999994354,1.2193200000001525,1.9865799999997762,2.8424300000001494,3.8994800000000396,4.774129999999786,5.675815000000057,6.542899999999918,7.444739999999911,8.338275000000067,9.347150000000056,10.242679999999837,11.11567500000001,12.117514999999912,13.013500000000022,13.886140000000069,14.754660000000058,15.649985000000015,16.640840000000026,17.557774999999765,18.40916500000003,19.210464999999886]",space,0.06774,0.0,21.0,21.0,36.0,1.0,,,
,,,,,,,,,,,block_2/strong_t_92_4.wav,timbre,t,strong,92.0,1.817525361,14.05856845,,,no,na,0,no,m,37,R,Yes,1,2020-11-05_09h19.11.832,kura-A2,2020.1.2,Win32,60,,,,,,,,,,,,,,"[""space"",""space"",""space"",""space"",""space"",""space"",""space"",""space"",""space"",""space"",""space"",""space"",""space"",""space"",""space"",""space"",""space"",""space"",""space"",""space"",""space""]","[0.6514350000002196,1.2695000000003347,1.756865000000289,2.3799150000004374,2.996005000000423,3.6557650000004287,4.267905000000155,4.868115000000216,5.525015000000167,6.175715000000309,6.803115000000162,7.484075000000303,8.129765000000134,8.699785000000247,9.34811000000036,9.971405000000232,10.631835000000137,11.259430000000066,11.88327500000014,12.517735000000357,13.602465000000393]",space,2.72113,0.0,22.0,22.0,9.0,1.0,,,
,,,,,,,,,,,block_2/strong_t_105_3.wav,timbre,t,strong,105.0,1.973938856,13.50654657,,,no,na,0,no,m,37,R,Yes,1,2020-11-05_09h19.11.832,kura-A2,2020.1.2,Win32,60,,,,,,,,,,,,,,"[""space"",""space"",""space"",""space"",""space"",""space"",""space"",""space"",""space"",""space"",""space"",""space"",""space"",""space"",""space"",""space""]","[3.038395000000037,3.613510000000133,4.223500000000058,4.790615000000344,5.39124000000038,5.926010000000133,6.51166000000012,7.111769999999979,7.712615000000369,8.314415000000281,8.871004999999968,9.498665000000074,10.098630000000185,10.678090000000338,11.25489000000016,11.850969999999961]",space,0.301475,0.0,23.0,23.0,21.0,1.0,,,
,,,,,,,,,,,block_2/medium_t_119_3.wav,timbre,t,medium,119.0,1.894752713,10.65330147,,,no,na,0,no,m,37,R,Yes,1,2020-11-05_09h19.11.832,kura-A2,2020.1.2,Win32,60,,,,,,,,,,,,,,"[""space"",""space"",""space"",""space"",""space"",""space"",""space"",""space"",""space"",""space"",""space"",""space"",""space"",""space"",""space"",""space"",""space"",""space""]","[0.10132500000008804,1.7864349999999831,2.287159999999858,2.7323849999997947,3.226104999999734,3.6887400000000525,4.089860000000044,4.490045000000009,4.979119999999966,5.4245549999998275,5.849934999999732,6.249879999999848,6.759805000000142,7.186779999999999,7.610204999999951,8.098190000000159,8.511989999999969,8.987749999999778]",space,0.67466,0.0,24.0,24.0,37.0,1.0,,,
,,,,,,,,,,,block_2/none_t_81_3.wav,timbre,t,none,81.0,2.3234515,21.58667145,,,no,na,0,no,m,37,R,Yes,1,2020-11-05_09h19.11.832,kura-A2,2020.1.2,Win32,60,,,,,,,,,,,,,,"[""space"",""space"",""space"",""space"",""space"",""space"",""space"",""space"",""space"",""space"",""space"",""space"",""space"",""space"",""space"",""space"",""space"",""space"",""space""]","[11.474674999999934,11.985589999999775,12.463444999999865,12.954054999999698,13.40438499999982,13.855634999999893,14.288424999999734,14.74013500000001,15.17621999999983,15.608144999999695,16.024644999999964,16.457859999999982,16.87996999999973,17.34212499999967,17.82697999999982,18.261269999999968,18.697329999999965,19.16199000000006,19.979225000000042]",space,0.652015,0.0,25.0,25.0,10.0,1.0,,,
,,,,,,,,,,,block_2/strong_t_119_3.wav,timbre,t,strong,119.0,2.177542179,13.00520658,,,no,na,0,no,m,37,R,Yes,1,2020-11-05_09h19.11.832,kura-A2,2020.1.2,Win32,60,,,,,,,,,,,,,,"[""space"",""space"",""space"",""space"",""space"",""space"",""space"",""space"",""space"",""space"",""space"",""space"",""space"",""space"",""space"",""space"",""space"",""space"",""space""]","[0.9521300000001247,1.6022600000001148,2.187629999999899,2.753429999999753,3.2590500000001157,3.8558349999998427,4.390149999999721,4.93271999999979,5.492400000000089,6.052549999999883,6.612709999999879,7.19633500000009,7.744540000000143,8.312109999999848,8.879370000000108,9.41940999999997,9.939624999999978,10.476734999999735,11.059879999999794]",space,1.15337,0.0,26.0,26.0,28.0,1.0,,,
,,,,,,,,,,,block_2/weak_t_119_4.wav,timbre,t,weak,119.0,2.497661912,13.1066415,,,no,na,0,no,m,37,R,Yes,1,2020-11-05_09h19.11.832,kura-A2,2020.1.2,Win32,60,,,,,,,,,,,,,,"[""space"",""space"",""space"",""space"",""space"",""space"",""space"",""space"",""space"",""space"",""space"",""space"",""space"",""space"",""space"",""space"",""space""]","[5.197335000000294,5.791915000000245,6.360059999999976,6.910049999999956,7.444445000000087,7.962105000000065,8.479280000000017,8.979905000000144,9.464359999999942,9.931184999999914,10.34778499999993,10.815495000000283,11.283725000000231,11.62875000000031,12.185465000000022,12.48739999999998,12.75327500000003]",space,0.68657,0.0,27.0,27.0,11.0,1.0,,,
,,,,,,,,,,,block_2/weak_t_105_4.wav,timbre,t,weak,105.0,1.205192231,12.73516956,,,no,na,0,no,m,37,R,Yes,1,2020-11-05_09h19.11.832,kura-A2,2020.1.2,Win32,60,,,,,,,,,,,,,,"[""space"",""space"",""space"",""space"",""space"",""space"",""space"",""space"",""space"",""space"",""space"",""space"",""space"",""space"",""space"",""space"",""space"",""space""]","[2.170984999999746,2.7215549999996256,3.295169999999871,3.839719999999943,4.391029999999773,4.940454999999929,5.457889999999679,5.9513349999997445,6.470619999999599,6.998949999999695,7.560559999999896,8.215774999999667,8.7991549999997,9.42978499999981,9.943019999999706,10.486634999999751,11.070189999999911,11.702749999999924]",space,0.484305,0.0,28.0,28.0,7.0,1.0,,,
,,,,,,,,,,,block_2/weak_t_72_3.wav,timbre,t,weak,72.0,1.543417886,17.01208002,,,no,na,0,no,m,37,R,Yes,1,2020-11-05_09h19.11.832,kura-A2,2020.1.2,Win32,60,,,,,,,,,,,,,,"[""space"",""space"",""space"",""space"",""space"",""space"",""space"",""space"",""space"",""space"",""space"",""space"",""space"",""space"",""space""]","[5.515469999999823,6.190555000000131,6.941885000000184,7.748340000000098,8.49296000000004,9.359590000000026,10.111504999999852,10.97894499999984,11.812925000000178,12.631795000000238,13.482375000000047,14.26640499999985,15.002359999999953,15.752379999999903,16.403119999999944]",space,0.918725,0.0,29.0,29.0,26.0,1.0,,,
,,,,,,,,,,,block_2/strong_t_119_4.wav,timbre,t,strong,119.0,1.529717424,11.39760858,,,no,na,0,no,m,37,R,Yes,1,2020-11-05_09h19.11.832,kura-A2,2020.1.2,Win32,60,,,,,,,,,,,,,,"[""space"",""space"",""space"",""space"",""space"",""space"",""space"",""space"",""space"",""space"",""space"",""space"",""space"",""space"",""space"",""space"",""space"",""space"",""space"",""space""]","[1.0687600000001112,1.568889999999783,2.0402100000001155,2.538654999999835,3.039404999999988,3.5734449999999924,4.0558350000001155,4.551384999999755,5.0083700000000135,5.55818999999974,6.047614999999951,6.576000000000022,7.093829999999798,7.5783299999998235,8.095719999999801,8.579944999999952,9.104934999999841,9.575539999999819,10.09784499999978,11.015985]",space,0.384995,0.0,30.0,30.0,39.0,1.0,,,
,,,,,,,,,,,block_2/none_t_72_3.wav,timbre,t,none,72.0,1.763210745,21.95785927,,,no,na,0,no,m,37,R,Yes,1,2020-11-05_09h19.11.832,kura-A2,2020.1.2,Win32,60,,,,,,,,,,,,,,"[""space"",""space"",""space"",""space"",""space"",""space"",""space"",""space"",""space"",""space"",""space"",""space"",""space"",""space"",""space"",""space"",""space"",""space"",""space"",""space"",""space""]","[4.825010000000248,5.696275000000014,6.643644999999879,7.50627499999996,8.578975000000128,9.615680000000111,10.582085000000234,11.439039999999977,12.350345000000061,13.239789999999857,14.063409999999976,14.975325000000112,15.991460000000188,16.831400000000258,17.75117000000023,18.64464000000021,19.52101000000016,20.414149999999836,21.098040000000083,21.488070000000107,21.850465000000213]",space,0.222155,0.0,31.0,31.0,19.0,1.0,,,
,,,,,,,,,,,block_2/none_t_92_3.wav,timbre,t,none,92.0,1.328085357,13.39815338,,,no,na,0,no,m,37,R,Yes,1,2020-11-05_09h19.11.832,kura-A2,2020.1.2,Win32,60,,,,,,,,,,,,,,"[""space"",""space"",""space"",""space"",""space"",""space"",""space"",""space"",""space"",""space"",""space""]","[7.538885000000391,8.20768500000031,8.79262000000017,9.37644500000033,9.94455000000039,10.553025000000162,11.064795000000231,11.616155000000163,12.112535000000207,12.797215000000051,13.231910000000425]",space,0.170895,0.0,32.0,32.0,17.0,1.0,,,
,,,,,,,,,,,block_2/medium_t_105_3.wav,timbre,t,medium,105.0,1.319167427,12.09599282,,,no,na,0,no,m,37,R,Yes,1,2020-11-05_09h19.11.832,kura-A2,2020.1.2,Win32,60,,,,,,,,,,,,,,"[""space"",""space"",""space"",""space"",""space"",""space"",""space"",""space"",""space"",""space"",""space"",""space"",""space"",""space"",""space"",""space"",""space""]","[2.77512999999999,3.3656200000000354,3.910335000000032,4.460480000000189,4.998180000000048,5.5430850000002465,6.061245000000326,6.604514999999992,7.177895000000262,7.745380000000296,8.246834999999919,8.814760000000206,9.348190000000159,9.898105000000214,10.439175000000205,11.016000000000076,11.500950000000103]",space,0.53568,0.0,33.0,33.0,16.0,1.0,,,
,,,,,,,,,,,block_2/weak_t_92_3.wav,timbre,t,weak,92.0,1.995389518,17.35720358,,,no,na,0,no,m,37,R,Yes,1,2020-11-05_09h19.11.832,kura-A2,2020.1.2,Win32,60,,,,,,,,,,,,,,"[""space"",""space"",""space"",""space"",""space"",""space"",""space"",""space"",""space"",""space"",""space"",""space"",""space"",""space"",""space"",""space"",""space"",""space""]","[3.2882650000001377,4.009365000000344,4.706100000000333,5.54047500000047,6.274910000000091,7.009060000000318,7.777180000000044,8.534910000000309,9.34539500000028,10.16363500000034,11.014994999999999,11.749305000000277,12.383180000000266,13.217525000000023,14.023585000000367,14.738100000000031,15.432805000000371,16.172039999999924]",space,0.51869,0.0,34.0,34.0,38.0,1.0,,,
,,,,,,,,,,,block_2/weak_t_119_3.wav,timbre,t,weak,119.0,2.134308914,11.54587354,,,no,na,0,no,m,37,R,Yes,1,2020-11-05_09h19.11.832,kura-A2,2020.1.2,Win32,60,,,,,,,,,,,,,,"[""space"",""space"",""space"",""space"",""space"",""space"",""space""]","[7.307734999999866,7.752594999999928,8.216750000000047,8.712564999999813,9.176285000000007,9.676805000000058,10.6108949999998]",space,0.501125,0.0,35.0,35.0,13.0,1.0,,,
,,,,,,,,,,,block_2/none_t_92_4.wav,timbre,t,none,92.0,1.414044957,16.25508804,,,no,na,0,no,m,37,R,Yes,1,2020-11-05_09h19.11.832,kura-A2,2020.1.2,Win32,60,,,,,,,,,,,,,,"[""space"",""space"",""space"",""space"",""space"",""space"",""space"",""space"",""space"",""space"",""space"",""space"",""space"",""space"",""space"",""space"",""space"",""space"",""space""]","[8.679529999999886,9.105199999999968,9.54622500000005,9.947609999999713,10.335009999999784,10.750684999999976,11.111335000000054,11.52750500000002,11.887290000000121,12.2666549999999,12.634209999999712,13.001330000000053,13.351944999999887,13.74380999999994,14.096320000000105,14.431244999999763,14.787089999999807,15.104440000000068,15.571390000000065]",space,0.42403,0.0,36.0,36.0,22.0,1.0,,,
,,,,,,,,,,,block_2/medium_t_72_3.wav,timbre,t,medium,72.0,1.064285065,17.84451182,,,no,na,0,no,m,37,R,Yes,1,2020-11-05_09h19.11.832,kura-A2,2020.1.2,Win32,60,,,,,,,,,,,,,,"[""space"",""space"",""space"",""space"",""space"",""space"",""space"",""space"",""space"",""space"",""space"",""space"",""space"",""space"",""space"",""space"",""space"",""space"",""space""]","[1.6696400000000722,2.409845000000132,3.3381749999998647,4.193720000000212,5.113315000000057,5.993450000000166,6.843414999999823,7.695165000000088,8.585645000000113,9.397460000000137,10.248169999999845,11.082625000000007,11.874075000000175,12.75509000000011,13.637645000000248,14.539874999999938,15.473629999999957,16.374945000000025,17.4821350000002]",space,0.54702,0.0,37.0,37.0,31.0,1.0,,,
,,,,,,,,,,,block_2/none_t_119_3.wav,timbre,t,none,119.0,1.207484261,12.32644118,,,no,na,0,no,m,37,R,Yes,1,2020-11-05_09h19.11.832,kura-A2,2020.1.2,Win32,60,,,,,,,,,,,,,,"[""space"",""space"",""space"",""space"",""space"",""space"",""space"",""space""]","[6.50923499999999,7.277334999999766,8.078579999999874,8.846929999999702,9.647269999999935,10.424499999999625,11.24953000000005,11.775964999999815]",space,0.07394,0.0,38.0,38.0,32.0,1.0,,,
,,,,,,,,,,,block_2/none_t_119_4.wav,timbre,t,none,119.0,2.16972576,11.23222009,,,no,na,0,no,m,37,R,Yes,1,2020-11-05_09h19.11.832,kura-A2,2020.1.2,Win32,60,,,,,,,,,,,,,,"[""space"",""space"",""space"",""space""]","[8.012260000000197,8.846850000000131,9.70335,10.36532000000011]",space,0.250785,0.0,39.0,39.0,27.0,1.0,,,
,,,,,,,,,,,,,,,,,,,,no,na,0,no,m,37,R,Yes,1,2020-11-05_09h19.11.832,kura-A2,2020.1.2,Win32,60,,,,,,,,,,,,,,,,,,,,,,,space,18.95888,
