key_resp.keys,key_resp.rt,practice_taps.keys,practice_taps.rt,keyresp.keys,keyresp.rt,practice_stims_loop.thisRepN,practice_stims_loop.thisTrialN,practice_stims_loop.thisN,practice_stims_loop.thisIndex,practice_stims_loop.ran,sndfile,type,tempo,cond,version,delay,dur,Participant Initials,"If you are a MTurk worker, what is your MTurk worker ID?","If you are not an MTurk worker, please provide your email address",Are you wearing headphones?,What are the headphone make and model?,"How many years of musical training, if any, do you have?",Do you have any hearing problems? Please describe,What is your sex (f/m/decline)?,What is your age?,What is your handedness (R/L/ambi)?,Are you currently in a secure and quiet room without a possible interruption?,session ,date,expName,psychopyVersion,OS,frameRate,instructions_prompt.keys,instructions_prompt.rt,block1_taps.keys,block1_taps.rt,key_resp_2.keys,key_resp_2.rt,trials.thisRepN,trials.thisTrialN,trials.thisN,trials.thisIndex,trials.ran,key_resp2.keys,key_resp2.rt,block2_taps.keys,block2_taps.rt,key_resp_3.keys,key_resp_3.rt,trials_2.thisRepN,trials_2.thisTrialN,trials_2.thisN,trials_2.thisIndex,trials_2.ran,key_resp_4.keys,key_resp_4.rt
space,12.218145,"[""space"",""space"",""space""]","[10.93062999995891,11.587045000051148,11.802630000049248]",space,4.365805,0.0,0.0,0.0,0.0,1.0,block_2/none_n_92_3.wav,no,n,none,92.0,2.306164339,18.20620969,,,,yes,Samsung ,1,no,m,40,r,yes,1,2020-09-16_11h23.41.792,kura-B2,2020.1.2,Win32,60,,,,,,,,,,,,,,,,,,,,,,,,
,,,,space,9.464145,0.0,1.0,1.0,2.0,1.0,block_2/weak_n_105_4.wav,no,n,weak,105.0,1.982674472,12.75578105,,,,yes,Samsung ,1,no,m,40,r,yes,1,2020-09-16_11h23.41.792,kura-B2,2020.1.2,Win32,60,,,,,,,,,,,,,,,,,,,,,,,,
,,"[""space"",""space"",""space"",""space"",""space"",""space"",""space"",""space""]","[5.421955000027083,5.8538100000005215,6.23085000005085,6.837240000022575,7.389304999960586,7.914164999965578,8.621984999976121,11.382530000060797]",space,5.09206,0.0,2.0,2.0,3.0,1.0,block_1/medium_t_119_4.wav,timbre,t,medium,119.0,1.752316959,11.57313329,,,,yes,Samsung ,1,no,m,40,r,yes,1,2020-09-16_11h23.41.792,kura-B2,2020.1.2,Win32,60,,,,,,,,,,,,,,,,,,,,,,,,
,,"[""space"",""space"",""space"",""space"",""space""]","[2.2652100000996143,6.096875000046566,7.206805000081658,8.118620000081137,8.264339999994263]",space,2.676985,0.0,3.0,3.0,1.0,1.0,block_2/medium_n_119_4.wav,no,n,medium,119.0,1.224634286,9.531709116,,,,yes,Samsung ,1,no,m,40,r,yes,1,2020-09-16_11h23.41.792,kura-B2,2020.1.2,Win32,60,,,,,,,,,,,,,,,,,,,,,,,,
,,,,,,,,,,,block_1/none_t_72_3.wav,timbre,t,none,72.0,1.707698408,21.90234693,,,,yes,Samsung ,1,no,m,40,r,yes,1,2020-09-16_11h23.41.792,kura-B2,2020.1.2,Win32,60,space,23.100315,"[""space"",""space"",""space"",""space"",""space"",""space"",""space"",""space"",""space"",""space"",""space"",""space"",""space"",""space"",""space"",""space"",""space"",""space"",""space"",""space"",""space"",""space"",""space"",""space"",""space"",""space"",""space"",""space"",""space"",""space"",""space"",""space"",""space"",""space"",""space"",""space"",""space"",""space"",""space"",""space"",""space"",""space"",""space"",""space"",""space"",""space"",""space"",""space"",""space"",""space"",""space""]","[0.41630000004079193,0.8057200000621378,1.0699200000381097,1.4500700000207871,1.815995000069961,2.249665000010282,2.5655850000912324,2.8048700001090765,2.981745000113733,3.149580000084825,3.437785000074655,3.878950000042096,4.433205000008456,4.636815000092611,5.081560000078753,5.494670000043698,5.917690000031143,6.332300000009127,6.59772000007797,6.9979300000704825,7.366185000049882,7.70222500001546,7.910535000031814,8.299115000059828,8.636780000058934,9.053450000006706,9.51451500004623,9.848405000055209,10.18163500004448,10.389010000042617,10.664175000041723,11.063420000020415,11.333045000093989,11.63776500010863,11.88668500003405,12.264049999997951,12.748905000044033,13.141825000056997,13.486170000047423,13.697170000057667,14.006030000047758,14.357035000110045,14.545095000066794,14.879030000069179,15.181795000098646,15.379615000099875,15.65382500004489,17.07859000004828,18.789320000098087,19.238045000005513,19.780885000014678]",space,1.383565,0.0,0.0,0.0,19.0,1.0,,,,,,,,,,,,,
,,,,,,,,,,,block_1/none_t_92_3.wav,timbre,t,none,92.0,1.813425609,13.88349364,,,,yes,Samsung ,1,no,m,40,r,yes,1,2020-09-16_11h23.41.792,kura-B2,2020.1.2,Win32,60,,,"[""space"",""space"",""space"",""space"",""space"",""space"",""space"",""space"",""space"",""space"",""space"",""space"",""space"",""space"",""space"",""space"",""space"",""space"",""space"",""space"",""space""]","[0.4342600000090897,0.9272000000346452,1.4863150001037866,2.07089500001166,2.6708650001091883,3.3325450000120327,3.95928500010632,4.654670000076294,5.318275000085123,5.887125000008382,6.4484700000612065,6.999110000091605,7.6487900000065565,8.265040000085719,8.832865000003949,9.381030000047758,9.914440000080504,10.471010000095703,10.926674999995157,11.51870500005316,12.082860000082292]",space,0.64043,0.0,1.0,1.0,17.0,1.0,,,,,,,,,,,,,
,,,,,,,,,,,block_1/none_t_92_4.wav,timbre,t,none,92.0,2.400883628,17.24192671,,,,yes,Samsung ,1,no,m,40,r,yes,1,2020-09-16_11h23.41.792,kura-B2,2020.1.2,Win32,60,,,"[""space"",""space"",""space"",""space"",""space"",""space"",""space"",""space"",""space"",""space"",""space"",""space"",""space"",""space"",""space"",""space"",""space"",""space"",""space"",""space"",""space"",""space"",""space"",""space"",""space"",""space"",""space""]","[0.5258499999763444,1.221350000007078,1.850609999964945,2.237985000014305,2.7014450000133365,3.1732949999859557,3.6504249999998137,4.247280000010505,4.583234999910928,4.816969999927096,5.000139999901876,5.8541849999455735,6.3149699999485165,6.732069999910891,7.048584999982268,7.277584999916144,7.649349999963306,7.8815750000067055,8.281774999923073,8.648884999915026,8.895699999993667,9.131264999974519,9.698284999933094,9.957719999947585,10.199439999996684,10.853969999938272,15.557614999939688]",space,1.35983,0.0,2.0,2.0,22.0,1.0,,,,,,,,,,,,,
,,,,,,,,,,,block_1/strong_t_119_4.wav,timbre,t,strong,119.0,1.237037075,11.10492823,,,,yes,Samsung ,1,no,m,40,r,yes,1,2020-09-16_11h23.41.792,kura-B2,2020.1.2,Win32,60,,,"[""space"",""space"",""space"",""space"",""space"",""space"",""space"",""space"",""space"",""space"",""space"",""space"",""space"",""space"",""space"",""space"",""space""]","[2.016665000002831,2.5599500000244007,3.0389300000388175,3.584939999971539,4.087270000018179,4.575680000009015,5.098944999976084,5.608305000001565,6.120519999996759,6.6157299999613315,7.103460000013001,7.616569999954663,8.081729999976233,8.575474999961443,9.097949999966659,9.591224999981932,10.143915000022389]",space,0.838605,0.0,3.0,3.0,39.0,1.0,,,,,,,,,,,,,
,,,,,,,,,,,block_1/strong_t_92_3.wav,timbre,t,strong,92.0,1.987733848,15.03440052,,,,yes,Samsung ,1,no,m,40,r,yes,1,2020-09-16_11h23.41.792,kura-B2,2020.1.2,Win32,60,,,"[""space"",""space"",""space"",""space"",""space"",""space"",""space"",""space"",""space"",""space"",""space"",""space"",""space"",""space"",""space"",""space"",""space"",""space"",""space"",""space"",""space""]","[0.3343999999342486,0.5851399999810383,1.3677049999823794,2.2059299999382347,2.8373300000093877,3.524764999980107,4.118625000002794,4.757774999947287,5.434484999976121,6.140855000005104,6.765279999934137,7.401710000005551,8.101434999960475,8.757749999989755,9.43186999997124,10.094289999920875,10.733464999939315,11.431585000013001,12.111244999920018,12.814479999942705,13.5017349999398]",space,201.294355,0.0,4.0,4.0,3.0,1.0,,,,,,,,,,,,,
,,,,,,,,,,,block_1/weak_t_92_4.wav,timbre,t,weak,92.0,1.530875014,13.01332399,,,,yes,Samsung ,1,no,m,40,r,yes,1,2020-09-16_11h23.41.792,kura-B2,2020.1.2,Win32,60,,,"[""space"",""space""]","[12.21476000000257,12.901539999991655]",space,1.03714,0.0,5.0,5.0,29.0,1.0,,,,,,,,,,,,,
,,,,,,,,,,,block_1/none_t_81_3.wav,timbre,t,none,81.0,2.10326082,21.36648077,,,,yes,Samsung ,1,no,m,40,r,yes,1,2020-09-16_11h23.41.792,kura-B2,2020.1.2,Win32,60,,,"[""space"",""space"",""space"",""space"",""space"",""space"",""space"",""space"",""space"",""space"",""space"",""space"",""space"",""space"",""space""]","[0.8747149999253452,1.410414999932982,1.6513649999396876,1.7864299999782816,2.300440000020899,2.484500000020489,2.6578049999661744,2.826039999956265,3.0353500000201166,3.185964999953285,3.3461649999953806,3.530004999949597,3.730325000011362,4.17801499995403,21.132009999942966]",space,22.399985,0.0,6.0,6.0,10.0,1.0,,,,,,,,,,,,,
,,,,,,,,,,,block_1/weak_t_105_4.wav,timbre,t,weak,105.0,1.882880114,13.41285744,,,,yes,Samsung ,1,no,m,40,r,yes,1,2020-09-16_11h23.41.792,kura-B2,2020.1.2,Win32,60,,,"[""space"",""space"",""space"",""space"",""space"",""space"",""space"",""space"",""space"",""space"",""space"",""space"",""space"",""space"",""space"",""space"",""space"",""space"",""space""]","[0.7386799999512732,1.019694999908097,1.2354249999625608,1.5941349999047816,1.9299999999348074,2.219209999893792,2.570054999901913,2.916469999938272,3.3303899999009445,3.658074999926612,4.117364999954589,4.954304999904707,5.874239999917336,7.162889999919571,7.970585000002757,8.39429999992717,8.750859999912791,12.283244999940507,13.026129999896511]",space,11.51516,0.0,7.0,7.0,7.0,1.0,,,,,,,,,,,,,
,,,,,,,,,,,block_1/none_t_72_4.wav,timbre,t,none,72.0,1.772355542,25.47190203,,,,yes,Samsung ,1,no,m,40,r,yes,1,2020-09-16_11h23.41.792,kura-B2,2020.1.2,Win32,60,,,"[""space"",""space"",""space"",""space"",""space"",""space"",""space"",""space"",""space"",""space"",""space"",""space"",""space"",""space"",""space"",""space"",""space"",""space"",""space"",""space"",""space"",""space"",""space"",""space"",""space""]","[0.6534799999790266,1.3166000000201166,1.6034099999815226,1.86035999993328,3.084625000017695,3.324099999968894,5.934129999950528,6.243434999953024,6.451645000022836,6.684394999989308,13.555485000018962,14.491655000019819,14.867934999987483,15.475329999928363,15.764354999992065,16.059705000021495,16.46765000000596,18.33233499992639,18.965959999943152,20.187780000036582,20.435685000033118,20.61998499999754,20.883514999994077,21.61979499994777,24.214290000032634]",space,9.144,0.0,8.0,8.0,15.0,1.0,,,,,,,,,,,,,
,,,,,,,,,,,block_1/strong_t_72_4.wav,timbre,t,strong,72.0,1.194355845,16.3115894,,,,yes,Samsung ,1,no,m,40,r,yes,1,2020-09-16_11h23.41.792,kura-B2,2020.1.2,Win32,60,,,"[""space"",""space"",""space"",""space"",""space"",""space"",""space"",""space"",""space"",""space"",""space"",""space"",""space"",""space"",""space"",""space"",""space"",""space""]","[2.492119999951683,3.203444999991916,3.771929999929853,4.587594999931753,5.365784999914467,6.148994999937713,6.907729999977164,7.6679950000252575,8.475540000014007,9.38168999995105,10.371704999939539,11.24332999996841,11.635659999912605,12.467769999988377,13.155365000013262,14.133135000010952,14.82007000001613,15.571905000018887]",space,13.16986,0.0,9.0,9.0,1.0,1.0,,,,,,,,,,,,,
,,,,,,,,,,,block_1/medium_t_72_3.wav,timbre,t,medium,72.0,2.203768917,18.98399567,,,,yes,Samsung ,1,no,m,40,r,yes,1,2020-09-16_11h23.41.792,kura-B2,2020.1.2,Win32,60,,,"[""space"",""space"",""space"",""space"",""space"",""space"",""space"",""space"",""space"",""space"",""space"",""space"",""space"",""space"",""space"",""space"",""space"",""space"",""space"",""space""]","[0.46841999993193895,3.1982249999418855,4.0762249999679625,4.446269999956712,4.860194999957457,5.908159999991767,6.652189999935217,7.292424999992363,7.798985000001267,8.446099999942817,9.33253999997396,10.236470000003465,11.197184999939054,11.87968999997247,12.619984999997541,13.494669999927282,14.468204999924637,15.523979999939911,16.293544999905862,17.747919999994338]",space,1.04288,0.0,10.0,10.0,31.0,1.0,,,,,,,,,,,,,
,,,,,,,,,,,block_1/strong_t_119_3.wav,timbre,t,strong,119.0,1.722630655,12.55029505,,,,yes,Samsung ,1,no,m,40,r,yes,1,2020-09-16_11h23.41.792,kura-B2,2020.1.2,Win32,60,,,"[""space"",""space"",""space"",""space"",""space"",""space"",""space"",""space"",""space"",""space""]","[0.8146350000752136,7.201130000059493,7.7362750000320375,8.34340000001248,8.88649499998428,9.43886500003282,10.0071450000396,10.53456499997992,11.134865000029095,11.80011499999091]",space,0.820015,0.0,11.0,11.0,28.0,1.0,,,,,,,,,,,,,
,,,,,,,,,,,block_1/strong_t_81_4.wav,timbre,t,strong,81.0,1.870008989,16.22765071,,,,yes,Samsung ,1,no,m,40,r,yes,1,2020-09-16_11h23.41.792,kura-B2,2020.1.2,Win32,60,,,"[""space"",""space"",""space"",""space"",""space"",""space"",""space"",""space"",""space"",""space"",""space"",""space"",""space"",""space"",""space"",""space"",""space"",""space"",""space"",""space"",""space""]","[0.9859700000379235,1.6639649999560788,2.3918350000167266,3.135939999949187,3.840124999987893,4.512089999974705,5.288229999947362,6.023674999945797,6.728065000032075,7.600964999990538,8.224410000024363,8.944565000012517,9.768574999994598,10.736275000032037,11.359700000029989,12.200115000014193,12.943985000019893,13.376195000018924,13.992349999956787,14.808040000032634,16.06533499993384]",space,0.667165,0.0,12.0,12.0,34.0,1.0,,,,,,,,,,,,,
,,,,,,,,,,,block_1/none_t_81_4.wav,timbre,t,none,81.0,1.802900323,17.84380735,,,,yes,Samsung ,1,no,m,40,r,yes,1,2020-09-16_11h23.41.792,kura-B2,2020.1.2,Win32,60,,,"[""space"",""space"",""space"",""space"",""space"",""space"",""space"",""space"",""space"",""space"",""space"",""space"",""space"",""space"",""space"",""space"",""space"",""space"",""space"",""space"",""space"",""space"",""space"",""space"",""space"",""space"",""space"",""space"",""space"",""space"",""space"",""space"",""space"",""space"",""space"",""space"",""space"",""space"",""space"",""space"",""space"",""space"",""space"",""space"",""space"",""space"",""space"",""space"",""space"",""space"",""space"",""space"",""space"",""space"",""space"",""space"",""space"",""space"",""space"",""space"",""space"",""space"",""space"",""space"",""space"",""space"",""space"",""space"",""space"",""space"",""space"",""space"",""space"",""space"",""space"",""space"",""space"",""space"",""space"",""space"",""space"",""space"",""space""]","[0.07177000003866851,0.7117899999720976,0.9917200000490993,1.2168150000507012,1.4168749999953434,1.6073249999899417,1.7917100000195205,1.9597249999642372,2.159620000049472,2.343609999981709,2.4958849999820814,2.6634349999949336,3.127764999982901,3.2958700000308454,3.6394149999832734,3.976020000060089,4.127865000045858,4.327655000030063,4.5116350000025705,4.687675000051968,4.871320000034757,5.049430000013672,5.22398000000976,5.402095000026748,5.584585000062361,5.759175000013784,5.951575000071898,6.135280000045896,6.311760000069626,6.503559999982826,6.67171500006225,6.849374999990687,7.016395000042394,7.207990000024438,7.407465000054799,7.567879999987781,7.767779999994673,7.951319999992847,8.143615000066347,8.335635000024922,8.527445000014268,8.703295000013895,8.900245000026189,9.088014999986626,9.281655000057071,9.471465000067838,9.639369999989867,9.83266499999445,10.00750499998685,10.183730000047944,10.359675000072457,10.543695000000298,10.728149999980815,10.919540000031702,11.10358500003349,11.28745499998331,11.471350000007078,11.671405000030063,11.863899999996647,12.071950000012293,12.263860000064597,12.471625000005588,12.672120000002906,12.871440000017174,13.071325000026263,13.2638900000602,13.455885000061244,13.6554349999642,13.855564999976195,14.039289999986067,14.232719999970868,14.423825000063516,14.623879999970086,14.823450000025332,15.015875000040978,15.215680000022985,15.39949500001967,15.591329999966547,15.783200000063516,15.967395000043325,16.159990000072867,16.346114999963902,16.55188000004273]",space,0.917515,0.0,13.0,13.0,12.0,1.0,,,,,,,,,,,,,
,,,,,,,,,,,block_1/strong_t_92_4.wav,timbre,t,strong,92.0,1.022726917,13.26377,,,,yes,Samsung ,1,no,m,40,r,yes,1,2020-09-16_11h23.41.792,kura-B2,2020.1.2,Win32,60,,,"[""space"",""space"",""space"",""space"",""space"",""space"",""space"",""space"",""space"",""space"",""space"",""space"",""space"",""space"",""space"",""space"",""space"",""space"",""space""]","[1.4432599999709055,1.8115349999861792,2.3954699999885634,3.035745000001043,3.6841899999417365,4.323464999906719,4.907124999910593,5.588079999899492,6.198504999978468,6.843254999956116,7.475729999947362,8.139719999977387,8.780219999956898,9.387675000005402,10.035759999998845,10.707575000007637,11.34859999991022,11.963854999979958,12.53224499989301]",space,2.22963,0.0,14.0,14.0,9.0,1.0,,,,,,,,,,,,,
,,,,,,,,,,,block_1/medium_t_81_4.wav,timbre,t,medium,81.0,1.136743646,13.9322992,,,,yes,Samsung ,1,no,m,40,r,yes,1,2020-09-16_11h23.41.792,kura-B2,2020.1.2,Win32,60,,,"[""space"",""space"",""space"",""space"",""space"",""space"",""space"",""space"",""space"",""space"",""space"",""space"",""space"",""space"",""space"",""space"",""space"",""space"",""space"",""space"",""space"",""space"",""space"",""space"",""space"",""space"",""space"",""space"",""space"",""space"",""space"",""space"",""space"",""space"",""space"",""space"",""space"",""space"",""space"",""space"",""space"",""space"",""space"",""space"",""space"",""space"",""space"",""space"",""space"",""space"",""space"",""space"",""space"",""space"",""space"",""space"",""space"",""space"",""space"",""space"",""space"",""space"",""space"",""space"",""space"",""space"",""space"",""space"",""space""]","[0.2957199999364093,0.6238449999364093,0.8401000000303611,1.0357800000347197,1.1856299999635667,1.3690850000130013,1.5527149999979883,1.711089999997057,1.8708999999798834,2.039089999976568,2.2071650000289083,2.3841900000115857,2.5750649999827147,2.7594249999383464,2.9272049999563023,3.1034600000130013,3.2795299999415874,3.4553150000283495,3.623829999938607,3.8069599999580532,4.0229899999685585,4.1593400000128895,4.327790000010282,4.519175000023097,4.719309999956749,4.911889999988489,5.103254999965429,5.28711499995552,5.46316000004299,5.671439999947324,5.83941000001505,6.039639999973588,6.234470000024885,6.418489999952726,6.623054999974556,6.807245000032708,6.999784999992698,7.1753399999579415,7.3750200000358745,7.5433000000193715,7.735184999997728,7.919529999955557,8.119444999960251,8.30293000000529,8.48698000004515,8.67168499995023,9.039574999944307,9.222914999932982,9.40743499994278,9.639444999978878,9.767570000025444,9.943854999961331,10.134964999975637,10.359885000041686,10.671635000035167,10.855134999961592,11.055090000038035,11.25028499995824,11.4321850000415,11.655445000040345,11.855085000046529,12.065059999935329,12.264444999978878,12.464819999993779,12.655060000019148,12.854949999949895,13.055335000040941,13.233290000003763,13.423629999975674]",space,0.834825,0.0,15.0,15.0,2.0,1.0,,,,,,,,,,,,,
,,,,,,,,,,,block_1/weak_t_92_3.wav,timbre,t,weak,92.0,1.190820523,16.55263458,,,,yes,Samsung ,1,no,m,40,r,yes,1,2020-09-16_11h23.41.792,kura-B2,2020.1.2,Win32,60,,,"[""space"",""space"",""space"",""space"",""space"",""space"",""space"",""space"",""space"",""space"",""space"",""space"",""space"",""space"",""space"",""space"",""space"",""space"",""space"",""space"",""space"",""space"",""space"",""space"",""space"",""space"",""space"",""space"",""space"",""space"",""space"",""space"",""space"",""space"",""space"",""space"",""space"",""space"",""space"",""space"",""space"",""space"",""space"",""space"",""space"",""space"",""space"",""space"",""space"",""space"",""space"",""space"",""space"",""space"",""space"",""space"",""space"",""space"",""space"",""space"",""space"",""space"",""space"",""space"",""space"",""space"",""space"",""space"",""space"",""space"",""space"",""space"",""space"",""space"",""space"",""space"",""space"",""space"",""space"",""space"",""space""]","[0.27664000005461276,0.48668000008910894,0.6603350000223145,0.8207600000314415,1.012345000053756,1.1965250000357628,1.3806400001049042,1.5723600001074374,1.7529750000685453,1.9561950000934303,2.1404950000578538,2.324930000002496,2.5102500000502914,2.7027400000952184,2.902070000069216,3.092655000044033,3.2767200000816956,3.469450000091456,3.652390000061132,3.836074999999255,4.036430000094697,4.2603750000707805,4.444375000079162,4.604200000059791,4.812535000033677,5.012405000044964,5.212365000043064,5.41241000010632,5.6042100000195205,5.780295000062324,5.966525000054389,6.183250000001863,6.383350000018254,6.566250000032596,6.7490350001025945,6.948775000055321,7.149245000095107,7.340540000004694,7.540345000103116,7.740090000093915,7.924510000040755,8.140910000074655,8.348940000054426,8.540090000024065,8.724240000010468,8.924685000092722,9.13352000003215,9.34014000010211,9.51726500003133,9.724830000079237,9.940740000107326,10.14913500007242,10.340220000012778,10.540145000093617,10.733530000085011,10.924335000105202,11.116800000076182,11.33402000006754,11.54974500008393,11.765270000090823,11.956600000034086,12.133305000024848,12.300575000001118,12.4765100000659,12.631560000008903,12.940835000015795,13.117045000079088,13.316510000033304,13.549590000067838,13.700355000095442,13.884345000027679,14.068730000057258,14.300660000066273,14.50109999999404,14.69203999999445,14.900179999996908,15.10033500008285,15.356290000025183,15.90066000004299,16.132480000029318,16.38104500004556]",space,14.79916,0.0,16.0,16.0,38.0,1.0,,,,,,,,,,,,,
,,,,,,,,,,,block_1/strong_t_105_3.wav,timbre,t,strong,105.0,1.518747526,13.05135524,,,,yes,Samsung ,1,no,m,40,r,yes,1,2020-09-16_11h23.41.792,kura-B2,2020.1.2,Win32,60,,,"[""space"",""space"",""space"",""space"",""space"",""space"",""space"",""space"",""space"",""space"",""space"",""space"",""space"",""space"",""space"",""space"",""space"",""space"",""space"",""space""]","[0.46412499994039536,0.8337449999526143,1.3040299999993294,1.872205000021495,2.4501999999629334,3.0569050000049174,3.624515000032261,4.235804999945685,5.3856549999909475,5.984909999999218,6.553435000008903,7.128234999952838,7.751949999947101,8.352454999927431,8.952395000029355,9.536104999948293,10.084559999988414,10.672539999941364,11.2719550000038,11.840154999983497]",space,1.049335,0.0,17.0,17.0,21.0,1.0,,,,,,,,,,,,,
,,,,,,,,,,,block_1/weak_t_81_4.wav,timbre,t,weak,81.0,2.31768599,15.5134683,,,,yes,Samsung ,1,no,m,40,r,yes,1,2020-09-16_11h23.41.792,kura-B2,2020.1.2,Win32,60,,,"[""space"",""space"",""space"",""space"",""space"",""space"",""space"",""space"",""space"",""space"",""space"",""space"",""space"",""space"",""space"",""space"",""space"",""space"",""space"",""space"",""space"",""space"",""space"",""space"",""space"",""space"",""space"",""space"",""space"",""space"",""space"",""space"",""space"",""space"",""space"",""space"",""space"",""space"",""space"",""space"",""space"",""space"",""space"",""space""]","[0.43463000003248453,0.6178999999538064,0.7779299999820068,0.9451000000117347,1.146199999959208,1.4099799999967217,1.5862999999662861,1.7223350000567734,2.041854999959469,2.2093250000616536,2.6028400000650436,2.761255000019446,3.241189999971539,3.4342150000156835,3.9056900000432506,4.082605000003241,4.561639999970794,4.734165000030771,5.217380000045523,5.377564999973401,5.834185000043362,6.017529999953695,6.483574999962002,6.650449999957345,6.801065000006929,7.169345000060275,7.352915000054054,7.866210000007413,8.040939999977127,8.553580000065267,8.721454999991693,9.257274999981746,9.44941999996081,10.104980000061914,10.682320000021718,10.882325000013225,11.433740000007674,11.617310000001453,12.153004999971017,12.346035000053234,12.762755000032485,12.95327499997802,13.417920000036247,13.609580000047572]",space,1.314775,0.0,18.0,18.0,0.0,1.0,,,,,,,,,,,,,
,,,,,,,,,,,block_1/weak_t_105_3.wav,timbre,t,weak,105.0,2.038080476,13.26905553,,,,yes,Samsung ,1,no,m,40,r,yes,1,2020-09-16_11h23.41.792,kura-B2,2020.1.2,Win32,60,,,"[""space"",""space"",""space"",""space"",""space"",""space"",""space"",""space"",""space"",""space"",""space"",""space"",""space"",""space"",""space"",""space"",""space"",""space"",""space"",""space"",""space"",""space"",""space"",""space"",""space"",""space"",""space"",""space"",""space"",""space"",""space"",""space"",""space"",""space"",""space"",""space"",""space"",""space"",""space""]","[0.4283399999840185,0.5959250000305474,0.9643299999879673,1.151175000006333,1.3191949999891222,1.660840000025928,1.8442849999992177,2.228125000023283,2.412294999929145,2.812114999978803,2.988024999969639,3.4200849999906495,3.6124249999411404,4.044170000008307,4.227889999980107,4.660365000017919,4.852190000005066,5.260284999967553,5.436035000020638,5.8120799999451265,6.004360000020824,6.420399999944493,6.6200999999418855,7.036089999950491,7.228430000017397,7.62824999995064,7.820025000022724,8.292314999969676,8.484530000016093,8.844059999915771,9.03628999995999,9.420109999948181,9.620509999920614,10.036465000011958,10.219889999949373,10.69210500002373,10.876384999952279,11.284134999965318,11.47586499992758]",space,10.482715,0.0,19.0,19.0,4.0,1.0,,,,,,,,,,,,,
,,,,,,,,,,,block_1/medium_t_92_4.wav,timbre,t,medium,92.0,1.590939721,14.58753836,,,,yes,Samsung ,1,no,m,40,r,yes,1,2020-09-16_11h23.41.792,kura-B2,2020.1.2,Win32,60,,,"[""space"",""space"",""space"",""space"",""space"",""space"",""space"",""space"",""space"",""space"",""space"",""space"",""space"",""space"",""space"",""space"",""space"",""space"",""space"",""space"",""space"",""space"",""space"",""space"",""space"",""space"",""space"",""space"",""space"",""space"",""space"",""space"",""space"",""space"",""space"",""space"",""space"",""space"",""space"",""space"",""space""]","[0.42502999992575496,0.8738849998917431,1.0408649999881163,1.305114999995567,1.4571999999461696,1.8499549999833107,2.033604999887757,2.456984999938868,2.625154999899678,3.0572549999924377,3.2408399999840185,3.74773499998264,3.937264999956824,4.46585999999661,4.665864999988116,5.149119999958202,5.329654999892227,5.779559999937192,5.969454999896698,6.449264999944717,6.632859999896027,7.089549999916926,7.298604999901727,7.769274999969639,7.9530949998879805,8.38129999989178,8.595589999924414,9.041319999960251,9.241194999893196,9.721514999982901,9.937149999896064,10.39539999992121,10.611759999999776,11.025464999955148,11.233339999918826,11.665194999892265,11.873059999896213,12.297904999926686,12.50516499998048,12.994874999974854,13.211294999928214]",space,11.30234,0.0,20.0,20.0,25.0,1.0,,,,,,,,,,,,,
,,,,,,,,,,,block_1/weak_t_81_3.wav,timbre,t,weak,81.0,1.53156375,17.80117826,,,,yes,Samsung ,1,no,m,40,r,yes,1,2020-09-16_11h23.41.792,kura-B2,2020.1.2,Win32,60,,,"[""space"",""space"",""space"",""space"",""space"",""space"",""space"",""space"",""space"",""space"",""space"",""space"",""space"",""space"",""space"",""space"",""space"",""space"",""space"",""space"",""space"",""space"",""space"",""space"",""space"",""space"",""space"",""space"",""space"",""space"",""space"",""space"",""space"",""space"",""space"",""space"",""space"",""space"",""space"",""space"",""space"",""space""]","[0.5696000000461936,0.7611400000751019,1.513935000053607,1.8100950000807643,2.0507150000194088,2.3213400000240654,2.6090750000439584,2.809290000004694,3.08897500007879,3.3610950000584126,3.5934650000417605,3.9134649999905378,4.945050000096671,5.209430000046268,5.609260000055656,5.857520000077784,6.545359999989159,8.474235000088811,8.65690500009805,9.361485000001267,9.634320000070147,10.08961000002455,10.233895000070333,10.434020000044256,10.777495000045747,10.969325000070967,11.483355000033043,11.673285000026226,12.193285000044852,12.401470000040717,12.881625000038184,13.10593499999959,13.576985000050627,13.801030000089668,14.273180000018328,14.488995000021532,14.964165000012144,15.177460000035353,15.624970000004396,15.866250000079162,16.3471300000092,16.5694450000301]",space,4.19724,0.0,21.0,21.0,6.0,1.0,,,,,,,,,,,,,
,,,,,,,,,,,block_1/medium_t_105_4.wav,timbre,t,medium,105.0,2.498438995,14.23458412,,,,yes,Samsung ,1,no,m,40,r,yes,1,2020-09-16_11h23.41.792,kura-B2,2020.1.2,Win32,60,,,"[""space"",""space"",""space"",""space"",""space"",""space"",""space"",""space"",""space"",""space"",""space"",""space"",""space"",""space"",""space"",""space"",""space"",""space"",""space"",""space"",""space"",""space"",""space"",""space"",""space"",""space"",""space"",""space"",""space"",""space"",""space"",""space"",""space"",""space"",""space"",""space"",""space"",""space"",""space"",""space"",""space"",""space"",""space"",""space"",""space"",""space"",""space""]","[0.03381000005174428,0.2091800000052899,0.6996250000083819,0.8893600000301376,1.3130900000687689,1.4889850000618026,1.8024250000016764,1.9858600000152364,2.1291249999776483,2.562165000010282,2.762140000006184,2.9691250000614673,3.2338150000432506,3.425355000072159,3.79335000005085,3.9614150000270456,4.401509999996051,4.561455000075512,5.025400000042282,5.193055000039749,5.666124999988824,5.834440000005998,6.298655000049621,6.450430000084452,6.865920000011101,7.041360000032,7.241020000074059,7.434185000020079,7.617840000079013,7.809140000026673,8.02538500004448,8.225615000003017,8.545440000016242,8.761040000012144,8.921190000022762,9.089440000010654,9.297825000016019,9.481870000017807,9.657040000078268,10.09765500004869,10.28902000002563,10.689865000080317,10.866355000063777,11.201615000027232,11.514139999984764,11.825430000084452,12.00152499997057]",space,0.76942,0.0,22.0,22.0,23.0,1.0,,,,,,,,,,,,,
,,,,,,,,,,,block_1/weak_t_119_3.wav,timbre,t,weak,119.0,1.729530605,11.14109523,,,,yes,Samsung ,1,no,m,40,r,yes,1,2020-09-16_11h23.41.792,kura-B2,2020.1.2,Win32,60,,,"[""space"",""space"",""space"",""space"",""space"",""space"",""space"",""space"",""space"",""space"",""space"",""space"",""space"",""space"",""space"",""space"",""space"",""space"",""space"",""space"",""space"",""space"",""space"",""space"",""space"",""space"",""space"",""space"",""space"",""space"",""space"",""space"",""space"",""space""]","[1.617839999962598,1.8088499999139458,2.528859999962151,2.8090799999190494,3.241024999995716,3.4403300000121817,3.872869999962859,4.072829999960959,4.434780000010505,4.608354999916628,4.83308000001125,5.0084299999289215,5.19246499997098,5.3852399999741465,5.60882500000298,5.808659999980591,6.0015000000130385,6.176549999974668,6.417929999995977,6.592549999943003,6.784804999944754,7.01968999998644,7.185229999944568,7.392394999973476,7.7153449999168515,7.952449999982491,8.22462499991525,8.360394999966957,8.62472500000149,8.801514999940991,9.07257999991998,9.21765999996569,9.552764999913052,9.681499999947846]",space,2.973625,0.0,23.0,23.0,13.0,1.0,,,,,,,,,,,,,
,,,,,,,,,,,block_1/none_t_119_4.wav,timbre,t,none,119.0,1.977931805,11.04042614,,,,yes,Samsung ,1,no,m,40,r,yes,1,2020-09-16_11h23.41.792,kura-B2,2020.1.2,Win32,60,,,"[""space"",""space"",""space"",""space"",""space"",""space"",""space"",""space"",""space"",""space"",""space"",""space"",""space"",""space"",""space"",""space"",""space"",""space"",""space"",""space"",""space"",""space"",""space"",""space"",""space"",""space"",""space"",""space"",""space"",""space"",""space""]","[1.0687599999364465,1.500749999890104,1.6686049998970702,1.988429999910295,2.165459999931045,2.532124999910593,2.7164049999555573,3.1324899999890476,3.308339999988675,3.652709999936633,3.829284999985248,4.2204299999866635,4.3651349999709055,4.782359999953769,4.957439999911003,5.324614999932237,5.52445499994792,5.820284999907017,6.028724999981932,6.3646249999292195,6.548344999901019,6.884054999914952,7.079009999986738,7.462004999979399,7.628969999961555,7.956664999946952,8.140829999931157,8.516314999898896,8.694559999974445,9.141764999949373,9.311809999984689]",space,1.5288,0.0,24.0,24.0,27.0,1.0,,,,,,,,,,,,,
,,,,,,,,,,,block_1/medium_t_81_3.wav,timbre,t,medium,81.0,1.352794873,13.94617356,,,,yes,Samsung ,1,no,m,40,r,yes,1,2020-09-16_11h23.41.792,kura-B2,2020.1.2,Win32,60,,,"[""space"",""space"",""space"",""space"",""space"",""space"",""space"",""space"",""space"",""space"",""space"",""space"",""space"",""space"",""space"",""space"",""space"",""space"",""space"",""space"",""space"",""space"",""space"",""space"",""space"",""space"",""space"",""space"",""space"",""space"",""space"",""space"",""space"",""space"",""space"",""space"",""space"",""space"",""space"",""space"",""space""]","[0.47024500009138137,0.6700950000667945,1.3359700000146404,1.5261650000466034,2.0465450000483543,2.600440000067465,3.2221300000092015,3.3901600000681356,3.6476400000974536,3.862305000075139,4.017010000068694,4.200185000081547,4.568240000051446,4.751810000045225,5.199385000043549,5.406635000021197,5.735340000013821,5.951660000020638,6.368940000073053,6.583255000063218,6.9905750000616536,7.215440000058152,7.662025000085123,8.294645000016317,8.534600000013597,8.918260000064038,9.11054000002332,9.534235000028275,9.750670000095852,10.11831000004895,10.29460000002291,10.710580000071786,10.87850500002969,11.270525000058115,11.448220000020228,11.910254999995232,12.06600500002969,12.438195000053383,12.622545000049286,13.230940000037663,13.415039999992587]",space,0.690165,0.0,25.0,25.0,8.0,1.0,,,,,,,,,,,,,
,,,,,,,,,,,block_1/strong_t_72_3.wav,timbre,t,strong,72.0,1.503157527,17.98057249,,,,yes,Samsung ,1,no,m,40,r,yes,1,2020-09-16_11h23.41.792,kura-B2,2020.1.2,Win32,60,,,"[""space"",""space"",""space"",""space"",""space"",""space"",""space"",""space"",""space"",""space"",""space"",""space"",""space"",""space"",""space"",""space"",""space"",""space"",""space"",""space"",""space"",""space""]","[0.3642399999080226,0.5242599999764934,0.8527649999596179,1.6525249999249354,2.5720100000035018,3.4851149999303743,4.301534999976866,5.117265000008047,5.982489999965765,6.868000000016764,7.651904999976978,8.524659999995492,9.340289999963716,10.220325000002049,11.060129999998026,11.851874999934807,12.70852499990724,13.603995000012219,14.460224999929778,15.244209999917075,16.03236499999184,16.891889999969862]",space,0.451275,0.0,26.0,26.0,5.0,1.0,,,,,,,,,,,,,
,,,,,,,,,,,block_1/strong_t_105_4.wav,timbre,t,strong,105.0,2.094581561,12.21235934,,,,yes,Samsung ,1,no,m,40,r,yes,1,2020-09-16_11h23.41.792,kura-B2,2020.1.2,Win32,60,,,"[""space"",""space"",""space"",""space"",""space"",""space"",""space"",""space"",""space"",""space"",""space"",""space"",""space"",""space"",""space"",""space"",""space"",""space"",""space"",""space"",""space"",""space""]","[0.5884450000012293,1.0755300000309944,1.318000000086613,1.7957050000550225,2.3342650000704452,2.8596850000321865,3.3639400000683963,3.8851800000993535,4.395729999989271,4.892045000102371,5.355760000064038,5.635770000051707,5.820160000002943,6.366525000077672,6.9009749999968335,7.40363499999512,7.8922350000357255,8.387220000033267,8.884745000046678,9.38826500007417,9.851570000057109,10.38392500008922]",space,0.533835,0.0,27.0,27.0,18.0,1.0,,,,,,,,,,,,,
,,,,,,,,,,,block_1/weak_t_119_4.wav,timbre,t,weak,119.0,1.438381355,12.04736095,,,,yes,Samsung ,1,no,m,40,r,yes,1,2020-09-16_11h23.41.792,kura-B2,2020.1.2,Win32,60,,,"[""space"",""space"",""space"",""space"",""space"",""space"",""space"",""space"",""space"",""space"",""space"",""space"",""space"",""space"",""space"",""space"",""space"",""space"",""space"",""space"",""space"",""space"",""space"",""space"",""space"",""space"",""space"",""space"",""space"",""space"",""space"",""space"",""space"",""space"",""space"",""space"",""space"",""space"",""space"",""space"",""space"",""space"",""space"",""space"",""space"",""space"",""space"",""space"",""space"",""space""]","[0.3106400000397116,0.6001549999928102,0.7358900000108406,0.9519749999744818,1.1358950000721961,1.2708049999782816,1.4705850000027567,1.607410000055097,1.9357450000243261,2.1199699999997392,2.294755000039004,2.526810000068508,2.7027150000212714,2.9268850000808015,3.094634999986738,3.270729999989271,3.4713950000004843,3.623215000028722,3.836009999969974,4.006700000027195,4.168234999990091,4.375439999974333,4.5433950000442564,4.735755000030622,4.958890000008978,5.135080000036396,5.422905000043102,5.590740000014193,5.783954999991693,5.975065000005998,6.1589249999960884,6.384109999984503,6.568115000030957,6.879725000006147,7.06613000005018,7.278619999997318,7.466355000040494,7.88737500004936,8.051450000028126,8.311500000068918,8.496580000035465,8.80734499997925,9.007440000073984,9.311214999994263,9.494720000075176,9.815419999998994,10.015635000076145,10.342844999977387,10.550825000042096,10.822790000005625]",space,4.6831,0.0,28.0,28.0,11.0,1.0,,,,,,,,,,,,,
,,,,,,,,,,,block_1/none_t_105_4.wav,timbre,t,none,105.0,1.782068205,15.59785052,,,,yes,Samsung ,1,no,m,40,r,yes,1,2020-09-16_11h23.41.792,kura-B2,2020.1.2,Win32,60,,,"[""space"",""space"",""space"",""space"",""space"",""space"",""space"",""space"",""space"",""space"",""space"",""space"",""space"",""space"",""space"",""space"",""space"",""space"",""space"",""space"",""space"",""space"",""space"",""space"",""space"",""space"",""space"",""space"",""space"",""space"",""space"",""space"",""space"",""space"",""space"",""space"",""space"",""space"",""space"",""space"",""space"",""space"",""space"",""space"",""space"",""space"",""space"",""space"",""space"",""space"",""space"",""space"",""space"",""space"",""space"",""space""]","[0.38444000005256385,0.5910699999658391,0.9364300000015646,1.1266400000313297,1.4873950000619516,1.6788500000257045,1.9671699999598786,2.1670549999689683,2.384444999974221,2.785645000054501,2.976740000071004,3.3106449999613687,3.5191549999872223,3.790845000068657,3.9745399999665096,4.294860000023618,4.454789999988861,4.654805000056513,4.839189999969676,5.039250000030734,5.3269149999832734,5.510825000004843,5.806680000037886,5.99117000005208,6.278859999962151,6.465489999973215,6.7586499999742955,6.95883000001777,7.271255000028759,7.479204999981448,7.784495000028983,8.151195000042208,8.334810000029393,8.686979999998584,8.870815000031143,9.184179999982007,9.383999999961816,9.679054999956861,9.85456999996677,10.150849999976344,10.335100000025705,10.639049999997951,10.849174999981187,11.126939999987371,11.327094999956898,11.622904999996535,11.815790000022389,12.150804999982938,12.342955000000075,12.654719999991357,12.831860000034794,13.127035000012256,13.334875000058673,13.606595000019297,13.831944999983534,14.064045000006445]",space,0.62344,0.0,29.0,29.0,20.0,1.0,,,,,,,,,,,,,
,,,,,,,,,,,block_1/medium_t_105_3.wav,timbre,t,medium,105.0,1.131854181,11.90867958,,,,yes,Samsung ,1,no,m,40,r,yes,1,2020-09-16_11h23.41.792,kura-B2,2020.1.2,Win32,60,,,"[""space"",""space"",""space"",""space"",""space"",""space"",""space"",""space"",""space"",""space"",""space"",""space"",""space"",""space"",""space"",""space"",""space"",""space"",""space"",""space"",""space"",""space"",""space"",""space"",""space"",""space"",""space"",""space"",""space"",""space"",""space"",""space"",""space"",""space"",""space"",""space"",""space"",""space"",""space""]","[0.4366200000513345,0.7958949999883771,1.004274999955669,1.4121599999489263,1.5885400000261143,1.9499249999644235,2.0763049999950454,2.2602500000502914,2.6601449999725446,2.8280899999663234,3.1883750000270084,3.351894999970682,3.803955000010319,3.9964799999725074,4.367674999986775,4.551235000020824,4.884725000010803,5.0604899999452755,5.44438000000082,5.6119800000451505,5.98788999998942,6.156360000022687,6.556400000001304,6.740819999948144,7.117674999986775,7.308309999993071,7.804200000013225,7.988179999985732,8.308294999995269,8.492014999967068,8.86832999996841,9.036285000038333,9.412170000025071,9.600474999984726,9.972019999986514,10.156135000055656,10.500505000003614,10.692369999946095,11.08391499996651]",space,0.69731,0.0,30.0,30.0,16.0,1.0,,,,,,,,,,,,,
,,,,,,,,,,,block_1/none_t_119_3.wav,timbre,t,none,119.0,1.169893331,12.28885025,,,,yes,Samsung ,1,no,m,40,r,yes,1,2020-09-16_11h23.41.792,kura-B2,2020.1.2,Win32,60,,,"[""space"",""space"",""space"",""space"",""space"",""space"",""space"",""space"",""space"",""space"",""space"",""space"",""space"",""space"",""space"",""space"",""space"",""space"",""space"",""space"",""space"",""space"",""space"",""space"",""space"",""space"",""space"",""space"",""space"",""space"",""space"",""space"",""space"",""space"",""space"",""space"",""space"",""space"",""space""]","[0.4147149999625981,0.5812300000106916,1.0049199999775738,1.172885000007227,1.5570999999763444,1.7087900000624359,2.1330699999816716,2.3088950000237674,2.7332600000081584,2.8929749999661,3.36605499999132,3.557174999965355,3.957230000058189,4.100815000012517,4.525140000041574,4.708925000042655,5.084735000040382,5.2690200000070035,5.676800000015646,5.892735000001267,6.2928850000025705,6.484889999963343,6.92503000004217,7.1248950000153854,7.556725000031292,7.740515000070445,8.141775000025518,8.333570000017062,8.70042500004638,8.900770000065677,9.22109000000637,9.413449999992736,9.78171500004828,9.972780000069179,10.332935000071302,10.509214999969117,10.885074999998324,11.078495000023395,11.205169999971986]",space,0.972265,0.0,31.0,31.0,32.0,1.0,,,,,,,,,,,,,
,,,,,,,,,,,block_1/none_t_105_3.wav,timbre,t,none,105.0,2.248615294,16.06934092,,,,yes,Samsung ,1,no,m,40,r,yes,1,2020-09-16_11h23.41.792,kura-B2,2020.1.2,Win32,60,,,"[""space"",""space"",""space"",""space"",""space"",""space"",""space"",""space"",""space"",""space"",""space"",""space"",""space"",""space"",""space"",""space"",""space"",""space"",""space"",""space"",""space"",""space"",""space"",""space"",""space"",""space"",""space"",""space"",""space"",""space"",""space"",""space"",""space"",""space"",""space"",""space"",""space"",""space"",""space"",""space"",""space"",""space"",""space"",""space"",""space"",""space"",""space"",""space"",""space"",""space"",""space"",""space"",""space"",""space"",""space"",""space"",""space"",""space"",""space""]","[0.5805600000312552,0.7711099999723956,1.1391050000675023,1.3391100000590086,1.6508400000166148,1.8192000000271946,2.1802850000094622,2.3810100000118837,2.781154999975115,2.9475899999961257,3.2752249999903142,3.4356649999972433,4.018990000011399,4.163690000073984,4.515595000004396,4.650970000075176,5.098935000016354,5.28249999997206,5.707155000069179,6.098850000067614,6.413249999983236,6.57089500001166,6.971185000031255,7.148075000033714,7.5066700000315905,7.67495500005316,8.050630000070669,8.234769999980927,8.564155000029132,8.73905500001274,8.93089499999769,9.122644999995828,9.322565000038594,9.522725000046194,9.69906999997329,9.882680000038818,10.067069999990053,10.25117499998305,10.435120000038296,10.619100000010803,10.812645000056364,11.01355000003241,11.197230000048876,11.380475000012666,11.580734999966808,11.763745000003837,11.963545000064187,12.138950000051409,12.34690500004217,12.530574999982491,12.714864999987185,12.914474999997765,13.106804999988526,13.31449000001885,13.530484999995679,13.738570000045002,13.954630000051111,14.14667000004556,14.363370000035502]",space,0.51774,0.0,32.0,32.0,14.0,1.0,,,,,,,,,,,,,
,,,,,,,,,,,block_1/weak_t_72_3.wav,timbre,t,weak,72.0,1.571303333,17.03996546,,,,yes,Samsung ,1,no,m,40,r,yes,1,2020-09-16_11h23.41.792,kura-B2,2020.1.2,Win32,60,,,"[""space"",""space"",""space"",""space"",""space"",""space"",""space"",""space"",""space"",""space"",""space"",""space"",""space"",""space"",""space"",""space"",""space"",""space"",""space"",""space"",""space"",""space"",""space"",""space"",""space"",""space"",""space"",""space"",""space"",""space"",""space"",""space"",""space"",""space"",""space"",""space"",""space"",""space"",""space"",""space"",""space"",""space"",""space"",""space"",""space"",""space"",""space"",""space"",""space"",""space"",""space"",""space"",""space"",""space"",""space"",""space"",""space"",""space"",""space"",""space"",""space"",""space"",""space"",""space"",""space""]","[0.38523500005248934,0.5372300000162795,0.833600000012666,0.9847800000570714,1.385355000034906,1.5530100000323728,1.866050000069663,2.009375000023283,2.3531499999808148,2.547619999968447,2.8729199999943376,3.0496099999872968,3.3849649999756366,3.5371000000741333,4.033094999962486,4.168925000005402,4.498069999972358,4.665855000028387,5.1466749999672174,5.313605000032112,5.749249999993481,5.9210599999642,6.321050000027753,6.473110000020824,6.849140000063926,7.0116350000025705,7.38222000002861,7.546304999967106,8.10469499998726,8.193180000060238,8.353230000007898,8.601275000022724,8.793100000009872,9.088695000042208,9.25682999996934,9.553055000025779,9.71652500005439,10.081789999967441,10.281749999965541,10.409125000005588,10.625140000018291,10.76907499996014,11.032795000006445,11.209005000069737,11.385164999985136,11.545515000005253,11.905295000062324,12.08086500002537,12.257175000035204,12.640980000025593,12.833095000009052,12.997835000045598,13.14777999999933,13.656985000008717,13.825240000034682,13.99566000001505,14.217335000052117,14.394979999982752,14.577720000059344,14.761300000012852,14.964080000063404,15.137280000024475,15.3209799999604,15.721265000058338,15.913694999995641]",space,0.60353,0.0,33.0,33.0,26.0,1.0,,,,,,,,,,,,,
,,,,,,,,,,,block_1/weak_t_72_4.wav,timbre,t,weak,72.0,1.01386198,17.48964429,,,,yes,Samsung ,1,no,m,40,r,yes,1,2020-09-16_11h23.41.792,kura-B2,2020.1.2,Win32,60,,,"[""space"",""space"",""space"",""space"",""space"",""space"",""space"",""space"",""space"",""space"",""space"",""space"",""space"",""space"",""space"",""space"",""space"",""space"",""space"",""space"",""space"",""space"",""space"",""space"",""space"",""space"",""space"",""space"",""space"",""space"",""space"",""space"",""space"",""space"",""space"",""space"",""space"",""space"",""space"",""space"",""space"",""space"",""space"",""space"",""space"",""space"",""space"",""space"",""space"",""space"",""space"",""space"",""space"",""space"",""space"",""space"",""space"",""space"",""space"",""space"",""space""]","[0.5867900000885129,0.7229950000764802,1.15507500001695,1.331140000023879,1.7545950000640005,1.9310650000115857,2.627030000090599,2.827045000041835,3.3319750000955537,3.5071400000015274,3.6829750000033528,4.170765000046231,4.338835000060499,4.516085000010207,5.04272500006482,5.2187550000380725,5.3798850000603124,5.531920000095852,6.116114999982528,6.258465000079013,6.413105000043288,6.5967299999902025,6.763830000068992,7.149255000054836,7.306455000070855,7.50659500004258,7.706940000061877,7.874945000046864,8.082685000030324,8.4030849999981,8.615185000002384,9.012340000015683,9.212560000014491,9.48265000001993,9.818435000022873,10.147890000022016,10.414400000008754,10.603130000061356,10.923195000039414,11.107115000020713,11.431290000095032,11.786510000005364,12.045110000064597,12.395125000039116,12.75480500003323,12.938765000086278,13.147385000018403,13.447500000009313,13.61866000003647,14.138819999992847,14.355065000010654,14.547245000023395,15.08315500000026,15.298784999991767,15.506685000029393,16.045105000026524,16.264180000056513,16.434615000034682,16.595970000023954,16.98695500008762,17.186880000052042]",space,0.203125,0.0,34.0,34.0,33.0,1.0,,,,,,,,,,,,,
,,,,,,,,,,,block_1/medium_t_119_3.wav,timbre,t,medium,119.0,2.226222359,10.98477111,,,,yes,Samsung ,1,no,m,40,r,yes,1,2020-09-16_11h23.41.792,kura-B2,2020.1.2,Win32,60,,,"[""space"",""space"",""space"",""space"",""space"",""space"",""space"",""space"",""space"",""space"",""space"",""space"",""space"",""space"",""space"",""space"",""space"",""space"",""space"",""space"",""space"",""space"",""space"",""space"",""space"",""space"",""space"",""space"",""space"",""space"",""space"",""space"",""space"",""space"",""space"",""space"",""space"",""space"",""space""]","[0.29289499996230006,0.44527499994728714,0.702724999981001,0.9034550000214949,1.0605600000126287,1.2366649999748915,1.5031849999213591,1.669675000011921,1.988954999949783,2.1251199999824166,2.3880599999101833,2.541099999914877,2.733155000023544,2.885784999933094,3.1496799999149516,3.3177900000009686,3.519194999942556,3.7026549999136478,3.868834999972023,4.093059999984689,4.47687999997288,4.813145000021905,5.32469499995932,5.676959999953397,5.837189999991097,6.156819999916479,6.333379999967292,6.645060000009835,6.821099999942817,7.124850000021979,7.292919999919832,7.601075000013225,7.772799999918789,8.101565000019036,8.261124999960884,8.541224999935366,8.740824999986216,9.020574999973178,9.189134999993257]",space,0.78426,0.0,35.0,35.0,37.0,1.0,,,,,,,,,,,,,
,,,,,,,,,,,block_1/medium_t_119_4.wav,timbre,t,medium,119.0,1.399295551,11.22011188,,,,yes,Samsung ,1,no,m,40,r,yes,1,2020-09-16_11h23.41.792,kura-B2,2020.1.2,Win32,60,,,"[""space"",""space"",""space"",""space"",""space"",""space"",""space"",""space"",""space"",""space"",""space"",""space"",""space"",""space"",""space"",""space"",""space"",""space"",""space"",""space"",""space"",""space"",""space"",""space"",""space"",""space"",""space"",""space"",""space"",""space"",""space"",""space"",""space"",""space"",""space"",""space"",""space"",""space""]","[0.4776350000174716,0.653649999992922,1.11758999992162,1.4531499999575317,1.6056249999674037,1.9499749999959022,2.1256699999794364,2.461479999939911,2.637639999971725,2.949709999957122,3.1334849999984726,3.6304300000192598,3.9495350000215694,4.133484999998473,4.501300000003539,4.666024999925867,5.014074999955483,5.198344999924302,5.485214999993332,5.653255000011995,5.933420000015758,6.117214999976568,6.447104999911971,6.637849999940954,6.999279999989085,7.173119999933988,7.501649999991059,7.693399999989197,8.014514999929816,8.182339999941178,8.509194999933243,8.6795399999246,8.998449999955483,9.18151999998372,9.49821999995038,9.669519999995828,9.981425000005402,10.173229999956675]",space,0.600595,0.0,36.0,36.0,30.0,1.0,,,,,,,,,,,,,
,,,,,,,,,,,block_1/medium_t_72_4.wav,timbre,t,medium,72.0,1.659874932,19.69733525,,,,yes,Samsung ,1,no,m,40,r,yes,1,2020-09-16_11h23.41.792,kura-B2,2020.1.2,Win32,60,,,"[""space"",""space"",""space"",""space"",""space"",""space"",""space"",""space"",""space"",""space"",""space"",""space"",""space"",""space"",""space"",""space"",""space"",""space"",""space"",""space"",""space"",""space"",""space"",""space"",""space"",""space"",""space"",""space"",""space"",""space"",""space"",""space"",""space"",""space"",""space"",""space"",""space"",""space"",""space"",""space"",""space"",""space"",""space"",""space""]","[0.5697050000308082,0.7526700000744313,1.0242000001017004,1.2168100000126287,1.887665000045672,2.07163500005845,2.5601950000273064,2.7442700000246987,3.2241300001041964,3.4077750000869855,3.8557800000999123,4.016320000053383,4.719730000011623,4.912025000085123,5.5696950000710785,5.75976000004448,6.344200000050478,6.528045000042766,7.240140000008978,7.432469999999739,8.265595000004396,8.45578000007663,9.192260000039823,9.376135000027716,10.135855000000447,10.351790000102483,10.952344999997877,11.200530000030994,11.888230000040494,12.15226000000257,12.75982500007376,13.072235000086948,13.591910000075586,13.880500000086613,14.472275000065565,14.775615000049584,15.450920000090264,15.732305000070482,16.36081500002183,16.648780000046827,17.297260000021197,17.600085000041872,18.1359250000678,18.732420000014827]",space,0.58351,0.0,37.0,37.0,36.0,1.0,,,,,,,,,,,,,
,,,,,,,,,,,block_1/strong_t_81_3.wav,timbre,t,strong,81.0,2.437587677,17.65296183,,,,yes,Samsung ,1,no,m,40,r,yes,1,2020-09-16_11h23.41.792,kura-B2,2020.1.2,Win32,60,,,"[""space"",""space"",""space"",""space"",""space"",""space"",""space"",""space"",""space"",""space"",""space"",""space"",""space"",""space"",""space"",""space"",""space"",""space"",""space"",""space"",""space"",""space"",""space""]","[0.5435500000603497,0.7362500000745058,1.1912250000750646,1.7273450000211596,2.487154999980703,3.2717549999943003,3.959525000071153,4.752040000050329,5.519050000002608,6.295490000047721,7.071310000028461,7.807759999996051,8.6841349999886,9.391195000032894,10.151105000055395,10.903430000063963,11.71909999998752,12.487510000006296,13.271380000049248,14.071390000055544,14.783135000034235,15.584535000030883,16.623620000085793]",space,0.783845,0.0,38.0,38.0,24.0,1.0,,,,,,,,,,,,,
,,,,,,,,,,,block_1/medium_t_92_3.wav,timbre,t,medium,92.0,2.360774731,14.34626226,,,,yes,Samsung ,1,no,m,40,r,yes,1,2020-09-16_11h23.41.792,kura-B2,2020.1.2,Win32,60,,,"[""space"",""space"",""space"",""space"",""space"",""space"",""space"",""space"",""space"",""space"",""space"",""space"",""space"",""space"",""space"",""space"",""space"",""space"",""space"",""space"",""space"",""space"",""space"",""space"",""space"",""space"",""space"",""space"",""space"",""space"",""space"",""space"",""space"",""space"",""space"",""space"",""space"",""space"",""space"",""space"",""space"",""space"",""space"",""space""]","[0.3364150000270456,0.5766249999869615,0.9050000000279397,1.0088049999903888,1.2723250000271946,1.4332700000377372,1.6497000000672415,1.9046400000806898,2.0565900000510737,2.466149999992922,2.624775000032969,3.0566100000869483,3.2564100000308827,3.6165449999971315,3.800965000060387,4.149305000086315,4.348755000042729,4.784779999987222,4.947114999988116,5.368985000066459,5.5688300000038,5.969065000070259,6.16843499999959,6.565225000027567,6.762985000037588,7.216530000092462,7.416339999996126,7.824789999984205,8.024765000096522,8.384725000010803,8.59264000004623,9.024830000009388,9.224745000014082,9.656580000068061,9.872305000084452,10.304860000032932,10.504844999988563,10.864709999994375,11.064520000014454,11.480970000033267,11.640710000065155,12.04037500009872,12.216360000078566,13.072815000079572]",space,0.62299,0.0,39.0,39.0,35.0,1.0,,,,,,,,,,,,,
,,,,,,,,,,,block_2/medium_n_81_4.wav,no,n,medium,81.0,1.594727623,16.1032537,,,,yes,Samsung ,1,no,m,40,r,yes,1,2020-09-16_11h23.41.792,kura-B2,2020.1.2,Win32,60,,,,,,,,,,,,space,9.81142,"[""space"",""space"",""space"",""space"",""space"",""space"",""space"",""space"",""space"",""space"",""space"",""space"",""space"",""space"",""space"",""space"",""space"",""space"",""space"",""space"",""space"",""space"",""space"",""space"",""space"",""space"",""space"",""space"",""space"",""space"",""space"",""space"",""space"",""space"",""space"",""space"",""space"",""space"",""space"",""space"",""space"",""space"",""space"",""space"",""space"",""space"",""space"",""space"",""space"",""space"",""space"",""space"",""space"",""space"",""space"",""space"",""space"",""space"",""space"",""space"",""space"",""space"",""space"",""space"",""space"",""space"",""space"",""space"",""space""]","[0.44156499998643994,0.641304999939166,0.9287299999268726,1.097194999922067,1.36930499994196,1.5369649999774992,1.969470000010915,2.145384999923408,2.3052349999779835,2.6733949999324977,2.873479999951087,3.3856599999126047,3.585244999965653,4.168874999973923,4.353024999960326,4.913229999947362,5.0891549999359995,5.545294999959879,5.705134999938309,5.872674999991432,6.04941500001587,6.209419999970123,6.393309999955818,6.568800000008196,6.753519999911077,6.937159999972209,7.11813999991864,7.289164999965578,7.481764999916777,7.667769999941811,7.834449999965727,8.009014999959618,8.168749999953434,8.344814999960363,8.521284999907948,8.705249999999069,8.881519999937154,9.07345499994699,9.265529999975115,9.441200000001118,9.64160999993328,9.841015000012703,10.033760000020266,10.217019999981858,10.41726000001654,10.609479999984615,10.793194999918342,10.993219999945723,11.192790000000969,11.369330000015907,11.577829999965616,11.76128500001505,11.952799999970011,12.148724999977276,12.337584999972023,12.537359999958426,12.721444999915548,12.949949999921955,13.120920000015758,13.305294999969192,13.505334999994375,13.688994999974966,13.816784999915399,14.008909999975003,14.201129999943078,14.39333499991335,14.585274999961257,14.71358500001952,14.865920000011101]",space,0.372215,0.0,0.0,0.0,38.0,1.0,,
,,,,,,,,,,,block_2/weak_n_105_4.wav,no,n,weak,105.0,1.277365727,12.0504723,,,,yes,Samsung ,1,no,m,40,r,yes,1,2020-09-16_11h23.41.792,kura-B2,2020.1.2,Win32,60,,,,,,,,,,,,,,"[""space"",""space"",""space"",""space"",""space"",""space"",""space"",""space"",""space"",""space"",""space"",""space"",""space"",""space"",""space"",""space"",""space"",""space"",""space"",""space"",""space"",""space"",""space"",""space"",""space"",""space"",""space"",""space"",""space"",""space"",""space"",""space"",""space"",""space"",""space"",""space"",""space"",""space"",""space"",""space"",""space"",""space"",""space"",""space"",""space"",""space"",""space"",""space"",""space""]","[0.27123999991454184,0.5193299999227747,0.8633749999571592,1.0954950000159442,1.3355749999172986,1.6075849999906495,1.8794500000076368,2.135810000007041,2.3833449999801815,2.6231949999928474,2.8524999999208376,3.0721449999837205,3.3031849999679253,3.4493449999717996,3.6520249999593943,3.8231449999148026,3.9998149999883026,4.191415000008419,4.36820499994792,4.679569999920204,4.895640000002459,5.051899999962188,5.30184999993071,5.479624999919906,5.679714999976568,5.887394999968819,6.055394999915734,6.25532499991823,6.415864999988116,6.639484999934211,6.83941999997478,7.016169999958947,7.255419999943115,7.467899999930523,7.81773999996949,8.00737999996636,8.20065999997314,8.423104999936186,8.648534999927506,8.865370000014082,9.087134999921545,9.28415999992285,9.519280000007711,9.75930499995593,9.984270000015385,10.30321499996353,10.483944999985397,10.775234999950044,11.039439999964088]",space,0.373625,0.0,1.0,1.0,28.0,1.0,,
,,,,,,,,,,,block_2/strong_n_92_3.wav,no,n,strong,92.0,1.019287146,13.50967263,,,,yes,Samsung ,1,no,m,40,r,yes,1,2020-09-16_11h23.41.792,kura-B2,2020.1.2,Win32,60,,,,,,,,,,,,,,"[""space"",""space"",""space"",""space"",""space"",""space"",""space"",""space"",""space"",""space"",""space"",""space"",""space"",""space"",""space"",""space"",""space"",""space"",""space"",""space"",""space"",""space""]","[0.48567999992519617,0.693169999984093,1.0612399999517947,1.4139649999560788,2.109249999979511,2.741509999963455,3.372979999985546,3.949379999889061,4.588889999897219,5.229649999993853,5.865309999906458,6.493514999980107,7.081584999919869,7.693194999941625,8.333274999982677,8.973549999995157,9.621504999930039,10.230094999889843,10.869474999955855,11.49472999991849,12.100764999981038,12.76523499994073]",space,0.71674,0.0,2.0,2.0,39.0,1.0,,
,,,,,,,,,,,block_2/medium_n_81_3.wav,no,n,medium,81.0,2.235189468,17.75582439,,,,yes,Samsung ,1,no,m,40,r,yes,1,2020-09-16_11h23.41.792,kura-B2,2020.1.2,Win32,60,,,,,,,,,,,,,,"[""space"",""space"",""space"",""space"",""space"",""space"",""space"",""space"",""space"",""space"",""space"",""space"",""space"",""space"",""space"",""space"",""space"",""space"",""space"",""space"",""space"",""space"",""space"",""space"",""space"",""space"",""space"",""space"",""space"",""space"",""space"",""space"",""space"",""space"",""space"",""space"",""space"",""space"",""space"",""space"",""space"",""space"",""space"",""space"",""space"",""space"",""space"",""space"",""space"",""space"",""space"",""space"",""space"",""space"",""space"",""space"",""space"",""space"",""space"",""space""]","[0.3837749999947846,0.6541549999965355,0.8144000000320375,1.070285000023432,1.4148450000211596,1.8641899999929592,2.1901450000004843,2.390195000101812,2.7262800000607967,2.9579600000288337,3.1420400000642985,3.3261800000909716,3.606250000069849,3.799319999990985,3.942325000069104,4.12600500008557,4.4155449999962,4.615040000062436,4.782725000055507,5.0941550000570714,5.301765000098385,5.599649999989197,5.983560000080615,6.183680000016466,6.374995000078343,6.71082000003662,6.950360000017099,7.134545000037178,7.498850000090897,7.734389999997802,7.926145000034012,8.3101500000339,8.498439999995753,8.686290000099689,9.047060000011697,9.29863000009209,9.44816000002902,9.838095000013709,10.05441000009887,10.23131500009913,10.681300000054762,10.91476000007242,11.134520000079647,11.514369999989867,11.733980000019073,11.930954999988899,12.334224999998696,12.530835000099614,12.670365000027232,13.166049999999814,13.581770000047982,13.974135000025854,14.198045000084676,14.366000000038184,14.798370000091381,14.974320000037551,15.150145000079647,15.613825000007637,15.797920000040904,16.454420000081882]",space,0.93387,0.0,3.0,3.0,33.0,1.0,,
,,,,,,,,,,,block_2/medium_n_92_3.wav,no,n,medium,92.0,2.163023573,13.84869251,,,,yes,Samsung ,1,no,m,40,r,yes,1,2020-09-16_11h23.41.792,kura-B2,2020.1.2,Win32,60,,,,,,,,,,,,,,"[""space"",""space"",""space"",""space"",""space"",""space"",""space"",""space"",""space"",""space"",""space"",""space"",""space"",""space"",""space"",""space"",""space"",""space"",""space"",""space"",""space"",""space"",""space"",""space"",""space"",""space"",""space"",""space"",""space"",""space"",""space"",""space"",""space"",""space"",""space"",""space"",""space"",""space"",""space"",""space"",""space"",""space""]","[0.371199999935925,0.5869050000328571,0.7624849999556318,1.02718500001356,1.259059999953024,1.611185000045225,1.852130000013858,1.9626449999632314,2.2266900000395253,2.4272499999497086,2.738634999957867,2.9630099999485537,3.3550849999301136,3.5711100000189617,3.72289999993518,4.026805000030436,4.386474999948405,4.675290000042878,4.852255000034347,5.226780000026338,5.411409999942407,5.795225000008941,5.98699000000488,6.490675000008196,6.658820000011474,7.115600000019185,7.3016399999614805,7.768054999993183,7.948779999976978,8.351599999936298,8.522490000003017,8.922935000038706,9.122620000038296,9.72315500001423,10.138799999956973,10.338740000035614,10.794995000003837,10.99504499998875,11.39488000003621,11.587090000044554,12.00288000004366,12.226509999949485]",space,0.978205,0.0,4.0,4.0,2.0,1.0,,
,,,,,,,,,,,block_2/none_n_81_3.wav,no,n,none,81.0,2.161532659,18.80565964,,,,yes,Samsung ,1,no,m,40,r,yes,1,2020-09-16_11h23.41.792,kura-B2,2020.1.2,Win32,60,,,,,,,,,,,,,,"[""space"",""space"",""space"",""space"",""space"",""space"",""space"",""space"",""space"",""space"",""space"",""space"",""space"",""space"",""space"",""space"",""space"",""space"",""space"",""space"",""space"",""space"",""space"",""space"",""space"",""space"",""space"",""space"",""space"",""space"",""space"",""space"",""space"",""space"",""space"",""space"",""space"",""space"",""space"",""space"",""space"",""space"",""space"",""space"",""space"",""space"",""space"",""space"",""space"",""space"",""space"",""space"",""space"",""space"",""space"",""space"",""space"",""space"",""space"",""space"",""space"",""space"",""space"",""space"",""space"",""space"",""space"",""space"",""space"",""space"",""space"",""space"",""space"",""space"",""space"",""space""]","[0.4020149999996647,0.6061899999622256,0.9102749999146909,1.1026599999750033,1.4221149999648333,1.653569999965839,1.9903899999335408,2.253694999963045,2.5667949999915436,2.7850199999520555,3.0348099999828264,3.2460199999623,3.551314999931492,3.9186599999666214,4.151244999957271,4.438079999992624,4.701714999973774,4.917634999961592,5.214799999957904,5.45401500002481,5.685754999984056,5.93414499994833,6.301905000000261,6.573994999984279,6.798895000014454,7.048659999971278,7.34175000002142,7.633159999968484,7.926224999944679,8.199045000015758,8.447365000029095,8.666439999942668,8.901629999978468,9.08562000002712,9.269864999921992,9.470119999954477,9.65378499997314,9.86612999998033,10.047825000016019,10.221774999983609,10.414274999988265,10.621655000024475,10.80597999994643,11.005899999989197,11.215804999927059,11.390079999924637,11.606204999960028,11.774054999928921,11.950444999965839,12.182224999996834,12.350104999961331,12.501964999944903,12.733679999946617,12.933895000023767,13.125794999999925,13.334109999937937,13.541879999917,13.774164999951608,13.990295000025071,14.221509999944828,14.381760000018403,14.637630000011995,14.77402999997139,15.214809999917634,15.598319999990053,15.790365000022575,15.99801999994088,16.214874999946915,16.421839999966323,16.83811499993317,17.054004999925382,17.501899999915622,17.750080000027083,17.974150000023656,18.46256999997422,18.741994999931194]",space,0.304525,0.0,5.0,5.0,29.0,1.0,,
,,,,,,,,,,,block_2/weak_n_81_3.wav,no,n,weak,81.0,2.376095497,17.43405468,,,,yes,Samsung ,1,no,m,40,r,yes,1,2020-09-16_11h23.41.792,kura-B2,2020.1.2,Win32,60,,,,,,,,,,,,,,"[""space"",""space"",""space"",""space"",""space"",""space"",""space"",""space"",""space"",""space"",""space"",""space"",""space"",""space"",""space"",""space"",""space"",""space"",""space"",""space"",""space"",""space"",""space"",""space"",""space"",""space"",""space"",""space"",""space"",""space"",""space"",""space"",""space"",""space"",""space"",""space"",""space"",""space"",""space"",""space"",""space"",""space"",""space"",""space"",""space"",""space"",""space"",""space""]","[1.2379150000633672,1.4499599999981,1.598230000003241,1.8498799999943003,1.973835000069812,2.2379049999872223,2.43795500008855,3.199140000040643,3.3736500000813976,3.550054999999702,3.717670000041835,3.925275000045076,4.285740000079386,4.405705000041053,4.598385000019334,4.957890000077896,5.117470000055619,5.494040000019595,5.69382000004407,7.016000000061467,7.198800000012852,7.390020000049844,9.517809999990277,9.698315000045113,10.325695000006817,10.685630000079982,10.869615000090562,11.069405000074767,11.24614499998279,11.485770000028424,11.66320499998983,12.03144000004977,12.26945500005968,12.469810000038706,12.863045000005513,13.064585000043735,13.406185000087135,13.599285000003874,13.965470000053756,14.157370000029914,14.541735000093468,14.73386500007473,15.214305000030436,15.430065000080504,15.997620000038296,16.181555000017397,16.66988499998115,16.880110000027344]",space,0.43314,0.0,6.0,6.0,30.0,1.0,,
,,,,,,,,,,,block_2/none_n_105_4.wav,no,n,none,105.0,1.256367297,16.73296594,,,,yes,Samsung ,1,no,m,40,r,yes,1,2020-09-16_11h23.41.792,kura-B2,2020.1.2,Win32,60,,,,,,,,,,,,,,"[""space"",""space"",""space"",""space"",""space"",""space"",""space"",""space"",""space"",""space"",""space"",""space"",""space"",""space"",""space"",""space"",""space"",""space"",""space"",""space"",""space"",""space"",""space"",""space"",""space"",""space"",""space"",""space"",""space"",""space"",""space"",""space"",""space"",""space"",""space"",""space"",""space"",""space"",""space"",""space"",""space"",""space"",""space"",""space"",""space"",""space"",""space"",""space"",""space"",""space""]","[0.017254999955184758,0.23914499999955297,0.7197150000138208,0.9514949999283999,1.3522349999984726,1.5700049999868497,1.9589949999935925,2.1592299999902025,2.3190649999305606,2.7267749999882653,2.952074999921024,3.4165049999719486,3.6386599999386817,4.11965499992948,4.3524849999230355,4.816969999927096,5.04688499995973,5.535509999957867,5.758509999956004,6.159319999977015,6.390674999915063,6.8548050000099465,7.086939999950118,7.599214999936521,7.800004999968223,8.232205000007525,8.432350000017323,8.867755000013858,9.078704999992624,9.467454999918118,9.679155000019819,10.159119999967515,10.374769999994896,10.918914999929257,11.600510000018403,12.310914999921806,12.542664999957196,12.983245000010356,13.206825000001118,13.631374999997206,13.849749999935739,14.16651999996975,14.390814999933355,14.607130000018515,14.902879999950528,15.111009999993257,15.318859999999404,15.534929999965243,15.742679999908432,15.975214999984019]",space,0.467425,0.0,7.0,7.0,14.0,1.0,,
,,,,,,,,,,,block_2/strong_n_119_3.wav,no,n,strong,119.0,2.299979207,12.06555744,,,,yes,Samsung ,1,no,m,40,r,yes,1,2020-09-16_11h23.41.792,kura-B2,2020.1.2,Win32,60,,,,,,,,,,,,,,"[""space"",""space"",""space"",""space"",""space"",""space"",""space"",""space"",""space"",""space"",""space"",""space"",""space"",""space"",""space"",""space"",""space"",""space"",""space"",""space"",""space"",""space"",""space"",""space"",""space""]","[0.574930000002496,0.7753350000130013,1.0228500000666827,1.207204999984242,1.3907449999824166,1.7357600000686944,1.8950549999717623,2.230764999985695,2.7108500000322238,3.230749999987893,3.6868999999715015,3.854829999967478,4.217130000004545,4.710734999971464,5.168539999984205,5.662660000030883,6.119360000011511,6.638849999988452,7.135080000036396,7.6184249999932945,8.10303500003647,8.58460499998182,9.070945000043139,9.567500000004657,10.048754999996163]",space,9.373185,0.0,8.0,8.0,16.0,1.0,,
,,,,,,,,,,,block_2/medium_n_72_3.wav,no,n,medium,72.0,1.994146771,18.06802432,,,,yes,Samsung ,1,no,m,40,r,yes,1,2020-09-16_11h23.41.792,kura-B2,2020.1.2,Win32,60,,,,,,,,,,,,,,"[""space"",""space"",""space"",""space"",""space"",""space"",""space"",""space"",""space"",""space"",""space"",""space"",""space"",""space"",""space"",""space"",""space"",""space"",""space"",""space"",""space"",""space"",""space"",""space"",""space"",""space"",""space"",""space"",""space"",""space"",""space"",""space"",""space"",""space"",""space"",""space"",""space"",""space"",""space"",""space"",""space"",""space"",""space"",""space"",""space"",""space"",""space"",""space"",""space""]","[0.2827399999368936,0.5683949999511242,0.7281649999786168,1.1283999999286607,1.2880599999334663,1.6079099999042228,1.7679449999704957,2.26489499991294,2.4238349999068305,2.992299999925308,3.144444999983534,3.8824749999912456,4.024144999915734,4.713249999913387,4.888259999919683,5.504194999928586,5.665489999926649,6.319999999948777,6.487999999895692,7.1299599999329075,7.304294999921694,7.440354999969713,7.984804999898188,8.169159999932162,8.298564999946393,8.872449999907985,9.065029999939725,9.200264999992214,9.729034999967553,9.9311699999962,10.08839499996975,10.56789999990724,10.764379999949597,10.928579999948852,11.392279999912716,11.584399999934249,11.762274999986403,12.216379999998026,12.392504999996163,12.995824999990873,13.163249999983236,13.736719999928027,13.919964999891818,14.488494999939576,14.680169999948703,15.313544999924488,15.513364999904297,16.129399999976158,16.31318499997724]",space,0.92142,0.0,9.0,9.0,13.0,1.0,,
,,,,,,,,,,,block_2/weak_n_119_3.wav,no,n,weak,119.0,1.689359171,10.04573105,,,,yes,Samsung ,1,no,m,40,r,yes,1,2020-09-16_11h23.41.792,kura-B2,2020.1.2,Win32,60,,,,,,,,,,,,,,"[""space"",""space"",""space"",""space"",""space"",""space"",""space"",""space"",""space"",""space"",""space"",""space"",""space"",""space"",""space"",""space"",""space"",""space"",""space"",""space"",""space"",""space"",""space"",""space"",""space"",""space"",""space"",""space"",""space"",""space"",""space"",""space"",""space"",""space"",""space"",""space"",""space"",""space""]","[0.3341800000052899,0.47643499996047467,0.869925000006333,1.036339999991469,1.204425000003539,1.396309999981895,1.580184999969788,1.836379999993369,1.9879499999806285,2.2525900000473484,2.4044200000353158,2.7007250000024214,2.869399999966845,3.1333899999735877,3.2764050000114366,3.6204300000099465,3.7721550000132993,4.0521500000031665,4.180444999947213,4.443874999997206,4.612525000004098,4.902400000020862,5.3009499999461696,5.460450000013225,5.750495000043884,5.901219999999739,6.155834999983199,6.316469999961555,6.612194999936037,6.768574999994598,7.036274999962188,7.204170000040904,7.459980000043288,7.6122449999675155,7.902000000001863,8.076194999972358,8.365654999972321,8.50813999993261]",space,0.442185,0.0,10.0,10.0,37.0,1.0,,
,,,,,,,,,,,block_2/strong_n_72_4.wav,no,n,strong,72.0,1.689031128,17.05764791,,,,yes,Samsung ,1,no,m,40,r,yes,1,2020-09-16_11h23.41.792,kura-B2,2020.1.2,Win32,60,,,,,,,,,,,,,,"[""space"",""space"",""space"",""space"",""space"",""space"",""space"",""space"",""space"",""space"",""space"",""space"",""space"",""space"",""space"",""space"",""space"",""space"",""space"",""space""]","[0.9437449999386445,1.4955499999923632,2.343404999934137,3.1114550000056624,3.88718499999959,4.711574999964796,5.4554999999236315,6.271904999972321,7.055519999936223,7.815809999941848,8.607454999932088,9.407329999958165,10.184004999930039,11.00737999996636,11.823815000010654,12.607274999958463,13.385245000012219,14.167454999987967,14.967569999978878,15.751084999996237]",space,2.79074,0.0,11.0,11.0,35.0,1.0,,
,,,,,,,,,,,block_2/none_n_119_3.wav,no,n,none,119.0,1.37370001,14.3364211,,,,yes,Samsung ,1,no,m,40,r,yes,1,2020-09-16_11h23.41.792,kura-B2,2020.1.2,Win32,60,,,,,,,,,,,,,,"[""space"",""space"",""space"",""space"",""space"",""space"",""space"",""space"",""space"",""space"",""space"",""space"",""space"",""space"",""space"",""space"",""space"",""space"",""space"",""space"",""space"",""space"",""space"",""space"",""space"",""space"",""space"",""space"",""space"",""space"",""space"",""space"",""space"",""space"",""space"",""space"",""space"",""space"",""space"",""space"",""space"",""space"",""space"",""space"",""space"",""space"",""space"",""space"",""space"",""space"",""space"",""space"",""space"",""space"",""space"",""space"",""space"",""space"",""space"",""space"",""space""]","[0.2727250000461936,0.936794999986887,1.1168700000271201,1.4336200000252575,1.5926600000821054,2.0089350000489503,2.1927600000053644,2.440775000024587,2.600955000030808,2.8089650000911206,2.976714999997057,3.2663800000445917,3.441259999992326,3.7044950000708923,3.8885100000770763,4.136769999982789,4.304755000048317,4.624850000021979,4.792695000069216,5.0657950000604615,5.2249350000638515,5.472985000000335,5.633115000091493,5.9210800000000745,6.08174500009045,6.3928999999770895,6.553180000046268,6.801075000083074,6.9770100000314415,7.168885000050068,7.5490650000283495,7.699164999998175,7.913635000004433,8.072709999978542,8.256615000078455,8.441170000005513,8.625400000018999,8.848710000049323,9.016910000005737,9.208915000082925,9.393024999997579,9.568975000060163,9.75261500000488,9.936760000069626,10.132400000002235,10.33163999998942,10.520935000036843,10.71371000004001,10.905110000050627,11.104999999981374,11.297575000091456,11.50508000003174,11.688480000011623,11.872540000011213,12.07336000003852,12.282134999986738,12.45753000001423,12.640955000068061,12.857285000034608,13.08842500008177,13.272385000018403]",space,2.399575,0.0,12.0,12.0,24.0,1.0,,
,,,,,,,,,,,block_2/weak_n_72_4.wav,no,n,weak,72.0,1.671954957,17.64637673,,,,yes,Samsung ,1,no,m,40,r,yes,1,2020-09-16_11h23.41.792,kura-B2,2020.1.2,Win32,60,,,,,,,,,,,,,,"[""space"",""space"",""space"",""space"",""space"",""space"",""space"",""space"",""space"",""space"",""space"",""space"",""space"",""space"",""space"",""space"",""space"",""space"",""space"",""space"",""space"",""space"",""space"",""space"",""space"",""space"",""space"",""space"",""space"",""space"",""space"",""space"",""space"",""space"",""space"",""space"",""space"",""space"",""space"",""space"",""space"",""space"",""space"",""space"",""space"",""space"",""space"",""space"",""space"",""space"",""space"",""space"",""space"",""space"",""space""]","[0.46267500007525086,1.038814999978058,1.2222649999894202,1.5741750000743195,1.7529600000707433,2.102625000057742,2.2861699999775738,2.8542100000195205,3.0621200000168756,3.599900000030175,3.8066000000108033,4.478515000082552,4.694630000041798,5.2864149999804795,5.446725000045262,5.622315000044182,6.071590000065044,6.278530000010505,6.446590000065044,6.951835000072606,7.126189999980852,7.784540000022389,7.9743550000712276,8.167865000083111,8.63213500007987,8.815425000037067,9.00363000005018,9.45105000003241,9.590429999982007,9.750620000064373,9.910205000080168,10.390140000032261,10.542860000045039,10.726475000032224,11.174515000078827,11.302615000051446,11.454650000086986,11.622414999990724,12.02248500008136,12.174115000059828,12.367055000038818,12.806400000001304,12.98362499999348,13.174540000036359,13.647415000014007,13.84788999997545,14.006219999981113,14.47031500004232,14.649740000022575,14.847365000052378,15.318595000077039,15.48675500007812,15.670404999982566,16.126400000066496,16.30217000003904]",space,0.573815,0.0,13.0,13.0,4.0,1.0,,
,,,,,,,,,,,block_2/medium_n_105_4.wav,no,n,medium,105.0,2.115061775,16.52181914,,,,yes,Samsung ,1,no,m,40,r,yes,1,2020-09-16_11h23.41.792,kura-B2,2020.1.2,Win32,60,,,,,,,,,,,,,,"[""space"",""space"",""space"",""space"",""space"",""space"",""space"",""space"",""space"",""space"",""space"",""space"",""space"",""space"",""space"",""space"",""space"",""space"",""space"",""space"",""space"",""space"",""space"",""space"",""space"",""space"",""space"",""space"",""space"",""space"",""space"",""space"",""space"",""space"",""space"",""space"",""space"",""space"",""space"",""space"",""space"",""space"",""space"",""space"",""space"",""space"",""space"",""space"",""space"",""space"",""space"",""space"",""space""]","[0.45034999994095415,0.570575000019744,1.0103799999924377,1.2103249999927357,1.6267099999822676,1.8181999999796972,2.2664499999955297,2.466454999987036,2.994345000013709,3.1704449999378994,3.382774999947287,3.699185000034049,3.9063000000314787,4.099754999973811,4.450049999984913,4.6420999999390915,4.999439999926835,5.322120000026189,5.498954999959096,5.674864999949932,6.034080000012182,6.212824999936856,6.398719999939203,6.7629249999299645,6.915069999988191,7.115174999926239,7.458259999984875,7.6422099999617785,7.834444999927655,8.169909999938682,8.354300000006333,8.498174999956973,8.906300000031479,9.081974999979138,9.258239999995567,9.738454999984242,9.938070000032894,10.370494999922812,10.554409999982454,10.72219999996014,11.170599999953993,11.354195000021718,11.53085999994073,11.970079999999143,12.147125000017695,12.618350000004284,12.794579999987036,13.363675000029616,13.563205000013113,13.77065500000026,14.098340000025928,14.306474999990314,14.813925000024028]",space,1.233865,0.0,14.0,14.0,12.0,1.0,,
,,,,,,,,,,,block_2/medium_n_92_4.wav,no,n,medium,92.0,1.021723279,13.61201806,,,,yes,Samsung ,1,no,m,40,r,yes,1,2020-09-16_11h23.41.792,kura-B2,2020.1.2,Win32,60,,,,,,,,,,,,,,"[""space"",""space"",""space"",""space"",""space"",""space"",""space"",""space"",""space"",""space"",""space"",""space"",""space"",""space"",""space"",""space"",""space"",""space"",""space"",""space"",""space"",""space"",""space"",""space"",""space"",""space"",""space"",""space"",""space"",""space"",""space"",""space"",""space"",""space"",""space"",""space"",""space"",""space"",""space"",""space"",""space"",""space""]","[0.4579999999841675,0.6364300000714138,0.9381999999750406,1.1304950000485405,1.3302550000371411,1.6669349999865517,1.8693650000495836,2.4025799999944866,2.826310000033118,3.019120000069961,3.43542500003241,3.6188649999676272,3.819110000040382,4.100150000071153,4.283004999975674,4.735295000020415,4.935380000039004,5.386784999980591,5.562460000044666,5.994185000075959,6.201995000010356,6.699020000058226,6.899205000023358,7.315735000069253,7.506315000005998,7.922555000055581,8.118200000026263,8.551040000049397,8.738540000049397,9.202520000049844,9.402215000009164,9.850575000047684,10.050625000032596,10.498640000005253,10.699235000065528,11.131060000043362,11.350465000024997,11.802005000063218,12.01054499996826,12.37011000001803,12.57831500004977,13.01844999997411]",space,0.5673,0.0,15.0,15.0,11.0,1.0,,
,,,,,,,,,,,block_2/strong_n_105_4.wav,no,n,strong,105.0,1.723608797,13.55862014,,,,yes,Samsung ,1,no,m,40,r,yes,1,2020-09-16_11h23.41.792,kura-B2,2020.1.2,Win32,60,,,,,,,,,,,,,,"[""space"",""space"",""space"",""space"",""space"",""space"",""space"",""space"",""space"",""space"",""space"",""space"",""space"",""space"",""space"",""space"",""space"",""space"",""space"",""space"",""space""]","[0.7023999999510124,0.9664300000295043,1.3998099999735132,2.0228249999927357,2.599279999965802,3.2308450000127777,3.8066749999998137,4.430975000024773,5.022254999959841,5.615280000027269,6.206570000038482,6.815225000027567,7.3983899999875575,7.990310000022873,8.60675000003539,9.19817999994848,9.82269499998074,10.390469999983907,10.99870999995619,11.59809999994468,12.222240000031888]",space,0.69179,0.0,16.0,16.0,3.0,1.0,,
,,,,,,,,,,,block_2/weak_n_92_3.wav,no,n,weak,92.0,2.16711471,14.91038002,,,,yes,Samsung ,1,no,m,40,r,yes,1,2020-09-16_11h23.41.792,kura-B2,2020.1.2,Win32,60,,,,,,,,,,,,,,"[""space"",""space"",""space"",""space"",""space"",""space"",""space"",""space"",""space"",""space"",""space"",""space"",""space"",""space"",""space"",""space"",""space"",""space"",""space"",""space"",""space"",""space"",""space"",""space"",""space"",""space"",""space"",""space"",""space"",""space"",""space"",""space"",""space"",""space"",""space"",""space"",""space"",""space"",""space""]","[0.4508700000587851,0.6579899999778718,0.921195000060834,1.321250000037253,1.5052900000009686,2.0663949999725446,2.5141399999847636,2.689269999973476,3.1774849999928847,3.369384999969043,3.817090000025928,4.033404999994673,4.473315000068396,4.657260000007227,5.137274999986403,5.337500000023283,5.825489999959245,6.017420000047423,6.457384999957867,6.673025000025518,7.209499999997206,7.946349999983795,8.185485000023618,8.581645000027493,8.779304999974556,9.23305000003893,9.425354999955744,9.849135000025854,10.040890000062063,10.369139999966137,10.569954999955371,11.025084999972023,11.249825000064448,11.714200000045821,11.914564999984577,12.369640000048093,12.578044999972917,13.05726000003051,13.297385000041686]",space,1.592985,0.0,17.0,17.0,5.0,1.0,,
,,,,,,,,,,,block_2/none_n_92_4.wav,no,n,none,92.0,2.009431863,15.90199422,,,,yes,Samsung ,1,no,m,40,r,yes,1,2020-09-16_11h23.41.792,kura-B2,2020.1.2,Win32,60,,,,,,,,,,,,,,"[""space"",""space"",""space"",""space"",""space"",""space"",""space"",""space"",""space"",""space"",""space"",""space"",""space"",""space"",""space"",""space"",""space"",""space"",""space"",""space"",""space"",""space"",""space"",""space"",""space"",""space"",""space"",""space"",""space"",""space"",""space"",""space"",""space"",""space"",""space"",""space"",""space"",""space"",""space"",""space"",""space"",""space"",""space"",""space"",""space"",""space"",""space"",""space""]","[0.4198150000302121,0.6035850000334904,1.0863300000783056,1.2694750000955537,1.6194200000027195,2.0521100000478327,2.2600850000744686,2.6114400000078604,2.8274100000271574,3.1077600000426173,3.3164899999974295,3.684385000029579,3.8757550000445917,4.4848900000797585,4.6198600000934675,5.132440000073984,5.3231549999909475,5.651570000103675,5.8436600000131875,6.212825000053272,6.403215000056662,6.8117050000000745,6.995695000048727,7.411435000016354,7.595590000040829,7.981880000093952,8.184670000104234,8.619575000018813,8.819390000076964,9.251225000014529,9.451140000019222,9.767020000028424,9.964370000059716,10.411599999992177,10.611325000063516,10.933780000079423,11.116480000084266,11.548204999999143,11.755455000093207,12.059115000069141,12.267485000076704,12.6834150000941,12.891215000068769,13.107750000082888,13.33968500001356,13.797105000005104,14.003774999990128,14.235430000000633]",space,0.633805,0.0,18.0,18.0,19.0,1.0,,
,,,,,,,,,,,block_2/strong_n_92_4.wav,no,n,strong,92.0,1.480736093,15.18463632,,,,yes,Samsung ,1,no,m,40,r,yes,1,2020-09-16_11h23.41.792,kura-B2,2020.1.2,Win32,60,,,,,,,,,,,,,,"[""space"",""space"",""space"",""space"",""space"",""space"",""space"",""space"",""space"",""space"",""space"",""space"",""space"",""space"",""space"",""space"",""space"",""space"",""space""]","[0.6307099999394268,1.2033850000007078,1.9747999999672174,2.735344999935478,3.446659999899566,4.158314999891445,4.902574999956414,5.582954999990761,6.278174999984913,6.990304999984801,7.702549999929033,8.422679999959655,9.831399999908172,10.558899999945424,11.27843499998562,11.958244999987073,12.686864999937825,13.39965499995742,14.063899999950081]",space,0.560325,0.0,19.0,19.0,34.0,1.0,,
,,,,,,,,,,,block_2/weak_n_119_4.wav,no,n,weak,119.0,1.653391966,12.42708811,,,,yes,Samsung ,1,no,m,40,r,yes,1,2020-09-16_11h23.41.792,kura-B2,2020.1.2,Win32,60,,,,,,,,,,,,,,"[""space"",""space"",""space"",""space"",""space"",""space"",""space"",""space"",""space"",""space"",""space"",""space"",""space"",""space"",""space"",""space"",""space"",""space"",""space"",""space"",""space"",""space"",""space"",""space"",""space"",""space"",""space"",""space"",""space"",""space"",""space"",""space"",""space"",""space"",""space"",""space"",""space"",""space"",""space"",""space"",""space"",""space"",""space"",""space"",""space"",""space"",""space"",""space"",""space"",""space"",""space""]","[0.4745200000470504,0.6507500000298023,0.8196250000037253,1.0028450000099838,1.1784900000784546,1.3624149999814108,1.5463800000725314,1.7302500000223517,1.938480000011623,2.1385850000660866,2.3306599999777973,2.5386650000000373,2.7307700000237674,2.9225149999838322,3.1062699999893084,3.3025899999774992,3.5225850000279024,3.8741500000469387,4.052340000052936,4.267334999982268,4.483175000059418,4.690430000075139,4.9000750000122935,5.122365000075661,5.318504999973811,5.535645000054501,5.735345000051893,5.938620000029914,6.14647999999579,6.3702099999645725,6.586405000067316,6.818900000071153,7.02656000002753,7.242614999995567,7.474900000030175,7.701895000063814,7.90632499998901,8.13436999998521,8.354705000063404,8.562559999991208,8.778225000016391,8.995010000071488,9.22645499999635,9.467410000041127,9.690449999994598,9.931955000036396,10.15473499998916,10.378735000034794,10.60270499996841,10.818175000022165,11.050649999990128]",space,0.75368,0.0,20.0,20.0,31.0,1.0,,
,,,,,,,,,,,block_2/strong_n_81_4.wav,no,n,strong,81.0,1.736263272,17.70810001,,,,yes,Samsung ,1,no,m,40,r,yes,1,2020-09-16_11h23.41.792,kura-B2,2020.1.2,Win32,60,,,,,,,,,,,,,,"[""space"",""space"",""space"",""space"",""space"",""space"",""space"",""space"",""space"",""space"",""space"",""space"",""space"",""space"",""space"",""space"",""space"",""space"",""space"",""space"",""space"",""space""]","[0.414530000067316,0.6221800000639632,0.9175800000084564,1.726050000055693,2.5984150000149384,3.438025000039488,4.237855000072159,5.022330000065267,5.863435000064783,6.637530000065453,7.430434999987483,8.230295000015758,9.086089999997057,9.917865000083111,10.71488500002306,11.541885000071488,12.342075000051409,13.165649999980815,14.014220000011846,14.781685000052676,15.534440000075847,16.37416500004474]",space,0.701345,0.0,21.0,21.0,1.0,1.0,,
,,,,,,,,,,,block_2/weak_n_105_3.wav,no,n,weak,105.0,2.432347709,14.10785791,,,,yes,Samsung ,1,no,m,40,r,yes,1,2020-09-16_11h23.41.792,kura-B2,2020.1.2,Win32,60,,,,,,,,,,,,,,"[""space"",""space"",""space"",""space"",""space"",""space"",""space"",""space"",""space"",""space"",""space"",""space"",""space"",""space"",""space"",""space"",""space"",""space"",""space"",""space"",""space"",""space"",""space"",""space"",""space"",""space"",""space"",""space"",""space"",""space"",""space"",""space"",""space"",""space"",""space"",""space"",""space"",""space"",""space"",""space"",""space"",""space"",""space"",""space"",""space"",""space"",""space"",""space""]","[0.5468000000109896,0.7629700000397861,1.7033100000116974,1.91906999994535,2.0267300000414252,2.4028000000398606,2.6027000000467524,2.786435000016354,2.9950800000224262,3.171254999935627,3.3468100000172853,3.546904999995604,3.718944999971427,3.868984999950044,4.042394999996759,4.210725000011735,4.587100000004284,4.770969999954104,5.23519999999553,5.435214999946766,5.618615000043064,5.810964999953285,6.0186049999902025,6.202459999942221,6.394729999941774,6.586890000035055,7.010830000042915,7.226675000041723,7.4586200000485405,7.626930000027642,7.842900000046939,8.05856000003405,8.267839999985881,8.501300000003539,8.717814999981783,8.938620000029914,9.154740000027232,9.37891500000842,9.586574999964796,9.80286499997601,10.018719999934547,10.322365000029095,10.475259999977425,10.811029999982566,10.994459999958053,11.366644999943674,11.842930000042543,12.034469999955036]",space,0.56033,0.0,22.0,22.0,27.0,1.0,,
,,,,,,,,,,,block_2/strong_n_81_3.wav,no,n,strong,81.0,2.384474622,16.38941793,,,,yes,Samsung ,1,no,m,40,r,yes,1,2020-09-16_11h23.41.792,kura-B2,2020.1.2,Win32,60,,,,,,,,,,,,,,"[""space"",""space"",""space"",""space"",""space"",""space"",""space"",""space"",""space"",""space"",""space"",""space"",""space"",""space"",""space"",""space"",""space"",""space"",""space"",""space"",""space""]","[0.4663550000404939,0.6419650000752881,0.9161500000627711,1.498810000019148,2.257655000081286,2.921985000022687,3.6495200000936165,4.353965000016615,5.13186000008136,6.514970000018366,7.218330000061542,7.937660000054166,8.665400000056252,9.37877000006847,10.097850000020117,10.786270000040531,11.481945000006817,12.265820000087842,12.96949000004679,13.673750000074506,14.362775000045076]",space,0.63368,0.0,23.0,23.0,10.0,1.0,,
,,,,,,,,,,,block_2/strong_n_119_4.wav,no,n,strong,119.0,2.003027148,12.07137182,,,,yes,Samsung ,1,no,m,40,r,yes,1,2020-09-16_11h23.41.792,kura-B2,2020.1.2,Win32,60,,,,,,,,,,,,,,"[""space"",""space"",""space"",""space"",""space"",""space"",""space"",""space"",""space"",""space"",""space"",""space"",""space"",""space"",""space"",""space"",""space"",""space"",""space"",""space""]","[0.5869650000240654,1.000415000016801,1.6794150000205263,2.2234999999636784,2.7596149999881163,3.2712449999526143,3.775565000018105,4.247914999956265,4.775189999956638,5.27141499996651,5.7682999999960884,6.2954599999357015,6.807524999952875,7.311159999924712,7.839634999982081,8.327455000020564,8.83199999993667,9.351314999978058,9.871764999930747,10.36757999996189]",space,0.633665,0.0,24.0,24.0,23.0,1.0,,
,,,,,,,,,,,block_2/medium_n_119_4.wav,no,n,medium,119.0,1.918272059,10.22534689,,,,yes,Samsung ,1,no,m,40,r,yes,1,2020-09-16_11h23.41.792,kura-B2,2020.1.2,Win32,60,,,,,,,,,,,,,,"[""space"",""space"",""space"",""space"",""space"",""space"",""space"",""space"",""space"",""space"",""space"",""space"",""space"",""space"",""space"",""space"",""space"",""space"",""space"",""space"",""space"",""space"",""space"",""space"",""space"",""space"",""space"",""space"",""space"",""space"",""space"",""space"",""space"",""space"",""space"",""space"",""space"",""space""]","[0.3134449999779463,0.6093899999978021,0.8026599999284372,1.0027199999894947,1.161794999963604,1.3532750000013039,1.5378499999642372,1.7297049999469891,2.0896099999081343,2.286629999987781,2.485854999977164,2.666999999899417,2.8895550000015646,3.085770000005141,3.3023349998984486,3.5216249999357387,3.729704999946989,3.929634999949485,4.121344999992289,4.3298049999866635,4.601900000008754,4.777574999956414,5.145534999901429,5.337829999974929,5.641659999964759,5.809514999971725,6.099579999921843,6.2742499999003485,6.537804999970831,6.716084999963641,7.035150000010617,7.201469999970868,7.450529999914579,7.609884999925271,7.889874999993481,8.06856499996502,8.377384999999776,8.561554999905638]",space,1.104255,0.0,25.0,25.0,17.0,1.0,,
,,,,,,,,,,,block_2/none_n_81_4.wav,no,n,none,81.0,1.032736778,20.98466422,,,,yes,Samsung ,1,no,m,40,r,yes,1,2020-09-16_11h23.41.792,kura-B2,2020.1.2,Win32,60,,,,,,,,,,,,,,"[""space"",""space"",""space"",""space"",""space"",""space"",""space"",""space"",""space"",""space"",""space"",""space"",""space"",""space"",""space"",""space"",""space"",""space"",""space"",""space"",""space"",""space"",""space"",""space"",""space"",""space"",""space"",""space"",""space"",""space"",""space"",""space"",""space"",""space"",""space"",""space"",""space"",""space"",""space"",""space"",""space"",""space"",""space"",""space"",""space"",""space"",""space"",""space"",""space"",""space"",""space"",""space"",""space"",""space"",""space"",""space"",""space"",""space"",""space"",""space"",""space"",""space"",""space"",""space"",""space"",""space"",""space"",""space"",""space"",""space"",""space"",""space"",""space"",""space"",""space"",""space"",""space"",""space"",""space"",""space"",""space"",""space"",""space"",""space"",""space"",""space"",""space"",""space"",""space"",""space"",""space"",""space"",""space"",""space"",""space""]","[0.5514250000705943,0.7085199999855831,0.9075200000079349,1.091855000006035,1.2845150000648573,1.4599900000030175,1.6679350000340492,1.868125000037253,2.075705000082962,2.2681900000898167,2.4599750000052154,2.668080000090413,2.8434950000373647,3.2280050000408664,3.43578499997966,3.643580000032671,3.859745000023395,4.083840000093915,4.2674550000811,4.491975000011735,4.701119999983348,4.923765000072308,5.155430000042543,5.371525000082329,5.581684999982826,5.816334999981336,6.035450000083074,6.235575000056997,6.443760000052862,6.635690000024624,6.835495000006631,7.06738999998197,7.251770000089891,7.459484999999404,7.643700000015087,7.851905000046827,8.051940000033937,8.252080000005662,8.475710000027902,8.691585000022314,8.891984999994747,9.24401000002399,9.467845000093803,9.667620000080206,9.875425000092946,10.083719999995083,10.291590000037104,10.52382000000216,10.74985000002198,10.955705000087619,11.164675000007264,11.379950000089593,11.580290000070818,11.787349999998696,12.172115000081249,12.379850000026636,12.598950000014156,12.79625000001397,12.998330000089481,13.212505000061356,13.451624999986961,13.66761000000406,13.915359999984503,14.123935000039637,14.355555000016466,14.58211499999743,14.78171500004828,15.00383000005968,15.228555000037886,15.445595000055619,15.675545000005513,15.864999999990687,16.083935000002384,16.29176500008907,16.5314500000095,16.764620000030845,17.00350500002969,17.219845000072382,17.41208500007633,17.614969999995083,17.955985000007786,18.147585000027902,18.34738000005018,18.51556500000879,18.715485000051558,18.891700000036508,19.091840000008233,19.291680000023916,19.499835000024177,19.71556500007864,19.939950000029057,20.16353500005789,20.355570000014268,20.547875000047497,20.7395700000925]",space,0.98459,0.0,26.0,26.0,26.0,1.0,,
,,,,,,,,,,,block_2/none_n_105_3.wav,no,n,none,105.0,1.200203838,13.86165508,,,,yes,Samsung ,1,no,m,40,r,yes,1,2020-09-16_11h23.41.792,kura-B2,2020.1.2,Win32,60,,,,,,,,,,,,,,"[""space"",""space"",""space"",""space"",""space"",""space"",""space"",""space"",""space"",""space"",""space"",""space"",""space"",""space"",""space"",""space"",""space"",""space"",""space"",""space"",""space"",""space"",""space"",""space"",""space"",""space"",""space"",""space"",""space"",""space"",""space"",""space"",""space"",""space"",""space"",""space"",""space"",""space"",""space"",""space"",""space"",""space"",""space"",""space"",""space"",""space"",""space"",""space"",""space"",""space"",""space"",""space"",""space"",""space"",""space"",""space"",""space"",""space""]","[0.5026150000048801,0.652159999939613,0.8274449999444187,1.0272349999286234,1.2192400000058115,1.3948600000003353,1.6196149999741465,1.8431899999268353,2.5070999999297783,2.6999799999175593,2.8434399999678135,3.187334999907762,3.4112650000024587,3.579174999962561,3.7711399999679998,3.963569999905303,4.138689999934286,4.516064999974333,4.732834999915212,4.951724999933504,5.163174999994226,5.371414999943227,5.579494999954477,5.80337499990128,6.010769999935292,6.2272200000006706,6.451399999903515,6.65895999991335,6.8755050000036135,7.0676549999043345,7.284064999897964,7.484214999945834,7.674979999894276,7.875344999949448,8.107094999984838,8.335414999979548,8.555605000001378,8.784089999971911,8.995529999956489,9.219474999932572,9.419089999981225,9.627269999939017,9.826699999975972,10.059214999899268,10.267284999950789,10.46699499990791,10.691149999969639,10.916084999917075,11.133224999997765,11.35492999991402,11.570925000007264,11.771179999923334,11.983629999915138,12.200009999913163,12.39732499991078,12.627129999920726,12.859549999935552,13.083194999955595]",space,0.98555,0.0,27.0,27.0,6.0,1.0,,
,,,,,,,,,,,block_2/medium_n_72_4.wav,no,n,medium,72.0,1.35197092,15.86054235,,,,yes,Samsung ,1,no,m,40,r,yes,1,2020-09-16_11h23.41.792,kura-B2,2020.1.2,Win32,60,,,,,,,,,,,,,,"[""space"",""space"",""space"",""space"",""space"",""space"",""space"",""space"",""space"",""space"",""space"",""space"",""space"",""space"",""space"",""space"",""space"",""space"",""space"",""space"",""space"",""space"",""space"",""space"",""space"",""space"",""space"",""space"",""space"",""space"",""space"",""space"",""space"",""space""]","[0.6625800000037998,1.214244999922812,1.541979999979958,2.335884999949485,3.0861349999904633,3.801454999949783,4.535304999910295,5.238724999944679,5.422659999923781,5.92628999997396,6.102829999988899,6.6629799999063835,6.848675000015646,7.399024999933317,7.585139999981038,8.184320000000298,8.383504999917932,8.942639999906532,9.126329999999143,9.694290000014007,9.894449999905191,10.419044999987818,10.616784999961965,11.150359999970533,11.35058999992907,11.902549999998882,12.102149999933317,12.667024999973364,12.854724999982864,13.39055000001099,13.583409999962896,14.134539999999106,14.326239999965765,14.838439999963157]",space,0.421505,0.0,28.0,28.0,7.0,1.0,,
,,,,,,,,,,,block_2/weak_n_72_3.wav,no,n,weak,72.0,1.604938988,17.47283014,,,,yes,Samsung ,1,no,m,40,r,yes,1,2020-09-16_11h23.41.792,kura-B2,2020.1.2,Win32,60,,,,,,,,,,,,,,"[""space"",""space"",""space"",""space"",""space"",""space"",""space"",""space"",""space"",""space"",""space"",""space"",""space"",""space"",""space"",""space"",""space"",""space"",""space"",""space"",""space"",""space"",""space"",""space"",""space"",""space"",""space"",""space"",""space"",""space"",""space"",""space"",""space"",""space"",""space"",""space"",""space"",""space"",""space"",""space"",""space""]","[0.4009499999228865,0.5866899999091402,1.078804999939166,1.278939999989234,1.8950399999739602,2.1025299999164417,2.6193149999016896,2.8187599999364465,3.342895000008866,3.5524549999972805,4.094624999910593,4.286474999971688,4.927054999978282,5.094644999946468,5.834794999915175,5.984889999963343,6.8228249999228865,7.054629999911413,7.399860000004992,7.815679999999702,8.294729999965057,8.502764999982901,9.022954999934882,9.200884999940172,9.800924999988638,9.983599999919534,10.574814999941736,10.767239999957383,11.318644999992102,11.526650000014342,12.14284999994561,12.33460499998182,12.999919999972917,13.200539999990724,13.82304499996826,14.023255000007339,14.654699999955483,14.866019999957643,15.326424999977462,15.542394999996759,16.110714999958873]",space,0.53389,0.0,29.0,29.0,8.0,1.0,,
