key_resp.keys,key_resp.rt,practice_taps.keys,practice_taps.rt,keyresp.keys,keyresp.rt,practice_stims_loop.thisRepN,practice_stims_loop.thisTrialN,practice_stims_loop.thisN,practice_stims_loop.thisIndex,practice_stims_loop.ran,sndfile,type,tempo,cond,version,delay,dur,Participant Initials,"If you are a MTurk worker, what is your MTurk worker ID?'",Are you wearing headphones?,What are the headphone make and model?,"How many years of musical training, if any, do you have?",Do you have any hearing problems? Please describe,What is your sex (f/m/decline)?,What is your age?,What is your handedness (R/L/ambi)?,Are you currently in a secure and quiet room without a possible interruption?,session,date,expName,psychopyVersion,OS,frameRate,instructions_prompt.keys,instructions_prompt.rt,block1_taps.keys,block1_taps.rt,key_resp_2.keys,key_resp_2.rt,trials.thisRepN,trials.thisTrialN,trials.thisN,trials.thisIndex,trials.ran,key_resp2.keys,key_resp2.rt,block2_taps.keys,block2_taps.rt,key_resp_3.keys,key_resp_3.rt,trials_2.thisRepN,trials_2.thisTrialN,trials_2.thisN,trials_2.thisIndex,trials_2.ran,key_resp_4.keys,key_resp_4.rt,"If you are not an MTurk worker, please provide your email address"
space,6.393835,"[""space"",""space"",""space"",""space"",""space"",""space"",""space"",""space"",""space"",""space"",""space"",""space"",""space"",""space"",""space"",""space"",""space""]","[1.6487299999862444,2.373410000000149,3.059204999997746,3.74115499999607,4.491165000014007,5.276559999998426,6.0657049999863375,6.905209999997169,7.692520000011427,8.438055000005988,9.237655000004452,9.949924999993527,10.677575000008801,11.354670000000624,12.171685000008438,12.845215000008466,17.51610000000801]",space,2.491305,0.0,0.0,0.0,2.0,1.0,block_1/weak_n_72_4.wav,no,n,weak,72.0,1.922330121,17.89675189,,,Yes,Skullcandy Jib Earbuds,1,No,Male,36,Right,Yes,1,2020-09-07_10h21.43.606,kura-A2,2020.1.2,Win32,60,,,,,,,,,,,,,,,,,,,,,,,,,
,,"[""space"",""space"",""space"",""space"",""space"",""space"",""space"",""space"",""space"",""space"",""space"",""space"",""space"",""space"",""space"",""space"",""space"",""space""]","[0.555610000010347,1.2529199999989942,2.0855999999912456,2.7756700000027195,3.472509999992326,3.7154349999909755,4.4125800000038,4.911049999995157,5.544605000002775,6.045805000001565,6.496509999997215,6.930244999995921,7.378319999988889,7.862005000002682,8.427960000000894,8.928509999997914,9.446155000012368,9.980260000011185]",space,1.85531,0.0,1.0,1.0,1.0,1.0,block_2/medium_t_119_4.wav,timbre,t,medium,119.0,2.073396767,11.89421309,,,Yes,Skullcandy Jib Earbuds,1,No,Male,36,Right,Yes,1,2020-09-07_10h21.43.606,kura-A2,2020.1.2,Win32,60,,,,,,,,,,,,,,,,,,,,,,,,,
,,"[""space"",""space"",""space"",""space"",""space"",""space"",""space"",""space"",""space"",""space"",""space"",""space"",""space"",""space"",""space"",""space"",""space"",""space"",""space"",""space"",""space""]","[0.4599900000030175,1.1348050000087824,1.5905450000136625,2.0709849999984726,2.571939999994356,3.1902199999894947,3.816930000000866,4.393054999993183,4.933740000007674,5.551290000003064,6.107950000005076,6.7060899999924,7.246099999989383,7.80634499998996,8.351894999999786,8.9719150000019,9.568269999988843,10.134209999989253,10.738234999997076,11.359774999989895,11.952294999995502]",space,1.054265,0.0,2.0,2.0,0.0,1.0,block_1/medium_n_105_3.wav,no,n,medium,105.0,1.683245346,13.36533151,,,Yes,Skullcandy Jib Earbuds,1,No,Male,36,Right,Yes,1,2020-09-07_10h21.43.606,kura-A2,2020.1.2,Win32,60,,,,,,,,,,,,,,,,,,,,,,,,,
,,"[""space"",""space"",""space"",""space"",""space"",""space"",""space"",""space"",""space"",""space"",""space"",""space"",""space"",""space"",""space"",""space"",""space"",""space"",""space"",""space""]","[0.43174999998882413,0.910505000007106,1.473954999994021,1.9894750000094064,2.5296549999911804,3.0301949999993667,3.5546399999875575,4.035329999984242,4.521399999997811,5.054940000001807,5.531790000008186,6.054230000008829,6.53493999998318,7.0561699999962,7.573029999999562,8.092864999984158,8.540585000009742,9.07216999999946,9.584934999991674,10.084774999995716]",space,1.19681,0.0,3.0,3.0,3.0,1.0,block_2/strong_t_119_4.wav,timbre,t,strong,119.0,2.380207574,12.24809873,,,Yes,Skullcandy Jib Earbuds,1,No,Male,36,Right,Yes,1,2020-09-07_10h21.43.606,kura-A2,2020.1.2,Win32,60,,,,,,,,,,,,,,,,,,,,,,,,,
,,,,,,,,,,,block_1/strong_n_72_3.wav,no,n,strong,72.0,2.03136762,17.09667374,,,Yes,Skullcandy Jib Earbuds,1,No,Male,36,Right,Yes,1,2020-09-07_10h21.43.606,kura-A2,2020.1.2,Win32,60,space,10.408335,"[""space"",""space"",""space"",""space"",""space"",""space"",""space"",""space"",""space"",""space"",""space"",""space"",""space"",""space"",""space"",""space"",""space"",""space"",""space"",""space"",""space""]","[0.517584999994142,1.0937599999888334,1.8165900000021793,2.316579999984242,3.0864200000069104,3.8333249999850523,4.6159849999821745,5.3324699999939185,6.150040000007721,6.866959999984829,7.713445000001229,8.456319999997504,9.2886549999821,10.004140000004554,10.79079999998794,11.594964999996591,12.370599999994738,13.111329999985173,13.88865499998792,14.635069999989355,15.333094999979949]",space,1.71743,0.0,0.0,0.0,32.0,1.0,,,,,,,,,,,,,,
,,,,,,,,,,,block_1/strong_n_81_4.wav,no,n,strong,81.0,1.727706814,17.69954355,,,Yes,Skullcandy Jib Earbuds,1,No,Male,36,Right,Yes,1,2020-09-07_10h21.43.606,kura-A2,2020.1.2,Win32,60,,,"[""space"",""space"",""space"",""space"",""space"",""space"",""space"",""space"",""space"",""space"",""space"",""space"",""space"",""space"",""space"",""space"",""space"",""space"",""space"",""space"",""space""]","[0.4898899999971036,0.9755500000028405,1.7174249999807216,2.5650949999981094,3.3676549999800045,4.252089999994496,4.983854999998584,5.774210000003222,6.507084999990184,7.366179999982705,8.20050999999512,9.017089999979362,9.80048999999417,10.603499999997439,11.39947000000393,12.246649999986403,13.117004999978235,13.867559999984223,14.715714999998454,15.484295000002021,16.295974999986356]",space,0.74201,0.0,1.0,1.0,1.0,1.0,,,,,,,,,,,,,,
,,,,,,,,,,,block_1/none_n_92_3.wav,no,n,none,92.0,2.336707073,18.23675242,,,Yes,Skullcandy Jib Earbuds,1,No,Male,36,Right,Yes,1,2020-09-07_10h21.43.606,kura-A2,2020.1.2,Win32,60,,,"[""space"",""space"",""space"",""space"",""space"",""space"",""space"",""space"",""space"",""space"",""space"",""space"",""space"",""space"",""space"",""space"",""space"",""space"",""space"",""space"",""space"",""space"",""space"",""space"",""space"",""space"",""space"",""space"",""space"",""space"",""space"",""space"",""space"",""space"",""space"",""space"",""space"",""space"",""space"",""space"",""space"",""space"",""space"",""space"",""space"",""space"",""space"",""space"",""space"",""space"",""space"",""space"",""space"",""space"",""space"",""space"",""space"",""space"",""space"",""space"",""space"",""space""]","[0.30750999998417683,0.7307999999902677,0.9995499999786261,1.2363949999853503,1.534044999978505,1.7233099999721162,1.9552749999857042,2.2746599999954924,2.553764999989653,2.8597049999807496,3.3427799999772105,3.6513099999865517,3.834794999973383,4.136059999989811,4.38401999999769,4.6155499999877065,4.85060499998508,5.136674999987008,5.365104999975301,5.616124999971362,5.85341999999946,6.066264999972191,6.315299999987474,6.5650299999979325,6.800894999993034,7.04934499997762,7.250509999983478,7.467084999982035,7.669409999973141,7.9340399999928195,8.250014999997802,8.483159999974305,8.681414999999106,8.898729999986244,9.132419999979902,9.365729999990435,9.636520000000019,10.084339999972144,10.314769999997225,10.516684999980498,10.736729999975068,10.980109999974957,11.242759999993723,11.500024999986636,11.753564999991795,12.015814999991562,12.267229999997653,12.516859999974258,12.769189999991795,13.011649999971269,13.255859999975655,13.487534999992931,13.733989999978803,13.96921999999904,14.184789999999339,14.427879999973811,14.673624999995809,14.92581999997492,15.149459999985993,15.466184999997495,15.934824999974808,16.18338999999105]",space,0.798445,0.0,2.0,2.0,25.0,1.0,,,,,,,,,,,,,,
,,,,,,,,,,,block_1/none_n_105_3.wav,no,n,none,105.0,2.216733946,14.87818519,,,Yes,Skullcandy Jib Earbuds,1,No,Male,36,Right,Yes,1,2020-09-07_10h21.43.606,kura-A2,2020.1.2,Win32,60,,,"[""space"",""space"",""space"",""space"",""space"",""space"",""space"",""space"",""space"",""space"",""space"",""space"",""space"",""space"",""space"",""space"",""space"",""space"",""space"",""space"",""space"",""space"",""space"",""space"",""space"",""space"",""space"",""space"",""space"",""space"",""space"",""space"",""space"",""space"",""space"",""space"",""space"",""space"",""space"",""space"",""space"",""space"",""space"",""space"",""space"",""space"",""space"",""space"",""space""]","[0.36345999999321066,0.704939999995986,1.1266450000111945,1.5070399999967776,1.8529550000093877,2.4300700000021607,2.7343699999910314,3.1803099999960978,3.5030949999927543,3.866699999984121,4.100960000010673,4.333199999993667,4.571735000004992,4.833344999991823,5.084464999992633,5.351634999999078,5.621809999982361,5.866764999984298,6.07563000000664,6.284049999987474,6.511989999999059,6.950725000002421,7.168379999988247,7.373079999990296,7.599235000001499,7.804644999996526,7.990814999997383,8.233384999999544,8.44305999999051,8.666100000002189,8.873235000006389,9.079939999995986,9.30392999999458,9.509339999989606,9.74569499999052,9.970499999995809,10.158100000000559,10.383730000001378,10.587754999985918,10.836630000005243,11.04258999999729,11.25002000000677,11.492635000002338,11.706225000001723,11.983840000000782,12.27113000000827,12.471805000008317,12.703565000003437,12.92556499998318]",space,0.83992,0.0,3.0,3.0,6.0,1.0,,,,,,,,,,,,,,
,,,,,,,,,,,block_1/medium_n_105_4.wav,no,n,medium,105.0,1.402482856,15.80924023,,,Yes,Skullcandy Jib Earbuds,1,No,Male,36,Right,Yes,1,2020-09-07_10h21.43.606,kura-A2,2020.1.2,Win32,60,,,"[""space"",""space"",""space"",""space"",""space"",""space"",""space"",""space"",""space"",""space"",""space"",""space"",""space"",""space"",""space"",""space"",""space"",""space"",""space"",""space"",""space"",""space"",""space"",""space"",""space"",""space"",""space"",""space"",""space"",""space"",""space"",""space"",""space"",""space"",""space"",""space"",""space"",""space""]","[0.6338200000172947,1.0466200000082608,1.5257350000028964,1.9350500000000466,2.2010650000011083,2.536179999995511,2.801644999999553,3.034090000001015,3.3701900000160094,3.608745000005001,3.866185000020778,4.1503000000084285,4.419790000014473,4.683569999993779,4.904615000006743,5.1338399999949615,5.349745000014082,5.58328000002075,5.817000000010012,6.070485000003828,6.319520000019111,6.549570000002859,6.738520000013523,6.968170000007376,7.248279999999795,7.472620000015013,7.718710000015562,8.102175000007264,8.391904999996768,8.906660000007832,9.575605000020005,10.33223500000895,11.048334999999497,11.832855000015115,12.54859000002034,13.29951500002062,13.998905000014929,14.698275000002468]",space,0.502755,0.0,4.0,4.0,12.0,1.0,,,,,,,,,,,,,,
,,,,,,,,,,,block_1/weak_n_81_3.wav,no,n,weak,81.0,1.412334255,16.47029344,,,Yes,Skullcandy Jib Earbuds,1,No,Male,36,Right,Yes,1,2020-09-07_10h21.43.606,kura-A2,2020.1.2,Win32,60,,,"[""space"",""space"",""space"",""space"",""space"",""space"",""space"",""space"",""space"",""space"",""space"",""space"",""space"",""space"",""space"",""space"",""space"",""space"",""space"",""space"",""space"",""space"",""space"",""space""]","[0.33387000000220723,0.7848549999762326,1.1182799999951385,1.401914999994915,1.7845049999887124,2.217659999994794,2.5691449999867473,3.2317549999861512,3.9594149999902584,4.794189999985974,5.537254999973811,6.300264999998035,7.0140449999889825,7.764999999984866,8.564729999983683,9.24781499998062,9.948704999987967,10.678844999987632,11.403839999984484,12.157344999985071,12.924654999980703,13.634139999980107,14.523690000001807,15.184559999994235]",space,0.59456,0.0,5.0,5.0,30.0,1.0,,,,,,,,,,,,,,
,,,,,,,,,,,block_1/medium_n_92_4.wav,no,n,medium,92.0,1.438882438,14.02917722,,,Yes,Skullcandy Jib Earbuds,1,No,Male,36,Right,Yes,1,2020-09-07_10h21.43.606,kura-A2,2020.1.2,Win32,60,,,"[""space"",""space"",""space"",""space"",""space"",""space"",""space"",""space"",""space"",""space"",""space"",""space"",""space"",""space"",""space"",""space"",""space"",""space"",""space"",""space"",""space""]","[0.35412500001257285,0.9665099999983795,1.595354999997653,2.2237850000092294,2.8340099999913946,3.750130000000354,4.0902550000173505,4.72181499999715,5.302419999992708,5.925084999995306,6.532290000002831,7.165550000005169,7.841240000008838,8.452805000008084,9.120075000013458,9.733990000007907,10.349075000005541,11.02225000000908,11.682945000007749,12.270445000001928,12.88354999999865]",space,1.21624,0.0,6.0,6.0,11.0,1.0,,,,,,,,,,,,,,
,,,,,,,,,,,block_1/medium_n_81_3.wav,no,n,medium,81.0,1.199970007,16.72060493,,,Yes,Skullcandy Jib Earbuds,1,No,Male,36,Right,Yes,1,2020-09-07_10h21.43.606,kura-A2,2020.1.2,Win32,60,,,"[""space"",""space"",""space"",""space"",""space"",""space""]","[0.3288849999953527,0.810540000005858,1.2728950000018813,1.9757950000057463,2.834015000000363,3.652795000001788]",space,3.4552,0.0,7.0,7.0,33.0,1.0,,,,,,,,,,,,,,
,,,,,,,,,,,block_1/strong_n_119_4.wav,no,n,strong,119.0,1.980480326,12.048825,,,Yes,Skullcandy Jib Earbuds,1,No,Male,36,Right,Yes,1,2020-09-07_10h21.43.606,kura-A2,2020.1.2,Win32,60,,,"[""space"",""space"",""space"",""space"",""space"",""space"",""space"",""space"",""space"",""space"",""space"",""space"",""space"",""space"",""space"",""space"",""space"",""space"",""space"",""space""]","[0.7958199999993667,1.2729949999775272,1.7678999999770895,2.223729999997886,2.683999999979278,3.2191649999876972,3.7381549999990966,4.250134999980219,4.73293499997817,5.234214999974938,5.799074999988079,6.301199999987148,6.792734999995446,7.283049999998184,7.771884999994654,8.301774999999907,8.817444999993313,9.313734999974258,9.817494999995688,10.306759999977658]",space,1.93634,0.0,8.0,8.0,23.0,1.0,,,,,,,,,,,,,,
,,,,,,,,,,,block_1/none_n_119_3.wav,no,n,none,119.0,1.932281918,14.89500301,,,Yes,Skullcandy Jib Earbuds,1,No,Male,36,Right,Yes,1,2020-09-07_10h21.43.606,kura-A2,2020.1.2,Win32,60,,,"[""space"",""space"",""space"",""space"",""space"",""space"",""space"",""space"",""space"",""space"",""space"",""space"",""space"",""space"",""space"",""space"",""space"",""space""]","[0.3871450000151526,0.7555200000060722,1.1354299999948125,1.4184750000131316,1.7864899999985937,2.154240000003483,2.6184399999910966,3.1600449999968987,3.724935000005644,4.256840000016382,4.809529999998631,5.375189999991562,5.899460000015097,6.50094500000705,7.083734999992885,7.706630000000587,8.317520000011427,8.874234999995679]",space,0.636305,0.0,9.0,9.0,24.0,1.0,,,,,,,,,,,,,,
,,,,,,,,,,,block_1/weak_n_72_4.wav,no,n,weak,72.0,1.441009476,17.41543124,,,Yes,Skullcandy Jib Earbuds,1,No,Male,36,Right,Yes,1,2020-09-07_10h21.43.606,kura-A2,2020.1.2,Win32,60,,,"[""space"",""space"",""space"",""space"",""space"",""space"",""space"",""space"",""space"",""space"",""space"",""space"",""space"",""space"",""space"",""space"",""space"",""space"",""space""]","[0.35240500001236796,0.7041599999938626,1.3022599999967497,1.6701150000153575,2.168774999998277,2.536565000016708,3.1539449999982025,3.734370000020135,4.402395000011893,5.335229999996955,6.0989600000029895,6.923024999996414,7.736830000008922,8.542745000013383,9.349249999999302,10.183275000017602,10.906235000002198,11.88160500000231,12.701975000003586]",space,56.8829,0.0,10.0,10.0,4.0,1.0,,,,,,,,,,,,,,
,,,,,,,,,,,block_1/none_n_72_3.wav,no,n,none,72.0,1.892162994,23.61892036,,,Yes,Skullcandy Jib Earbuds,1,No,Male,36,Right,Yes,1,2020-09-07_10h21.43.606,kura-A2,2020.1.2,Win32,60,,,"[""space"",""space"",""space"",""space"",""space"",""space"",""space"",""space"",""space"",""space"",""space"",""space"",""space"",""space"",""space"",""space"",""space"",""space"",""space"",""space"",""space"",""space"",""space"",""space"",""space"",""space"",""space"",""space"",""space"",""space""]","[0.4643050000013318,1.0682900000247173,1.6756500000192318,2.3427000000083353,2.9589900000137277,3.6012449999980163,4.334320000023581,5.111270000023069,5.8106600000173785,6.559934999997495,7.35808000000543,8.167300000000978,8.963850000000093,9.735110000008717,10.521319999999832,11.324095000018133,12.100780000007944,12.92528000002494,13.77367000002414,14.580645000009099,15.417035000020405,16.143665000010515,16.91704000000027,17.654920000000857,18.40741500002332,19.145970000012312,19.84499000001233,20.27569000000949,20.652975000004517,21.356565000023693]",space,0.88829,0.0,11.0,11.0,18.0,1.0,,,,,,,,,,,,,,
,,,,,,,,,,,block_1/strong_n_81_3.wav,no,n,strong,81.0,1.6043637,15.60930701,,,Yes,Skullcandy Jib Earbuds,1,No,Male,36,Right,Yes,1,2020-09-07_10h21.43.606,kura-A2,2020.1.2,Win32,60,,,"[""space"",""space"",""space"",""space"",""space"",""space"",""space"",""space"",""space"",""space"",""space"",""space"",""space"",""space"",""space"",""space"",""space"",""space"",""space"",""space"",""space""]","[0.41901000001234934,0.9223800000036135,1.5068900000187568,2.2022149999975227,2.923460000019986,3.663200000009965,4.340950000012526,5.041840000019874,5.6849550000042655,6.417264999996405,7.155410000006668,7.869709999999031,8.576644999993732,9.240084999997634,10.034775000007357,10.758800000010524,11.469745000009425,12.367209999996703,12.949605000001611,13.65094500000123,14.416935000015656]",space,1.109005,0.0,12.0,12.0,10.0,1.0,,,,,,,,,,,,,,
,,,,,,,,,,,block_1/medium_n_72_4.wav,no,n,medium,72.0,1.204769933,15.71334136,,,Yes,Skullcandy Jib Earbuds,1,No,Male,36,Right,Yes,1,2020-09-07_10h21.43.606,kura-A2,2020.1.2,Win32,60,,,"[""space"",""space"",""space"",""space"",""space"",""space"",""space"",""space"",""space"",""space"",""space"",""space"",""space"",""space"",""space"",""space""]","[0.3846149999881163,0.8588100000051782,1.4506149999797344,2.1357049999933224,2.9572249999910127,3.7194949999975506,4.416399999987334,5.15179000000353,5.904134999989765,6.635209999978542,7.335380000004079,8.0726399999985,8.783609999984037,9.536564999987604,10.335189999983413,11.038349999987986]",space,1.45548,0.0,13.0,13.0,7.0,1.0,,,,,,,,,,,,,,
,,,,,,,,,,,block_1/weak_n_72_3.wav,no,n,weak,72.0,1.008682366,16.87657352,,,Yes,Skullcandy Jib Earbuds,1,No,Male,36,Right,Yes,1,2020-09-07_10h21.43.606,kura-A2,2020.1.2,Win32,60,,,"[""space"",""space"",""space"",""space"",""space"",""space"",""space"",""space"",""space"",""space"",""space"",""space"",""space"",""space"",""space"",""space"",""space"",""space"",""space"",""space"",""space""]","[0.48429500000202097,1.100139999995008,1.9005250000045635,2.6136100000003353,3.6142800000088755,4.2010600000212435,5.0305200000002515,5.826715000002878,6.617660000018077,7.449190000013914,8.189100000017788,8.968469999992521,9.676900000020396,10.426269999996293,11.201215000008233,11.930309999996098,12.743745000014314,13.524139999994077,14.341500000009546,15.123460000002524,15.996589999995194]",space,3.59752,0.0,14.0,14.0,8.0,1.0,,,,,,,,,,,,,,
,,,,,,,,,,,block_1/medium_n_119_4.wav,no,n,medium,119.0,1.261396351,9.568471181,,,Yes,Skullcandy Jib Earbuds,1,No,Male,36,Right,Yes,1,2020-09-07_10h21.43.606,kura-A2,2020.1.2,Win32,60,,,"[""space"",""space"",""space"",""space"",""space"",""space"",""space"",""space"",""space"",""space"",""space"",""space"",""space"",""space"",""space"",""space"",""space"",""space"",""space""]","[0.39141000001109205,0.919354999990901,1.3651649999956135,1.7496699999901466,2.251989999989746,2.7155849999981,3.1343050000141375,3.5817600000009406,4.005425000010291,4.461269999999786,4.86944000000949,5.338850000000093,5.820364999992307,6.277759999997215,6.731215000007069,7.197990000015125,7.6471200000087265,8.052235000010114,8.496979999996256]",space,0.48302,0.0,15.0,15.0,17.0,1.0,,,,,,,,,,,,,,
,,,,,,,,,,,block_1/none_n_105_4.wav,no,n,none,105.0,1.493653366,16.97025201,,,Yes,Skullcandy Jib Earbuds,1,No,Male,36,Right,Yes,1,2020-09-07_10h21.43.606,kura-A2,2020.1.2,Win32,60,,,"[""space"",""space"",""space"",""space"",""space"",""space"",""space"",""space"",""space"",""space"",""space"",""space"",""space"",""space"",""space"",""space"",""space"",""space"",""space""]","[0.4523499999777414,0.9678599999751896,1.5868049999990035,2.2867849999747705,3.120709999988321,3.922019999998156,4.802209999994375,5.68832499999553,6.548060000000987,7.402784999983851,8.151054999994813,8.925594999978784,9.759229999996023,10.644299999985378,11.552849999978207,12.471199999999953,13.281640000001062,14.396394999988843,15.37587999997777]",space,0.48622,0.0,16.0,16.0,14.0,1.0,,,,,,,,,,,,,,
,,,,,,,,,,,block_1/strong_n_92_3.wav,no,n,strong,92.0,1.754608557,14.24499404,,,Yes,Skullcandy Jib Earbuds,1,No,Male,36,Right,Yes,1,2020-09-07_10h21.43.606,kura-A2,2020.1.2,Win32,60,,,"[""space"",""space"",""space"",""space"",""space"",""space"",""space"",""space"",""space"",""space"",""space"",""space"",""space"",""space"",""space"",""space"",""space"",""space"",""space"",""space"",""space""]","[0.4094500000064727,0.860080000013113,1.4600750000099652,2.0392350000038277,2.6596650000137743,3.2702850000059698,3.894140000018524,4.56765500002075,5.1435700000147335,5.794710000016494,6.363920000003418,6.984625000011874,7.634680000017397,8.239744999998948,8.821825000020908,9.507320000004256,10.209900000016205,10.779255000001285,11.481900000013411,12.087825000024168,12.742255000019213]",space,0.59341,0.0,17.0,17.0,39.0,1.0,,,,,,,,,,,,,,
,,,,,,,,,,,block_1/strong_n_119_3.wav,no,n,strong,119.0,1.213627968,10.9792062,,,Yes,Skullcandy Jib Earbuds,1,No,Male,36,Right,Yes,1,2020-09-07_10h21.43.606,kura-A2,2020.1.2,Win32,60,,,"[""space"",""space"",""space"",""space"",""space"",""space"",""space"",""space"",""space"",""space"",""space"",""space"",""space"",""space"",""space"",""space"",""space"",""space"",""space"",""space"",""space""]","[0.5480650000099558,0.9074800000234973,1.3211799999990035,1.718670000002021,2.13506500000949,2.6109050000086427,3.0999400000146125,3.6225050000066403,4.1248300000152085,4.5892600000079256,5.07545500001288,5.518674999999348,6.0210750000260305,6.551095000002533,7.05515000000014,7.501200000027893,8.02703000002657,8.489965000015218,8.959419999999227,9.48015500002657,9.969185000023572]",space,0.402385,0.0,18.0,18.0,16.0,1.0,,,,,,,,,,,,,,
,,,,,,,,,,,block_1/weak_n_92_3.wav,no,n,weak,92.0,1.887522896,14.6307882,,,Yes,Skullcandy Jib Earbuds,1,No,Male,36,Right,Yes,1,2020-09-07_10h21.43.606,kura-A2,2020.1.2,Win32,60,,,"[""space"",""space"",""space"",""space"",""space"",""space"",""space"",""space"",""space"",""space"",""space"",""space"",""space"",""space"",""space"",""space"",""space"",""space"",""space"",""space"",""space""]","[0.36373499999172054,0.8462149999977555,1.376909999991767,1.9368550000071991,2.5552200000092853,3.207254999986617,3.852645000006305,4.49127500000759,5.118435000011232,5.768359999987297,6.321434999990743,6.985530000005383,7.613030000007711,8.312579999997979,8.99571499999729,9.717895000008866,10.400324999995064,11.098499999992782,11.682869999989634,12.33288000000175,12.953780000010738]",space,0.851715,0.0,19.0,19.0,5.0,1.0,,,,,,,,,,,,,,
,,,,,,,,,,,block_1/weak_n_119_3.wav,no,n,weak,119.0,2.459758036,10.81612992,,,Yes,Skullcandy Jib Earbuds,1,No,Male,36,Right,Yes,1,2020-09-07_10h21.43.606,kura-A2,2020.1.2,Win32,60,,,"[""space"",""space"",""space"",""space"",""space"",""space"",""space"",""space"",""space"",""space"",""space"",""space"",""space"",""space"",""space"",""space"",""space"",""space"",""space"",""space""]","[0.3529149999958463,0.8839049999951385,1.3185250000096858,1.7177650000085123,2.122590000013588,2.531199999997625,2.971690000005765,3.390979999996489,3.7864450000051875,4.185915000009118,4.618749999994179,5.044590000004973,5.441995000001043,6.30181000000448,6.321695000020554,6.751445000001695,7.21486000000732,7.574110000015935,8.077560000005178,8.560584999999264]",space,0.53974,0.0,20.0,20.0,37.0,1.0,,,,,,,,,,,,,,
,,,,,,,,,,,block_1/none_n_81_3.wav,no,n,none,81.0,1.098648096,17.74277508,,,Yes,Skullcandy Jib Earbuds,1,No,Male,36,Right,Yes,1,2020-09-07_10h21.43.606,kura-A2,2020.1.2,Win32,60,,,"[""space"",""space"",""space"",""space"",""space"",""space"",""space"",""space"",""space"",""space"",""space"",""space"",""space"",""space"",""space"",""space"",""space"",""space"",""space"",""space""]","[0.3732350000063889,0.8534300000173971,1.5214800000248943,2.0374850000080187,2.625510000012582,3.2207650000054855,3.8831150000041816,4.439585000014631,5.129365000000689,5.775270000012824,6.383505000005243,6.954725000017788,7.708305000007385,8.3188300000038,8.957955000019865,9.619880000012927,10.24984500001301,10.833290000009583,11.415025000023888,12.0536200000206]",space,0.83478,0.0,21.0,21.0,29.0,1.0,,,,,,,,,,,,,,
,,,,,,,,,,,block_1/none_n_92_4.wav,no,n,none,92.0,1.296817987,15.18938035,,,Yes,Skullcandy Jib Earbuds,1,No,Male,36,Right,Yes,1,2020-09-07_10h21.43.606,kura-A2,2020.1.2,Win32,60,,,"[""space"",""space"",""space"",""space"",""space"",""space"",""space"",""space"",""space"",""space"",""space"",""space"",""space"",""space"",""space"",""space"",""space"",""space"",""space"",""space"",""space"",""space"",""space"",""space"",""space"",""space"",""space""]","[0.3682649999973364,0.7517549999756739,1.1558749999967404,1.6007149999786634,1.9878999999782536,2.5160849999811035,3.0476399999752175,3.601744999992661,4.1304999999993015,4.69883999999729,5.248769999976503,5.801539999985835,6.364859999972396,6.981214999977965,7.584759999997914,8.133929999981774,8.701994999981252,9.266064999974333,9.793374999979278,10.331329999986337,10.827849999972386,11.404579999973066,11.900599999993574,12.371599999984028,12.849764999991748,13.333285000000615,13.836564999975963]",space,0.58818,0.0,22.0,22.0,19.0,1.0,,,,,,,,,,,,,,
,,,,,,,,,,,block_1/medium_n_72_3.wav,no,n,medium,72.0,2.102023577,18.17590113,,,Yes,Skullcandy Jib Earbuds,1,No,Male,36,Right,Yes,1,2020-09-07_10h21.43.606,kura-A2,2020.1.2,Win32,60,,,"[""space"",""space"",""space"",""space"",""space"",""space"",""space"",""space"",""space"",""space"",""space"",""space"",""space"",""space"",""space"",""space"",""space"",""space"",""space"",""space"",""space""]","[0.3409899999969639,0.7346450000186451,1.4524099999980535,2.3133450000023004,3.1269949999987148,3.9314050000102725,4.881480000010924,5.724815000023227,6.501850000000559,7.3572450000210665,8.166635000001406,8.896544999995967,9.722225000004983,10.567040000023553,11.419445000006817,12.08772000001045,12.963470000016969,13.721134999999776,14.566330000001471,15.40014000001247,16.23885500000324]",space,0.58499,0.0,23.0,23.0,13.0,1.0,,,,,,,,,,,,,,
,,,,,,,,,,,block_1/strong_n_92_4.wav,no,n,strong,92.0,2.276261723,15.98016195,,,Yes,Skullcandy Jib Earbuds,1,No,Male,36,Right,Yes,1,2020-09-07_10h21.43.606,kura-A2,2020.1.2,Win32,60,,,"[""space"",""space"",""space"",""space"",""space"",""space"",""space"",""space"",""space"",""space"",""space"",""space"",""space"",""space"",""space"",""space"",""space"",""space"",""space"",""space"",""space"",""space""]","[0.38435500001651235,0.787575000023935,1.2524450000200886,1.8909350000030827,2.5560000000114087,3.3274700000183657,4.011740000016289,4.656119999999646,5.290155000024242,6.0033150000090245,6.738105000025826,7.461240000004182,8.244910000008531,8.92404000001261,9.58966500000679,10.18703000000096,10.900980000005802,11.602525000023888,12.31872999999905,13.052340000023833,13.743110000010347,14.358910000009928]",space,0.3684,0.0,24.0,24.0,34.0,1.0,,,,,,,,,,,,,,
,,,,,,,,,,,block_1/medium_n_119_3.wav,no,n,medium,119.0,1.238363393,11.09976929,,,Yes,Skullcandy Jib Earbuds,1,No,Male,36,Right,Yes,1,2020-09-07_10h21.43.606,kura-A2,2020.1.2,Win32,60,,,"[""space"",""space"",""space""]","[0.31659999999101274,0.7449699999997392,1.173129999981029]",space,1.43881,0.0,25.0,25.0,22.0,1.0,,,,,,,,,,,,,,
,,,,,,,,,,,block_1/none_n_81_4.wav,no,n,none,81.0,2.242955119,22.19488256,,,Yes,Skullcandy Jib Earbuds,1,No,Male,36,Right,Yes,1,2020-09-07_10h21.43.606,kura-A2,2020.1.2,Win32,60,,,"[""space"",""space"",""space"",""space"",""space"",""space"",""space"",""space"",""space"",""space"",""space"",""space"",""space"",""space"",""space"",""space"",""space"",""space"",""space"",""space"",""space"",""space"",""space"",""space"",""space"",""space"",""space"",""space"",""space"",""space"",""space"",""space"",""space""]","[0.37854500001412816,0.751330000028247,1.2067100000276696,1.7929150000272784,2.26295500001288,2.797035000025062,3.367580000020098,4.085255000012694,4.7391350000107195,5.391735000011977,6.0005700000037905,6.903945000027306,7.269265000009909,7.85875000001397,8.551095000002533,9.256500000017695,9.967580000025919,10.600785000016913,11.27223000000231,11.899850000016158,12.56743500000448,13.277495000016643,13.967445000016596,14.549310000002151,15.133065000001807,15.785245000006398,16.34210500001791,16.941290000017034,17.533745000022464,18.220945000008214,18.783830000000307,19.440265000012005,20.10829500001273]",space,0.56123,0.0,26.0,26.0,26.0,1.0,,,,,,,,,,,,,,
,,,,,,,,,,,block_1/weak_n_81_4.wav,no,n,weak,81.0,2.484743178,17.5438815,,,Yes,Skullcandy Jib Earbuds,1,No,Male,36,Right,Yes,1,2020-09-07_10h21.43.606,kura-A2,2020.1.2,Win32,60,,,"[""space"",""space"",""space"",""space"",""space"",""space"",""space"",""space"",""space"",""space"",""space"",""space"",""space"",""space"",""space"",""space"",""space"",""space"",""space"",""space"",""space""]","[0.32826000000932254,0.8240300000179559,1.6555850000004284,2.4051299999991897,3.251110000011977,4.017080000019632,4.733440000010887,5.618329999997513,6.383180000004359,7.080730000016047,7.715950000012526,8.42990000001737,9.19141500000842,9.85044999999809,10.53845000002184,11.23726500000339,12.05033500000718,12.7683600000164,13.616605000017444,14.412364999996498,15.133600000001024]",space,0.468505,0.0,27.0,27.0,36.0,1.0,,,,,,,,,,,,,,
,,,,,,,,,,,block_1/medium_n_105_3.wav,no,n,medium,105.0,2.417465983,14.09955215,,,Yes,Skullcandy Jib Earbuds,1,No,Male,36,Right,Yes,1,2020-09-07_10h21.43.606,kura-A2,2020.1.2,Win32,60,,,"[""space"",""space"",""space"",""space"",""space"",""space"",""space"",""space"",""space"",""space"",""space"",""space"",""space"",""space"",""space"",""space"",""space"",""space"",""space"",""space"",""space""]","[0.3167900000116788,0.89929500001017,1.4655900000070687,2.0269700000062585,2.5828850000107195,3.199749999999767,3.7630800000042655,4.3225600000005215,4.916304999991553,5.457865000003949,6.09990500001004,6.617400000017369,7.212809999997262,7.769260000000941,8.461784999992233,9.117785000009462,9.57394000000204,10.159899999998743,10.794560000009369,11.309459999989485,11.910934999992605]",space,0.49824,0.0,28.0,28.0,0.0,1.0,,,,,,,,,,,,,,
,,,,,,,,,,,block_1/strong_n_105_3.wav,no,n,strong,105.0,1.156897655,12.38746455,,,Yes,Skullcandy Jib Earbuds,1,No,Male,36,Right,Yes,1,2020-09-07_10h21.43.606,kura-A2,2020.1.2,Win32,60,,,"[""space"",""space"",""space"",""space"",""space"",""space"",""space"",""space"",""space"",""space"",""space"",""space"",""space"",""space"",""space"",""space"",""space"",""space"",""space"",""space"",""space""]","[0.338160000013886,0.6547650000138674,1.1361550000146963,1.73654000001261,2.325654999993276,2.891139999992447,3.4499850000138395,3.9964550000149757,4.567230000015115,5.120215000002645,5.69589500001166,6.277590000012424,6.893070000020089,7.4557349999959115,8.040800000017043,8.638510000018869,9.1568949999928,9.684620000014547,10.255869999993593,10.921514999994542,11.475145000003977]",space,0.919785,0.0,29.0,29.0,9.0,1.0,,,,,,,,,,,,,,
,,,,,,,,,,,block_1/weak_n_105_3.wav,no,n,weak,105.0,1.738990723,13.41450093,,,Yes,Skullcandy Jib Earbuds,1,No,Male,36,Right,Yes,1,2020-09-07_10h21.43.606,kura-A2,2020.1.2,Win32,60,,,"[""space"",""space"",""space"",""space"",""space"",""space"",""space"",""space"",""space"",""space"",""space"",""space"",""space"",""space"",""space"",""space"",""space"",""space"",""space"",""space"",""space"",""space"",""space"",""space""]","[0.3960149999766145,0.7180499999958556,1.2339149999897927,1.6902449999761302,2.133299999986775,2.5682600000000093,3.122899999987567,3.6343549999874085,4.0530049999943,4.448149999981979,4.884200000000419,5.278854999982286,5.769795000000158,6.3162349999765866,6.778105000004871,7.305164999997942,7.849914999998873,8.42650999999023,8.967004999984056,9.56264999997802,10.166659999988042,10.733729999978095,11.31640999999945,11.842015000001993]",space,0.241205,0.0,30.0,30.0,27.0,1.0,,,,,,,,,,,,,,
,,,,,,,,,,,block_1/medium_n_92_3.wav,no,n,medium,92.0,1.602440637,13.28810957,,,Yes,Skullcandy Jib Earbuds,1,No,Male,36,Right,Yes,1,2020-09-07_10h21.43.606,kura-A2,2020.1.2,Win32,60,,,"[""space"",""space"",""space"",""space"",""space"",""space"",""space"",""space"",""space"",""space"",""space"",""space"",""space"",""space"",""space"",""space"",""space"",""space"",""space"",""space"",""space"",""space""]","[0.159654999995837,0.44267499999841675,0.7424349999928381,1.118545000004815,1.5868799999880139,2.117324999999255,2.675359999993816,3.3116949999821372,3.938739999983227,4.505204999994021,5.093514999985928,5.719500000006519,6.319604999996955,6.912064999982249,7.426569999981439,8.087434999994002,8.704754999984289,9.28730500000529,9.971734999999171,10.60339999999269,11.151099999988219,11.795119999995222]",space,0.497605,0.0,31.0,31.0,2.0,1.0,,,,,,,,,,,,,,
,,,,,,,,,,,block_1/weak_n_92_4.wav,no,n,weak,92.0,2.208253857,14.29442166,,,Yes,Skullcandy Jib Earbuds,1,No,Male,36,Right,Yes,1,2020-09-07_10h21.43.606,kura-A2,2020.1.2,Win32,60,,,"[""space"",""space"",""space"",""space"",""space"",""space"",""space"",""space"",""space"",""space"",""space"",""space"",""space"",""space"",""space"",""space"",""space"",""space"",""space"",""space"",""space""]","[0.3710750000027474,0.8489750000007916,1.3632800000195857,1.987730000022566,2.579830000002403,3.159255000005942,3.7727650000015274,4.387669999996433,4.970335000019986,5.492580000020098,6.150795000023209,6.77223000000231,7.408915000007255,8.00755000000936,8.590735000005225,9.188990000024205,9.837025000015274,10.50755000000936,11.072130000015022,11.636705000011716,12.2742750000034]",space,0.701825,0.0,32.0,32.0,15.0,1.0,,,,,,,,,,,,,,
,,,,,,,,,,,block_1/medium_n_81_4.wav,no,n,medium,81.0,1.742854158,16.25138024,,,Yes,Skullcandy Jib Earbuds,1,No,Male,36,Right,Yes,1,2020-09-07_10h21.43.606,kura-A2,2020.1.2,Win32,60,,,"[""space"",""space"",""space"",""space"",""space"",""space"",""space"",""space"",""space"",""space"",""space"",""space"",""space"",""space"",""space"",""space"",""space"",""space"",""space"",""space"",""space""]","[0.2695650000241585,0.6693300000042655,1.418615000002319,2.1266750000067987,2.9029650000156835,3.6442000000097323,4.413315000012517,5.19377500002156,5.923250000021653,6.668785000016214,7.469080000009853,8.185505000001285,8.87681500002509,9.579605000006268,10.23652000000584,10.954340000025695,11.698125000024447,12.501930000027642,13.269575000012992,14.069120000000112,14.747275000001537]",space,0.47123,0.0,33.0,33.0,38.0,1.0,,,,,,,,,,,,,,
,,,,,,,,,,,block_1/strong_n_72_4.wav,no,n,strong,72.0,1.599228342,16.96784512,,,Yes,Skullcandy Jib Earbuds,1,No,Male,36,Right,Yes,1,2020-09-07_10h21.43.606,kura-A2,2020.1.2,Win32,60,,,"[""space"",""space"",""space"",""space"",""space"",""space"",""space"",""space"",""space"",""space"",""space"",""space"",""space"",""space"",""space"",""space"",""space"",""space"",""space"",""space"",""space""]","[0.35264999998616986,0.7596799999882933,1.3695149999985006,2.168600000004517,2.994124999997439,3.80121499998495,4.6358799999870826,5.3509049999993294,6.164354999986244,6.983134999987669,7.718339999992168,8.583924999984447,9.366385000001173,10.138229999982286,10.999359999987064,11.750494999985676,12.500460000010207,13.383529999991879,14.116990000009537,14.866095000004862,15.667004999995697]",space,0.417995,0.0,34.0,34.0,35.0,1.0,,,,,,,,,,,,,,
,,,,,,,,,,,block_1/none_n_72_4.wav,no,n,none,72.0,1.118979514,23.86124709,,,Yes,Skullcandy Jib Earbuds,1,No,Male,36,Right,Yes,1,2020-09-07_10h21.43.606,kura-A2,2020.1.2,Win32,60,,,"[""space"",""space"",""space"",""space"",""space"",""space"",""space"",""space"",""space"",""space"",""space"",""space"",""space"",""space"",""space"",""space"",""space"",""space"",""space"",""space"",""space"",""space"",""space"",""space"",""space""]","[0.36688000001595356,0.8343950000125915,1.4005350000225008,1.9218100000289269,2.485670000023674,3.0748750000202563,3.652685000008205,4.19228000001749,4.725135000015143,5.248420000018086,5.822410000022501,6.423790000000736,6.975005000014789,7.5022700000263285,8.014780000026803,8.569405000016559,9.18689500002074,9.764480000012554,10.359700000000885,10.972990000009304,11.491125000000466,12.134875000017928,12.803640000027372,13.319285000005038,13.985040000028675]",space,1.482145,0.0,35.0,35.0,21.0,1.0,,,,,,,,,,,,,,
,,,,,,,,,,,block_1/weak_n_105_4.wav,no,n,weak,105.0,1.436012468,12.20911904,,,Yes,Skullcandy Jib Earbuds,1,No,Male,36,Right,Yes,1,2020-09-07_10h21.43.606,kura-A2,2020.1.2,Win32,60,,,"[""space"",""space"",""space"",""space"",""space"",""space"",""space"",""space"",""space"",""space"",""space"",""space"",""space"",""space"",""space"",""space"",""space"",""space"",""space"",""space"",""space""]","[0.32870500002172776,0.7667950000031851,1.328540000016801,1.8632199999992736,2.5405250000185333,3.1095600000116974,3.61543000000529,4.162500000005821,4.666725000017323,5.195319999998901,5.720695000025444,6.216885000001639,6.782930000015767,7.299989999999525,7.840225000021746,8.400465000013355,8.899700000009034,9.417914999998175,9.949855000013486,10.432900000014342,10.968520000024]",space,0.585535,0.0,36.0,36.0,28.0,1.0,,,,,,,,,,,,,,
,,,,,,,,,,,block_1/none_n_119_4.wav,no,n,none,119.0,2.009432028,15.37111003,,,Yes,Skullcandy Jib Earbuds,1,No,Male,36,Right,Yes,1,2020-09-07_10h21.43.606,kura-A2,2020.1.2,Win32,60,,,"[""space"",""space"",""space"",""space"",""space"",""space"",""space"",""space"",""space"",""space"",""space"",""space"",""space"",""space"",""space"",""space"",""space"",""space"",""space"",""space"",""space"",""space""]","[0.31854499998735264,0.8007199999992736,1.3853700000036042,1.9517150000028778,2.6424950000073295,3.283419999992475,3.923660000000382,4.54722499998752,5.266015000001062,5.9174500000081025,6.604985000012675,7.2175050000078045,7.852164999989327,8.483765000011772,9.017125000013039,9.615939999988768,10.166499999992084,10.715570000000298,11.319235000002664,11.915849999990314,12.626874999987194,13.29819500001031]",space,0.470305,0.0,37.0,37.0,20.0,1.0,,,,,,,,,,,,,,
,,,,,,,,,,,block_1/strong_n_105_4.wav,no,n,strong,105.0,1.30585928,13.14087062,,,Yes,Skullcandy Jib Earbuds,1,No,Male,36,Right,Yes,1,2020-09-07_10h21.43.606,kura-A2,2020.1.2,Win32,60,,,"[""space"",""space"",""space"",""space"",""space"",""space"",""space"",""space"",""space"",""space"",""space"",""space"",""space"",""space"",""space"",""space"",""space"",""space"",""space"",""space"",""space"",""space""]","[0.4407950000022538,0.8070299999963026,1.3517350000038277,1.9521499999973457,2.5289599999960046,3.159014999982901,3.7177649999794085,4.312264999985928,4.903829999995651,5.506389999995008,6.109620000002906,6.675869999977294,7.250039999984438,7.900114999996731,8.540749999985565,9.138139999995474,9.734609999984968,10.297034999995958,10.901849999994738,11.63315499998862,12.13586999999825,12.654045000002952]",space,0.68064,0.0,38.0,38.0,3.0,1.0,,,,,,,,,,,,,,
,,,,,,,,,,,block_1/weak_n_119_4.wav,no,n,weak,119.0,2.305568033,13.07926418,,,Yes,Skullcandy Jib Earbuds,1,No,Male,36,Right,Yes,1,2020-09-07_10h21.43.606,kura-A2,2020.1.2,Win32,60,,,"[""space"",""space"",""space"",""space"",""space"",""space"",""space"",""space"",""space"",""space"",""space"",""space"",""space"",""space"",""space"",""space"",""space"",""space"",""space"",""space"",""space""]","[0.12995999999111518,0.6793899999756832,1.1265649999841116,1.6567849999992177,2.319069999997737,2.9134899999771733,3.4196499999961816,3.97064999997383,4.468144999991637,4.9963499999721535,5.574949999980163,6.084374999976717,6.654859999980545,7.197934999974677,7.721269999979995,8.322259999986272,8.892729999992298,9.34649499997613,9.809539999987464,10.346974999993108,10.950734999991255]",space,0.436715,0.0,39.0,39.0,31.0,1.0,,,,,,,,,,,,,,
,,,,,,,,,,,block_2/weak_t_92_3.wav,timbre,t,weak,92.0,1.995389518,17.35720358,,,Yes,Skullcandy Jib Earbuds,1,No,Male,36,Right,Yes,1,2020-09-07_10h21.43.606,kura-A2,2020.1.2,Win32,60,,,,,,,,,,,,space,560.488995,"[""space"",""space"",""space"",""space"",""space"",""space"",""space"",""space"",""space"",""space"",""space"",""space"",""space"",""space"",""space"",""space"",""space"",""space"",""space"",""space"",""space"",""space""]","[0.9231250000011642,1.5547999999835156,2.1892400000069756,2.899940000002971,3.6272299999836832,4.366080000007059,5.085660000011558,5.748629999987315,6.417379999998957,7.087185000011232,7.746370000008028,8.465525000006892,9.16078999999445,9.920764999988023,10.500304999994114,11.183474999997998,11.801424999983283,12.481509999983246,13.087390000000596,13.799055000010412,14.572194999986095,15.339604999986477]",space,0.9632,0.0,0.0,0.0,38.0,1.0,,,
,,,,,,,,,,,block_2/weak_t_105_4.wav,timbre,t,weak,105.0,1.205192231,12.73516956,,,Yes,Skullcandy Jib Earbuds,1,No,Male,36,Right,Yes,1,2020-09-07_10h21.43.606,kura-A2,2020.1.2,Win32,60,,,,,,,,,,,,,,"[""space"",""space"",""space"",""space"",""space"",""space"",""space"",""space"",""space"",""space"",""space"",""space"",""space"",""space"",""space"",""space"",""space"",""space"",""space"",""space"",""space""]","[0.42944000000716187,0.9674050000030547,1.591084999992745,2.1007249999966007,2.70290499998373,3.2980899999965914,3.8535700000065845,4.361364999989746,4.950519999983953,5.473269999987679,6.016615000000456,6.536099999997532,7.070370000001276,7.628899999981513,8.2523199999996,8.873694999987492,9.63267999998061,9.986759999999776,10.54102000000421,11.133964999986347,11.673664999980247]",space,1.46926,0.0,1.0,1.0,7.0,1.0,,,
,,,,,,,,,,,block_2/weak_t_92_4.wav,timbre,t,weak,92.0,2.338363624,13.8208126,,,Yes,Skullcandy Jib Earbuds,1,No,Male,36,Right,Yes,1,2020-09-07_10h21.43.606,kura-A2,2020.1.2,Win32,60,,,,,,,,,,,,,,"[""space"",""space"",""space"",""space"",""space"",""space"",""space"",""space"",""space"",""space"",""space"",""space"",""space"",""space"",""space"",""space"",""space"",""space"",""space"",""space"",""space""]","[0.37211999998544343,0.7908199999947101,1.3376299999945331,1.8520600000047125,2.3875000000116415,2.951245000003837,3.562514999997802,4.10638499999186,4.646164999983739,5.2754600000043865,5.791614999994636,6.390844999987166,6.954389999998966,7.45663999998942,8.141910000005737,8.73494500000379,9.384084999997867,9.941404999990482,10.50012000001152,11.106525000010151,11.679559999989579]",space,1.849645,0.0,2.0,2.0,29.0,1.0,,,
,,,,,,,,,,,block_2/strong_t_105_3.wav,timbre,t,strong,105.0,1.973938856,13.50654657,,,Yes,Skullcandy Jib Earbuds,1,No,Male,36,Right,Yes,1,2020-09-07_10h21.43.606,kura-A2,2020.1.2,Win32,60,,,,,,,,,,,,,,"[""space"",""space"",""space"",""space"",""space"",""space"",""space"",""space"",""space"",""space"",""space"",""space"",""space"",""space"",""space"",""space"",""space"",""space"",""space"",""space"",""space""]","[0.3591149999992922,0.7452800000028219,1.2574800000002142,1.8008750000153668,2.384055000002263,2.9727600000042003,3.5544750000117347,4.158625000010943,4.768080000008922,5.312789999996312,5.885230000014417,6.466560000000754,7.053669999993872,7.610500000009779,8.221045000012964,8.866715000011027,9.418304999999236,9.978804999991553,10.582835000008345,11.33270500000799,11.728499999997439]",space,0.63431,0.0,3.0,3.0,21.0,1.0,,,
,,,,,,,,,,,block_2/medium_t_81_3.wav,timbre,t,medium,81.0,1.280563259,13.87394194,,,Yes,Skullcandy Jib Earbuds,1,No,Male,36,Right,Yes,1,2020-09-07_10h21.43.606,kura-A2,2020.1.2,Win32,60,,,,,,,,,,,,,,"[""space"",""space"",""space"",""space"",""space"",""space"",""space"",""space"",""space"",""space"",""space"",""space"",""space"",""space"",""space"",""space"",""space"",""space"",""space"",""space""]","[0.3524250000191387,1.007675000000745,2.0024350000021514,2.3507750000280794,3.1568850000039674,3.921870000020135,4.55248000001302,5.234400000015739,5.81938000000082,6.503065000026254,7.168175000027986,7.853105000016512,8.469060000003083,9.035425000009127,9.785370000026887,10.35252000001492,10.969390000012936,11.603155000018887,12.290350000024773,12.911990000022342]",space,0.49447,0.0,4.0,4.0,8.0,1.0,,,
,,,,,,,,,,,block_2/medium_t_92_4.wav,timbre,t,medium,92.0,1.599417172,14.59601581,,,Yes,Skullcandy Jib Earbuds,1,No,Male,36,Right,Yes,1,2020-09-07_10h21.43.606,kura-A2,2020.1.2,Win32,60,,,,,,,,,,,,,,"[""space"",""space"",""space"",""space"",""space"",""space"",""space"",""space"",""space"",""space"",""space"",""space"",""space"",""space"",""space"",""space"",""space"",""space""]","[0.3680600000079721,1.140270000003511,1.936985000007553,2.825940000009723,3.5943850000039674,4.420219999999972,6.416495000012219,6.7317650000040885,7.3483349999878556,7.900555000000168,8.549629999994067,9.16691999998875,9.948529999994207,10.635559999995166,11.298604999989038,11.916304999991553,12.699254999984987,13.316419999988284]",space,0.600695,0.0,5.0,5.0,25.0,1.0,,,
,,,,,,,,,,,block_2/none_t_119_3.wav,timbre,t,none,119.0,1.207484261,12.32644118,,,Yes,Skullcandy Jib Earbuds,1,No,Male,36,Right,Yes,1,2020-09-07_10h21.43.606,kura-A2,2020.1.2,Win32,60,,,,,,,,,,,,,,"[""space"",""space"",""space"",""space"",""space"",""space"",""space"",""space"",""space"",""space"",""space"",""space"",""space"",""space"",""space"",""space"",""space""]","[0.3346099999907892,0.9351499999756925,1.5666949999867938,2.117499999993015,2.7027699999744073,3.4515449999889825,4.116369999974268,4.716454999987036,5.466359999991255,6.185579999990296,6.84519999998156,7.595464999991236,8.365874999988591,9.112269999983255,9.856139999988955,10.653109999984736,11.4543999999878]",space,0.52016,0.0,6.0,6.0,32.0,1.0,,,
,,,,,,,,,,,block_2/medium_t_105_3.wav,timbre,t,medium,105.0,1.319167427,12.09599282,,,Yes,Skullcandy Jib Earbuds,1,No,Male,36,Right,Yes,1,2020-09-07_10h21.43.606,kura-A2,2020.1.2,Win32,60,,,,,,,,,,,,,,"[""space"",""space"",""space"",""space"",""space"",""space"",""space"",""space"",""space"",""space"",""space"",""space"",""space"",""space"",""space"",""space"",""space"",""space"",""space""]","[0.31620999998995103,0.9836849999846891,1.6174899999750778,2.2327749999822117,2.793534999975236,3.347254999971483,3.8897199999773875,4.427869999984978,5.064769999997225,5.5158599999849685,6.248959999997169,6.6336149999988265,7.166249999980209,7.748589999973774,8.266764999978477,8.848094999993918,9.417129999987083,9.966084999992745,10.53152499999851]",space,2.38578,0.0,7.0,7.0,16.0,1.0,,,
,,,,,,,,,,,block_2/none_t_105_3.wav,timbre,t,none,105.0,1.906849656,15.72757528,,,Yes,Skullcandy Jib Earbuds,1,No,Male,36,Right,Yes,1,2020-09-07_10h21.43.606,kura-A2,2020.1.2,Win32,60,,,,,,,,,,,,,,"[""space"",""space"",""space"",""space"",""space"",""space"",""space"",""space"",""space"",""space"",""space"",""space"",""space"",""space"",""space"",""space"",""space"",""space"",""space"",""space"",""space"",""space"",""space""]","[0.4194500000157859,1.0690699999977369,1.9011199999949895,2.5686449999921024,3.2019150000123773,3.917734999995446,4.558680000016466,5.083890000008978,5.73477000001003,6.328955000004498,6.918585000006715,7.5078750000102445,8.150250000006054,8.74608499999158,9.402564999996684,9.958535000012489,10.479879999998957,11.03538000001572,11.67037999999593,12.258230000006733,12.755495000019437,13.40824000001885,14.062490000011167]",space,3.63393,0.0,8.0,8.0,14.0,1.0,,,
,,,,,,,,,,,block_2/none_t_92_4.wav,timbre,t,none,92.0,1.414044957,16.25508804,,,Yes,Skullcandy Jib Earbuds,1,No,Male,36,Right,Yes,1,2020-09-07_10h21.43.606,kura-A2,2020.1.2,Win32,60,,,,,,,,,,,,,,"[""space"",""space"",""space"",""space"",""space"",""space"",""space"",""space"",""space"",""space"",""space"",""space"",""space"",""space"",""space"",""space"",""space"",""space"",""space"",""space"",""space"",""space"",""space"",""space"",""space"",""space"",""space"",""space""]","[0.4013250000134576,1.0018750000162981,1.6009150000172667,2.1863500000035856,2.8018250000022817,3.3840150000178255,4.0192750000278465,4.650555000000168,5.22036500001559,5.8350350000255276,6.450675000000047,7.043239999999059,7.599310000019614,8.124160000006668,8.690545000019483,8.885960000014165,9.219825000007404,9.700970000005327,10.12986000001547,10.61974000002374,11.1370300000126,11.73960500000976,12.221994999999879,12.740840000013122,13.252050000010058,13.756265000003623,14.362370000017108,14.961055000021588]",space,0.60773,0.0,9.0,9.0,22.0,1.0,,,
,,,,,,,,,,,block_2/medium_t_81_4.wav,timbre,t,medium,81.0,2.313262111,15.10881767,,,Yes,Skullcandy Jib Earbuds,1,No,Male,36,Right,Yes,1,2020-09-07_10h21.43.606,kura-A2,2020.1.2,Win32,60,,,,,,,,,,,,,,"[""space"",""space"",""space"",""space"",""space"",""space"",""space"",""space"",""space"",""space"",""space"",""space"",""space"",""space"",""space"",""space"",""space"",""space"",""space"",""space"",""space""]","[0.5206300000136252,0.8344050000014249,1.2992450000019744,1.8324200000206474,2.5666849999979604,3.216580000007525,3.815904999995837,4.484825000021374,5.0549600000085775,5.700440000015078,6.307614999997895,6.9808000000193715,7.750460000010207,8.228460000013001,8.869839999999385,9.482790000009118,10.10267500000191,10.774290000001201,11.416060000017751,12.032325000007404,12.611155000020517]",space,0.552905,0.0,10.0,10.0,2.0,1.0,,,
,,,,,,,,,,,block_2/none_t_81_4.wav,timbre,t,none,81.0,1.883383873,17.9242909,,,Yes,Skullcandy Jib Earbuds,1,No,Male,36,Right,Yes,1,2020-09-07_10h21.43.606,kura-A2,2020.1.2,Win32,60,,,,,,,,,,,,,,"[""space"",""space"",""space"",""space"",""space"",""space"",""space"",""space"",""space"",""space"",""space"",""space"",""space"",""space"",""space"",""space"",""space"",""space"",""space"",""space"",""space"",""space"",""space"",""space"",""space"",""space"",""space""]","[0.32554499999969266,0.9685600000084378,1.5506450000102632,2.185200000007171,2.9177849999978207,3.4958350000088103,4.137965000001714,4.769949999987148,5.366710000002058,5.9182699999946635,6.517140000010841,7.203600000008009,7.823225000000093,8.530135000008158,9.152319999993779,9.78750000000582,10.317975000012666,10.834795000002487,11.450244999985443,12.11161500000162,12.644390000001295,13.288665000000037,13.907240000000456,14.53443500000867,15.118240000010701,15.694634999992559,16.31997000001138]",space,0.63888,0.0,11.0,11.0,12.0,1.0,,,
,,,,,,,,,,,block_2/medium_t_72_4.wav,timbre,t,medium,72.0,1.912133969,19.94959429,,,Yes,Skullcandy Jib Earbuds,1,No,Male,36,Right,Yes,1,2020-09-07_10h21.43.606,kura-A2,2020.1.2,Win32,60,,,,,,,,,,,,,,"[""space"",""space"",""space"",""space"",""space"",""space"",""space"",""space"",""space"",""space"",""space"",""space"",""space"",""space"",""space"",""space"",""space"",""space"",""space"",""space"",""space""]","[0.5676849999872502,1.1229800000146497,2.0307749999919906,2.9126199999882374,3.8656600000103936,4.720230000006268,5.719639999995707,6.636679999995977,7.5015000000130385,8.336784999992233,9.26918500001193,10.186140000005253,11.06695999999647,12.000815000006696,12.968395000003511,13.951070000010077,14.866860000009183,15.758635000005597,16.635305000003427,17.468255000014324,18.28508000000147]",space,0.54745,0.0,12.0,12.0,36.0,1.0,,,
,,,,,,,,,,,block_2/none_t_92_3.wav,timbre,t,none,92.0,1.328085357,13.39815338,,,Yes,Skullcandy Jib Earbuds,1,No,Male,36,Right,Yes,1,2020-09-07_10h21.43.606,kura-A2,2020.1.2,Win32,60,,,,,,,,,,,,,,"[""space"",""space"",""space"",""space"",""space"",""space"",""space"",""space"",""space"",""space"",""space"",""space"",""space"",""space"",""space"",""space"",""space"",""space""]","[0.286355000018375,0.9035800000128802,1.5185650000057649,2.2364700000034645,3.019960000005085,3.837005000008503,4.518685000017285,5.218015000020387,5.890710000006948,6.635105000023032,7.268725000001723,7.935794999997597,8.60087000002386,9.25680500001181,9.973404999997001,10.840840000018943,11.584875000000466,12.378810000023805]",space,0.63553,0.0,13.0,13.0,17.0,1.0,,,
,,,,,,,,,,,block_2/strong_t_105_4.wav,timbre,t,strong,105.0,1.910106179,12.02788396,,,Yes,Skullcandy Jib Earbuds,1,No,Male,36,Right,Yes,1,2020-09-07_10h21.43.606,kura-A2,2020.1.2,Win32,60,,,,,,,,,,,,,,"[""space"",""space"",""space"",""space"",""space"",""space"",""space"",""space"",""space"",""space"",""space"",""space"",""space"",""space"",""space"",""space"",""space"",""space""]","[2.2192900000081863,2.5544650000229012,2.9145700000226498,3.3047850000148173,3.7517750000115484,4.270590000000084,4.801285000023199,5.324010000011185,5.839545000024373,6.3258050000004005,6.831430000020191,7.347055000020191,7.804330000013579,8.31773000000976,8.774895000009565,9.314000000013039,9.854500000015832,10.38486499999999]",space,0.526195,0.0,14.0,14.0,18.0,1.0,,,
,,,,,,,,,,,block_2/medium_t_119_4.wav,timbre,t,medium,119.0,2.1713947,11.99221103,,,Yes,Skullcandy Jib Earbuds,1,No,Male,36,Right,Yes,1,2020-09-07_10h21.43.606,kura-A2,2020.1.2,Win32,60,,,,,,,,,,,,,,"[""space"",""space"",""space"",""space"",""space"",""space"",""space"",""space"",""space"",""space"",""space"",""space"",""space"",""space"",""space"",""space"",""space"",""space"",""space""]","[0.34453500001109205,0.97453000000678,1.8365300000004936,2.4119950000022072,2.936569999990752,3.417745000013383,3.9180899999919347,4.4499599999981,4.93695000000298,5.379665000014938,5.850315000017872,6.378855000017211,6.806624999997439,7.361865000013495,7.872475000011036,8.394950000016252,8.902354999998352,9.378434999991441,9.91335000001709]",space,0.609895,0.0,15.0,15.0,30.0,1.0,,,
,,,,,,,,,,,block_2/none_t_72_3.wav,timbre,t,none,72.0,1.763210745,21.95785927,,,Yes,Skullcandy Jib Earbuds,1,No,Male,36,Right,Yes,1,2020-09-07_10h21.43.606,kura-A2,2020.1.2,Win32,60,,,,,,,,,,,,,,"[""space"",""space"",""space"",""space"",""space"",""space"",""space"",""space"",""space"",""space"",""space"",""space"",""space"",""space"",""space"",""space"",""space"",""space"",""space"",""space"",""space"",""space"",""space"",""space"",""space"",""space"",""space"",""space"",""space"",""space"",""space"",""space"",""space"",""space"",""space"",""space"",""space"",""space"",""space"",""space"",""space""]","[0.3818150000006426,0.9338949999946635,1.468829999997979,1.9839050000009593,2.474870000005467,3.0003250000008848,3.4795049999956973,3.9627549999859184,4.404515000001993,4.817790000000969,5.345564999995986,5.878280000004452,6.366955000004964,6.88446999998996,7.4172599999874365,7.929934999992838,8.438229999999749,8.869399999995949,9.369854999997187,9.867234999983339,10.378464999987045,10.789430000004359,11.29473500000313,11.808329999999842,12.288219999987632,12.800300000002608,13.267959999997402,13.707804999983637,14.213744999986375,15.001809999987017,15.313284999981988,15.773034999991069,16.29174499999499,16.74494999999297,16.903604999999516,17.2857049999875,17.833669999992708,18.325244999985443,18.818494999984978,19.36575999998604,19.89555499999551]",space,0.58994,0.0,16.0,16.0,19.0,1.0,,,
,,,,,,,,,,,block_2/weak_t_119_4.wav,timbre,t,weak,119.0,2.497661912,13.1066415,,,Yes,Skullcandy Jib Earbuds,1,No,Male,36,Right,Yes,1,2020-09-07_10h21.43.606,kura-A2,2020.1.2,Win32,60,,,,,,,,,,,,,,"[""space"",""space"",""space"",""space"",""space"",""space"",""space"",""space"",""space"",""space"",""space"",""space"",""space"",""space"",""space"",""space"",""space"",""space"",""space"",""space"",""space"",""space""]","[0.352454999985639,0.8189100000017788,1.25072499999078,1.7365149999968708,2.2058149999938905,2.7265149999875575,3.277954999997746,3.7864950000075623,4.254030000010971,4.689550000010058,5.286294999998063,5.839600000006612,6.405869999987772,6.962490000005346,7.469784999993863,7.940644999995129,8.450699999986682,8.889369999989867,9.400204999983544,9.813319999986561,10.284404999983963,10.845719999982975]",space,0.675625,0.0,17.0,17.0,11.0,1.0,,,
,,,,,,,,,,,block_2/none_t_81_3.wav,timbre,t,none,81.0,2.3234515,21.58667145,,,Yes,Skullcandy Jib Earbuds,1,No,Male,36,Right,Yes,1,2020-09-07_10h21.43.606,kura-A2,2020.1.2,Win32,60,,,,,,,,,,,,,,"[""space"",""space"",""space"",""space"",""space"",""space"",""space"",""space"",""space"",""space"",""space"",""space"",""space"",""space"",""space"",""space"",""space"",""space"",""space"",""space"",""space"",""space"",""space"",""space"",""space"",""space"",""space"",""space"",""space"",""space"",""space"",""space"",""space""]","[0.3688149999943562,0.8264349999953993,1.4076199999835808,1.9755949999962468,2.5636999999987893,3.204150000005029,3.831319999997504,4.367964999983087,5.036129999993136,5.674884999985807,6.34596999999485,6.9182699999946635,7.534755000000587,8.181045000004815,8.85885999997845,9.512979999999516,10.217864999984158,10.813094999990426,11.451819999987492,12.062429999990854,12.753649999998743,13.31721499998821,13.915589999989606,14.500944999977946,15.100500000000466,15.69612499998766,16.274904999998398,16.952009999979055,17.590709999989485,18.238374999986263,18.85152999998536,19.546474999981,21.2109300000011]",space,0.5793,0.0,18.0,18.0,10.0,1.0,,,
,,,,,,,,,,,block_2/strong_t_72_4.wav,timbre,t,strong,72.0,1.957123463,17.07435702,,,Yes,Skullcandy Jib Earbuds,1,No,Male,36,Right,Yes,1,2020-09-07_10h21.43.606,kura-A2,2020.1.2,Win32,60,,,,,,,,,,,,,,"[""space"",""space"",""space"",""space"",""space"",""space"",""space"",""space"",""space"",""space"",""space"",""space"",""space"",""space"",""space"",""space"",""space"",""space"",""space"",""space""]","[0.8264849999977741,1.2371149999962654,2.0896599999978207,2.841084999992745,3.734965000010561,4.436430000001565,5.231505000003381,6.018199999991339,6.801449999999022,7.57578499999363,8.402145000000019,9.183629999984987,9.98556999998982,10.702164999995148,11.559914999990724,12.309715000010328,13.14785499998834,13.838515000010375,14.61243999999715,15.396615000005113]",space,0.660085,0.0,19.0,19.0,1.0,1.0,,,
,,,,,,,,,,,block_2/medium_t_105_4.wav,timbre,t,medium,105.0,1.80685877,13.54300389,,,Yes,Skullcandy Jib Earbuds,1,No,Male,36,Right,Yes,1,2020-09-07_10h21.43.606,kura-A2,2020.1.2,Win32,60,,,,,,,,,,,,,,"[""space"",""space"",""space"",""space"",""space"",""space"",""space"",""space"",""space"",""space"",""space"",""space"",""space"",""space"",""space"",""space"",""space"",""space"",""space"",""space""]","[0.43695500001194887,1.0244149999925867,1.6057850000215694,2.3065350000106264,2.9467100000183564,3.563770000007935,4.119880000012927,4.650850000005448,5.2362650000141,6.384244999993825,6.575750000018161,7.124340000009397,7.801405000005616,8.484555000002729,9.070544999995036,9.742530000017723,10.262140000006184,10.809720000019297,11.378259999997681,11.958310000016354]",space,0.46362,0.0,20.0,20.0,23.0,1.0,,,
,,,,,,,,,,,block_2/weak_t_72_4.wav,timbre,t,weak,72.0,1.41938316,17.89516547,,,Yes,Skullcandy Jib Earbuds,1,No,Male,36,Right,Yes,1,2020-09-07_10h21.43.606,kura-A2,2020.1.2,Win32,60,,,,,,,,,,,,,,"[""space"",""space"",""space"",""space"",""space"",""space"",""space"",""space"",""space"",""space"",""space"",""space"",""space"",""space"",""space"",""space"",""space"",""space"",""space"",""space"",""space""]","[0.3809999999939464,0.8747499999881256,1.6630549999827053,2.469424999988405,3.3643499999889173,4.196644999989076,5.075190000003204,5.976324999995995,6.788429999985965,7.6766049999860115,8.423909999983152,9.203609999996843,10.049689999985276,10.78698499998427,11.6729499999783,12.518794999981765,13.416784999979427,14.30819499999052,15.008739999990212,15.902390000002924,16.734360000002198]",space,0.57362,0.0,21.0,21.0,33.0,1.0,,,
,,,,,,,,,,,block_2/strong_t_119_4.wav,timbre,t,strong,119.0,1.529717424,11.39760858,,,Yes,Skullcandy Jib Earbuds,1,No,Male,36,Right,Yes,1,2020-09-07_10h21.43.606,kura-A2,2020.1.2,Win32,60,,,,,,,,,,,,,,"[""space"",""space"",""space"",""space"",""space"",""space"",""space"",""space"",""space"",""space"",""space"",""space"",""space"",""space"",""space"",""space"",""space"",""space"",""space"",""space"",""space""]","[0.3225700000184588,0.729235000006156,1.1057950000104029,1.5221149999997579,1.9838699999963865,2.5121750000107568,3.0132700000249315,3.5380149999982677,4.0161950000037905,4.517465000011725,5.011370000021998,5.502315000019735,6.001585000019986,6.519920000020647,7.021485000004759,7.517950000008568,8.032070000015665,8.603810000000522,9.026960000017425,9.619865000015125,10.014465000014752]",space,0.393135,0.0,22.0,22.0,39.0,1.0,,,
,,,,,,,,,,,block_2/strong_t_81_3.wav,timbre,t,strong,81.0,1.276002308,16.49137646,,,Yes,Skullcandy Jib Earbuds,1,No,Male,36,Right,Yes,1,2020-09-07_10h21.43.606,kura-A2,2020.1.2,Win32,60,,,,,,,,,,,,,,"[""space"",""space"",""space"",""space"",""space"",""space"",""space"",""space"",""space"",""space"",""space"",""space"",""space"",""space"",""space"",""space"",""space"",""space"",""space"",""space"",""space"",""space""]","[0.41801500000292435,0.7928700000047684,1.64301999998861,2.351699999999255,3.224370000010822,3.983585000009043,4.712939999997616,5.452495000005001,5.773294999991776,6.153430000005756,6.962115000002086,7.7741600000008475,8.507355000008829,9.283779999997932,10.088554999994813,10.930285000009462,11.675950000004377,12.397035000001779,13.26654499999131,14.045985000004293,14.693794999999227,15.401045000005979]",space,0.56685,0.0,23.0,23.0,24.0,1.0,,,
,,,,,,,,,,,block_2/none_t_119_4.wav,timbre,t,none,119.0,2.16972576,11.23222009,,,Yes,Skullcandy Jib Earbuds,1,No,Male,36,Right,Yes,1,2020-09-07_10h21.43.606,kura-A2,2020.1.2,Win32,60,,,,,,,,,,,,,,"[""space"",""space"",""space"",""space"",""space"",""space"",""space"",""space"",""space"",""space"",""space"",""space"",""space"",""space"",""space""]","[0.32535500000813045,0.9193950000044424,1.446605000004638,1.9932900000130758,2.6710500000044703,3.3191550000046846,3.9801300000108313,4.633755000017118,5.346235000004526,6.022930000006454,6.676035000011325,7.3384400000213645,8.050545000005513,8.745095000020228,9.375855000020238]",space,0.516045,0.0,24.0,24.0,27.0,1.0,,,
,,,,,,,,,,,block_2/weak_t_81_3.wav,timbre,t,weak,81.0,1.745235196,18.01484971,,,Yes,Skullcandy Jib Earbuds,1,No,Male,36,Right,Yes,1,2020-09-07_10h21.43.606,kura-A2,2020.1.2,Win32,60,,,,,,,,,,,,,,"[""space"",""space"",""space"",""space"",""space"",""space"",""space"",""space"",""space"",""space"",""space"",""space"",""space"",""space"",""space"",""space"",""space"",""space"",""space"",""space"",""space"",""space"",""space""]","[0.3054300000076182,0.8065550000173971,1.6799950000131503,2.5672600000107195,3.284925000014482,4.082460000005085,4.816525000002002,5.455930000025546,6.1793800000159536,6.9402200000185985,7.706140000023879,8.478730000002543,9.311320000007981,10.0437099999981,10.795745000010356,11.650175000017043,12.434540000016568,13.096370000013849,13.79495000001043,14.460510000004433,15.129155000002356,15.833150000020396,16.5390699999989]",space,0.586545,0.0,25.0,25.0,6.0,1.0,,,
,,,,,,,,,,,block_2/medium_t_72_3.wav,timbre,t,medium,72.0,1.064285065,17.84451182,,,Yes,Skullcandy Jib Earbuds,1,No,Male,36,Right,Yes,1,2020-09-07_10h21.43.606,kura-A2,2020.1.2,Win32,60,,,,,,,,,,,,,,"[""space"",""space"",""space"",""space"",""space"",""space"",""space"",""space"",""space"",""space"",""space"",""space"",""space"",""space"",""space"",""space"",""space"",""space"",""space"",""space"",""space""]","[0.31317999999737367,0.954009999986738,1.5783949999895412,2.3506950000009965,3.2282600000035018,4.035684999980731,4.901359999988927,5.69901499999105,6.499024999997346,7.518175000004703,8.383594999992056,9.184219999995548,10.049654999980703,10.849119999998948,11.7489549999882,12.615794999990612,13.433179999992717,14.27103000000352,15.266914999985602,15.983909999980824,16.78440999999293]",space,0.53211,0.0,26.0,26.0,31.0,1.0,,,
,,,,,,,,,,,block_2/medium_t_92_3.wav,timbre,t,medium,92.0,1.388240232,13.37372776,,,Yes,Skullcandy Jib Earbuds,1,No,Male,36,Right,Yes,1,2020-09-07_10h21.43.606,kura-A2,2020.1.2,Win32,60,,,,,,,,,,,,,,"[""space"",""space"",""space"",""space"",""space"",""space"",""space"",""space"",""space"",""space"",""space"",""space"",""space"",""space"",""space"",""space"",""space"",""space"",""space"",""space"",""space""]","[0.31346999999368563,0.8380199999955948,1.4180650000052992,1.9523300000000745,2.5029799999902025,3.1012249999912456,3.6937549999856856,4.301565000001574,5.079349999985425,5.602569999988191,6.174165000003995,6.7249249999877065,7.3105649999924935,7.945165000011912,8.658555000001797,9.2981499999878,9.832735000003595,10.445669999986421,11.066930000000866,11.636794999998529,12.157245000009425]",space,0.50614,0.0,27.0,27.0,35.0,1.0,,,
,,,,,,,,,,,block_2/strong_t_119_3.wav,timbre,t,strong,119.0,2.177542179,13.00520658,,,Yes,Skullcandy Jib Earbuds,1,No,Male,36,Right,Yes,1,2020-09-07_10h21.43.606,kura-A2,2020.1.2,Win32,60,,,,,,,,,,,,,,"[""space"",""space"",""space"",""space"",""space"",""space"",""space"",""space"",""space"",""space"",""space"",""space"",""space"",""space"",""space"",""space"",""space"",""space"",""space"",""space""]","[0.4849500000127591,1.0678750000079162,1.6353850000014063,2.076200000010431,2.8522050000028685,3.263310000009369,3.797690000006696,4.336139999999432,4.905614999996033,5.430460000003222,6.017885000008391,6.558395000000019,7.108785000018543,7.690100000007078,8.178669999993872,8.835040000005392,9.357565000012983,9.879840000008699,10.434665000007953,11.091669999994338]",space,0.546685,0.0,28.0,28.0,28.0,1.0,,,
,,,,,,,,,,,block_2/none_t_72_4.wav,timbre,t,none,72.0,1.053800106,24.75334659,,,Yes,Skullcandy Jib Earbuds,1,No,Male,36,Right,Yes,1,2020-09-07_10h21.43.606,kura-A2,2020.1.2,Win32,60,,,,,,,,,,,,,,"[""space"",""space"",""space"",""space"",""space"",""space"",""space"",""space"",""space"",""space"",""space"",""space"",""space"",""space"",""space"",""space"",""space"",""space"",""space"",""space"",""space"",""space"",""space"",""space"",""space"",""space"",""space"",""space"",""space"",""space"",""space"",""space"",""space"",""space"",""space"",""space"",""space"",""space"",""space"",""space"",""space"",""space"",""space""]","[0.3199949999980163,0.8860099999874365,1.5403449999867007,2.083935000002384,2.7210900000063702,3.602985000004992,3.8519499999820255,4.411514999985229,4.992834999982733,5.569644999981392,6.1845549999852665,6.786735000001499,7.340419999993173,8.363444999995409,8.425324999989243,8.905664999998407,9.487724999984493,10.00099999998929,10.458019999990938,11.006410000001779,11.637849999999162,12.226315000007162,12.820084999984829,13.335344999999506,13.916689999983646,14.457835000008345,15.051774999999907,15.588604999997187,16.121959999989485,16.617224999994505,17.036674999981187,17.517084999999497,18.100164999981644,18.566995000001043,19.101150000002235,19.65111999999499,20.267874999990454,20.717860000004293,21.18329499999527,21.800835000001825,22.367594999988796,22.98493000000599,23.58468999998877]",space,0.51919,0.0,29.0,29.0,15.0,1.0,,,
,,,,,,,,,,,block_2/strong_t_92_4.wav,timbre,t,strong,92.0,1.817525361,14.05856845,,,Yes,Skullcandy Jib Earbuds,1,No,Male,36,Right,Yes,1,2020-09-07_10h21.43.606,kura-A2,2020.1.2,Win32,60,,,,,,,,,,,,,,"[""space"",""space"",""space"",""space"",""space"",""space"",""space"",""space"",""space"",""space"",""space"",""space"",""space"",""space"",""space"",""space"",""space"",""space"",""space"",""space""]","[0.7723950000072364,1.588545000005979,2.2714599999890197,2.9344749999872874,3.5849449999805074,4.217449999996461,4.822974999988219,5.470585000002757,6.083725000004051,6.721604999998817,7.341744999983348,8.064175000006799,8.692504999984521,9.306669999990845,9.838235000002896,10.518049999984214,11.101794999995036,11.65176499998779,12.311564999981783,12.88531499999226]",space,0.49265,0.0,30.0,30.0,9.0,1.0,,,
,,,,,,,,,,,block_2/strong_t_72_3.wav,timbre,t,strong,72.0,1.757165856,18.23458082,,,Yes,Skullcandy Jib Earbuds,1,No,Male,36,Right,Yes,1,2020-09-07_10h21.43.606,kura-A2,2020.1.2,Win32,60,,,,,,,,,,,,,,"[""space"",""space"",""space"",""space"",""space"",""space"",""space"",""space"",""space"",""space"",""space"",""space"",""space"",""space"",""space"",""space"",""space"",""space"",""space"",""space"",""space""]","[0.3023899999971036,0.686905000009574,1.7347200000076555,2.4857750000082888,3.384460000001127,4.207655000005616,4.985035000019707,5.850965000019642,6.701795000000857,7.600600000005215,8.40253500000108,9.185800000006566,10.066530000010971,10.891130000003614,11.756170000007842,12.587910000002012,13.51696500001708,14.319864999997662,15.130055000016,15.958225000009406,16.954584999999497]",space,0.49633,0.0,31.0,31.0,5.0,1.0,,,
,,,,,,,,,,,block_2/medium_t_119_3.wav,timbre,t,medium,119.0,1.894752713,10.65330147,,,Yes,Skullcandy Jib Earbuds,1,No,Male,36,Right,Yes,1,2020-09-07_10h21.43.606,kura-A2,2020.1.2,Win32,60,,,,,,,,,,,,,,"[""space"",""space"",""space"",""space"",""space"",""space"",""space"",""space"",""space"",""space"",""space"",""space"",""space"",""space"",""space"",""space"",""space"",""space"",""space"",""space""]","[0.185090000013588,0.7013250000018161,1.3252250000077765,1.8382450000208337,2.2850449999968987,2.7182299999985844,3.1833800000022165,3.6548300000140443,4.066680000018096,4.502204999997048,4.924760000023525,5.34030999999959,5.8402400000195485,6.2505700000037905,6.712155000015628,7.228670000011334,7.673895000014454,8.011950000014622,8.505399999994552,8.978159999998752]",space,0.500175,0.0,32.0,32.0,37.0,1.0,,,
,,,,,,,,,,,block_2/strong_t_92_3.wav,timbre,t,strong,92.0,2.058598996,15.10526566,,,Yes,Skullcandy Jib Earbuds,1,No,Male,36,Right,Yes,1,2020-09-07_10h21.43.606,kura-A2,2020.1.2,Win32,60,,,,,,,,,,,,,,"[""space"",""space"",""space"",""space"",""space"",""space"",""space"",""space"",""space"",""space"",""space"",""space"",""space"",""space"",""space"",""space"",""space"",""space"",""space"",""space"",""space""]","[0.28590000001713634,0.7872750000096858,1.4063650000025518,2.0137650000106078,2.669870000012452,3.383960000006482,3.987220000009984,4.67827999999281,5.328869999997551,5.890480000001844,6.621065000013914,7.375130000000354,8.100225000001956,8.663235000014538,9.400549999991199,10.016340000001946,10.689385000005132,11.334219999989728,11.966240000008838,12.684119999990799,13.368114999990212]",space,0.53768,0.0,33.0,33.0,3.0,1.0,,,
,,,,,,,,,,,block_2/strong_t_81_4.wav,timbre,t,strong,81.0,1.059530738,15.41717246,,,Yes,Skullcandy Jib Earbuds,1,No,Male,36,Right,Yes,1,2020-09-07_10h21.43.606,kura-A2,2020.1.2,Win32,60,,,,,,,,,,,,,,"[""space"",""space"",""space"",""space"",""space"",""space"",""space"",""space"",""space"",""space"",""space"",""space"",""space"",""space"",""space"",""space"",""space"",""space"",""space"",""space"",""space""]","[0.4507500000181608,0.9517200000118464,1.5887150000198744,2.3665299999993294,3.150485000020126,3.8510000000242144,4.55133499999647,5.283170000009704,6.181234999996377,6.784990000014659,7.57054500002414,8.236135000013746,8.891029999998864,9.585240000014437,10.289230000024418,11.033770000009554,11.832170000008773,12.545530000003055,13.233690000022762,14.019915000011679,15.007444999995641]",space,0.493245,0.0,34.0,34.0,34.0,1.0,,,
,,,,,,,,,,,block_2/weak_t_105_3.wav,timbre,t,weak,105.0,1.911505731,13.14248079,,,Yes,Skullcandy Jib Earbuds,1,No,Male,36,Right,Yes,1,2020-09-07_10h21.43.606,kura-A2,2020.1.2,Win32,60,,,,,,,,,,,,,,"[""space"",""space"",""space"",""space"",""space"",""space"",""space"",""space"",""space"",""space"",""space"",""space"",""space"",""space"",""space"",""space"",""space"",""space"",""space"",""space"",""space"",""space""]","[0.16776499999150474,0.6700600000044687,1.0844199999996817,1.6367550000145457,2.124240000005102,2.7356950000107645,3.1023449999925106,3.552070000005642,4.087035000004562,4.585775000014564,5.069170000002941,5.618749999994634,6.250575000013669,6.788490000007187,7.305049999995845,7.960755000007339,8.451735000009649,9.11909500000229,9.652090000018234,10.217605000012554,10.802815000003648,11.418305000000146]",space,0.41804,0.0,35.0,35.0,4.0,1.0,,,
,,,,,,,,,,,block_2/weak_t_119_3.wav,timbre,t,weak,119.0,2.134308914,11.54587354,,,Yes,Skullcandy Jib Earbuds,1,No,Male,36,Right,Yes,1,2020-09-07_10h21.43.606,kura-A2,2020.1.2,Win32,60,,,,,,,,,,,,,,"[""space"",""space"",""space"",""space"",""space"",""space"",""space"",""space"",""space"",""space"",""space"",""space"",""space"",""space"",""space"",""space"",""space"",""space"",""space"",""space"",""space"",""space""]","[0.5347049999982119,1.1171900000190362,1.7180349999975988,2.234779999998864,2.7176700000122764,3.1675749999999425,3.6005799999988994,3.969195000012405,4.402300000016112,4.785915000014938,5.201545000018086,5.585400000011305,5.973035000002255,6.321350000013354,6.704305000021122,7.1347550000064075,7.566805000009481,7.967410000011569,8.383014999998977,8.785875000001397,9.200730000010935,9.58325500000501]",space,0.288355,0.0,36.0,36.0,13.0,1.0,,,
,,,,,,,,,,,block_2/none_t_105_4.wav,timbre,t,none,105.0,1.723889958,15.53967227,,,Yes,Skullcandy Jib Earbuds,1,No,Male,36,Right,Yes,1,2020-09-07_10h21.43.606,kura-A2,2020.1.2,Win32,60,,,,,,,,,,,,,,"[""space"",""space"",""space"",""space"",""space"",""space"",""space"",""space"",""space"",""space"",""space"",""space"",""space"",""space"",""space"",""space"",""space"",""space"",""space"",""space"",""space"",""space"",""space"",""space"",""space"",""space"",""space"",""space"",""space"",""space"",""space"",""space"",""space"",""space"",""space""]","[0.2740050000138581,0.6850700000068173,1.1173850000191123,1.5352500000153668,1.9139900000013768,2.3209350000252016,2.769480000017211,3.19617000001017,3.6189650000019356,4.021570000011252,4.470605000009982,4.901330000022426,5.288665000000037,5.722100000013597,6.1047900000121444,6.519495000015013,6.923405000008643,7.3134399999980815,7.719265000021551,8.109179999999924,8.473320000018703,8.820735000015702,9.254345000023022,9.568194999999832,9.920610000001489,10.333675000001676,10.729590000002645,11.072574999998324,11.458425000018906,11.879115000017919,12.273875000013504,12.691375000024436,13.079695000022184,13.451380000012705,13.824229999998806]",space,0.523585,0.0,37.0,37.0,20.0,1.0,,,
,,,,,,,,,,,block_2/weak_t_81_4.wav,timbre,t,weak,81.0,1.138387897,14.33417021,,,Yes,Skullcandy Jib Earbuds,1,No,Male,36,Right,Yes,1,2020-09-07_10h21.43.606,kura-A2,2020.1.2,Win32,60,,,,,,,,,,,,,,"[""space"",""space"",""space"",""space"",""space"",""space"",""space"",""space"",""space"",""space"",""space"",""space"",""space"",""space"",""space"",""space"",""space"",""space"",""space"",""space"",""space""]","[0.4169300000066869,0.8933599999872968,1.4600050000008196,2.0683650000137277,2.6336299999966286,3.3342049999914707,3.9750449999987723,4.630245000007562,5.302534999995714,5.887530000007246,6.534799999994448,7.2079500000108965,7.8081100000122206,8.58014000000503,9.19159000000218,9.822049999987485,10.501950000005309,11.11941000001434,11.854634999996051,12.389215000002423,13.029414999997243]",space,0.948485,0.0,38.0,38.0,0.0,1.0,,,
,,,,,,,,,,,block_2/weak_t_72_3.wav,timbre,t,weak,72.0,1.543417886,17.01208002,,,Yes,Skullcandy Jib Earbuds,1,No,Male,36,Right,Yes,1,2020-09-07_10h21.43.606,kura-A2,2020.1.2,Win32,60,,,,,,,,,,,,,,"[""space"",""space"",""space"",""space"",""space"",""space"",""space"",""space"",""space"",""space"",""space"",""space"",""space"",""space"",""space"",""space"",""space"",""space"",""space"",""space"",""space"",""space""]","[0.4874000000122578,1.1719950000110657,1.7183700000168756,2.2497000000144,2.8162350000052356,3.2996450000209734,3.8635250000220367,4.550880000023881,5.261080000024776,5.99982500000533,6.713025000003654,7.467100000008941,8.329190000017661,9.274980000016058,10.128155000012612,11.04894000000786,11.840140000014344,12.81740500000842,13.749945000017306,14.35262000001967,15.274200000013934,15.823855000023286]",space,18.575045,0.0,39.0,39.0,26.0,1.0,,,
,,,,,,,,,,,,,,,,,,,,Yes,Skullcandy Jib Earbuds,1,No,Male,36,Right,Yes,1,2020-09-07_10h21.43.606,kura-A2,2020.1.2,Win32,60,,,,,,,,,,,,,,,,,,,,,,,space,25.03908,
