key_resp.keys,key_resp.rt,practice_taps.keys,practice_taps.rt,keyresp.keys,keyresp.rt,practice_stims_loop.thisRepN,practice_stims_loop.thisTrialN,practice_stims_loop.thisN,practice_stims_loop.thisIndex,practice_stims_loop.ran,sndfile,type,tempo,cond,version,delay,dur,Participant Initials,"If you are a MTurk worker, what is your MTurk worker ID?'",Are you wearing headphones?,What are the headphone make and model?,"How many years of musical training, if any, do you have?",Do you have any hearing problems? Please describe,What is your sex (f/m/decline)?,What is your age?,What is your handedness (R/L/ambi)?,Are you currently in a secure and quiet room without a possible interruption?,session,date,expName,psychopyVersion,OS,frameRate,instructions_prompt.keys,instructions_prompt.rt,block1_taps.keys,block1_taps.rt,key_resp_2.keys,key_resp_2.rt,trials.thisRepN,trials.thisTrialN,trials.thisN,trials.thisIndex,trials.ran,key_resp2.keys,key_resp2.rt,block2_taps.keys,block2_taps.rt,key_resp_3.keys,key_resp_3.rt,trials_2.thisRepN,trials_2.thisTrialN,trials_2.thisN,trials_2.thisIndex,trials_2.ran,key_resp_4.keys,key_resp_4.rt,"If you are not an MTurk worker, please provide your email address"
space,10.16021,"[""space"",""space"",""space"",""space"",""space"",""space"",""space"",""space"",""space"",""space"",""space"",""space"",""space"",""space"",""space"",""space"",""space"",""space""]","[2.2423350000008213,2.7782250000000204,3.2991949999995995,3.8581800000010844,4.434070000001157,4.994099999999889,5.594105000000127,6.170154999999795,6.730139999999665,7.266235000000961,7.866359999999986,8.474700000000666,9.066290000000663,9.634210000000166,10.25019500000053,10.826175000000148,11.362215000001015,11.962209999999686]",space,2.78958,0.0,0.0,0.0,0.0,1.0,block_1/medium_n_105_3.wav,no,n,medium,105.0,1.683245346,13.36533151,,,Yes,Hyper X Cloud Alpha,0,No,m,38,R,Yes,1,2020-09-16_12h19.57.327,kura-A2,2020.1.2,Win32,60,,,,,,,,,,,,,,,,,,,,,,,,,
,,"[""space"",""space"",""space"",""space"",""space"",""space"",""space"",""space"",""space"",""space"",""space"",""space"",""space"",""space"",""space"",""space"",""space"",""space"",""space"",""space""]","[0.5667950000006385,1.1016049999998359,1.597490000000107,2.1094150000008085,2.6295200000004115,3.0934850000012375,3.581415000000561,4.077505000001111,4.573464999999487,5.093500000000859,5.573519999999917,6.125519999999597,6.63752999999997,7.101620000001276,7.565604999999778,8.061445000001186,8.616340000000491,9.117505000000165,9.605470000000423,10.125555000000531]",space,1.45258,0.0,1.0,1.0,3.0,1.0,block_2/strong_t_119_4.wav,timbre,t,strong,119.0,2.380207574,12.24809873,,,Yes,Hyper X Cloud Alpha,0,No,m,38,R,Yes,1,2020-09-16_12h19.57.327,kura-A2,2020.1.2,Win32,60,,,,,,,,,,,,,,,,,,,,,,,,,
,,"[""space"",""space"",""space"",""space"",""space"",""space"",""space"",""space"",""space"",""space"",""space"",""space"",""space"",""space"",""space"",""space"",""space"",""space"",""space""]","[2.1791450000000623,2.4195700000000215,2.9631349999999657,3.139194999999745,3.8431149999996705,4.771075000000565,5.643135000000257,6.363155000000916,7.243120000000999,8.107710000000225,8.851310000000012,9.683815000000322,10.49113000000034,11.40311500000098,12.179130000000441,12.979185000000143,13.875224999999773,14.747180000000299,15.61118499999975]",space,0.672685,0.0,2.0,2.0,2.0,1.0,block_1/weak_n_72_4.wav,no,n,weak,72.0,1.922330121,17.89675189,,,Yes,Hyper X Cloud Alpha,0,No,m,38,R,Yes,1,2020-09-16_12h19.57.327,kura-A2,2020.1.2,Win32,60,,,,,,,,,,,,,,,,,,,,,,,,,
,,"[""space"",""space"",""space"",""space"",""space"",""space"",""space"",""space"",""space"",""space"",""space"",""space"",""space"",""space""]","[3.488595000000714,3.920555000000604,4.376900000001115,4.833925000000818,5.328655000001163,5.84065499999997,6.3365800000010495,6.864630000000034,7.400660000001153,7.896625000001222,8.449220000000423,8.936564999999973,9.47253500000079,9.992584999999963]",space,0.614115,0.0,3.0,3.0,1.0,1.0,block_2/medium_t_119_4.wav,timbre,t,medium,119.0,2.073396767,11.89421309,,,Yes,Hyper X Cloud Alpha,0,No,m,38,R,Yes,1,2020-09-16_12h19.57.327,kura-A2,2020.1.2,Win32,60,,,,,,,,,,,,,,,,,,,,,,,,,
,,,,,,,,,,,block_1/none_n_72_4.wav,no,n,none,72.0,1.118979514,23.86124709,,,Yes,Hyper X Cloud Alpha,0,No,m,38,R,Yes,1,2020-09-16_12h19.57.327,kura-A2,2020.1.2,Win32,60,space,8.692535,"[""space"",""space"",""space"",""space"",""space"",""space"",""space"",""space"",""space"",""space"",""space"",""space"",""space"",""space"",""space"",""space"",""space"",""space"",""space"",""space"",""space"",""space"",""space"",""space"",""space"",""space"",""space"",""space"",""space"",""space"",""space"",""space"",""space"",""space"",""space"",""space"",""space"",""space"",""space"",""space"",""space"",""space"",""space"",""space"",""space"",""space"",""space"",""space"",""space"",""space"",""space"",""space"",""space"",""space"",""space"",""space"",""space"",""space"",""space"",""space"",""space"",""space"",""space"",""space"",""space"",""space"",""space"",""space"",""space"",""space"",""space"",""space"",""space"",""space"",""space"",""space"",""space"",""space"",""space"",""space"",""space"",""space"",""space"",""space"",""space"",""space"",""space"",""space"",""space"",""space"",""space"",""space"",""space"",""space"",""space"",""space"",""space"",""space"",""space"",""space"",""space"",""space""]","[1.9458599999998114,2.2017699999996694,2.6666050000003167,2.889804999998887,3.0671199999997043,3.250200000000433,3.481845000000277,3.6180549999990035,3.7939599999990605,3.9937900000004447,4.185869999999369,4.561755000000659,4.737869999998992,4.913839999999283,5.137839999999414,5.2738549999994575,5.497784999999567,5.673815000000133,5.841899999999441,6.050090000000637,6.218119999999516,6.417954999998955,6.5938700000006065,6.850129999998899,7.001759999999194,7.441789999998917,7.582715000000462,7.809839999999923,8.001764999999097,8.153920000000653,8.38594500000002,8.545935000000128,8.729760000000198,8.986319999999978,9.177765000000363,9.345874999999069,9.537829999999332,9.777790000000095,10.121914999999717,10.345839999999981,10.489895000000587,10.657944999999017,11.050144999999276,11.23431999999957,11.60198499999936,11.825854999999137,12.009850000000398,12.218010000000504,12.377904999999402,12.601860000000698,12.777939999999944,12.945900000000591,13.193874999998997,13.369959999999992,13.570089999999283,13.769855000000433,13.929809999999662,14.137950000000274,14.369844999999287,14.53782499999943,14.729839999999967,15.121839999999793,15.32184000000052,15.737805000000662,15.937855000000127,16.137829999999667,16.37780500000008,16.577869999999194,16.777884999999515,16.961765000000014,17.145800000000207,17.297819999999774,17.529889999999767,17.713929999999863,17.88993499999924,18.12183499999989,18.321770000000498,18.52982499999959,18.7494200000001,18.93782999999894,19.138339999999488,19.321910000000543,19.521795000000566,19.721825000000536,19.873775000000023,20.105915000000095,20.28995500000019,20.465940000000074,20.64991000000009,20.825829999999797,21.017939999999697,21.257814999999,21.409804999999324,21.650555000000168,21.849915000000664,22.017939999999697,22.233920000000552,22.433829999999972,22.586139999999432,22.785765000000538,23.034014999999243,23.153769999998957]",space,0.78472,0.0,0.0,0.0,21.0,1.0,,,,,,,,,,,,,,
,,,,,,,,,,,block_1/weak_n_81_3.wav,no,n,weak,81.0,1.412334255,16.47029344,,,Yes,Hyper X Cloud Alpha,0,No,m,38,R,Yes,1,2020-09-16_12h19.57.327,kura-A2,2020.1.2,Win32,60,,,"[""space"",""space"",""space"",""space"",""space"",""space"",""space"",""space"",""space"",""space"",""space"",""space"",""space"",""space"",""space"",""space"",""space""]","[3.4155900000005204,4.167059999999765,4.903029999999461,5.646995000000942,6.4005099999994854,7.183445000000546,7.927030000000769,8.655235000000204,9.407134999999442,10.11902999999981,10.871145000000979,11.567170000000232,12.487020000000484,13.27102499999998,13.919565000000148,14.655049999999363,15.383789999999863]",space,1.86074,0.0,1.0,1.0,30.0,1.0,,,,,,,,,,,,,,
,,,,,,,,,,,block_1/medium_n_105_4.wav,no,n,medium,105.0,1.402482856,15.80924023,,,Yes,Hyper X Cloud Alpha,0,No,m,38,R,Yes,1,2020-09-16_12h19.57.327,kura-A2,2020.1.2,Win32,60,,,"[""space"",""space"",""space"",""space"",""space"",""space"",""space"",""space"",""space"",""space"",""space"",""space"",""space"",""space""]","[2.9994900000001223,5.272704999999405,6.184229999998934,6.952049999999872,7.6332050000001175,8.336049999999915,9.088064999999915,9.75202999999965,10.433374999998676,11.120129999999335,11.83321999999859,12.584170000000057,13.31215499999962,14.016444999999266]",space,0.713275,0.0,2.0,2.0,12.0,1.0,,,,,,,,,,,,,,
,,,,,,,,,,,block_1/medium_n_119_3.wav,no,n,medium,119.0,1.238363393,11.09976929,,,Yes,Hyper X Cloud Alpha,0,No,m,38,R,Yes,1,2020-09-16_12h19.57.327,kura-A2,2020.1.2,Win32,60,,,"[""space"",""space"",""space"",""space"",""space"",""space"",""space"",""space"",""space"",""space"",""space"",""space"",""space"",""space"",""space"",""space"",""space"",""space""]","[0.40126499999863086,0.857059999998512,2.9690599999995015,3.345074999999298,3.697019999999611,4.161029999999357,4.593104999999923,5.025029999998907,5.777089999999646,6.265154999999169,6.697094999999592,7.161114999999029,7.633754999998985,8.08109999999948,8.585174999998372,9.081609999999301,9.601165000000037,10.089114999998912]",space,2.950605,0.0,3.0,3.0,22.0,1.0,,,,,,,,,,,,,,
,,,,,,,,,,,block_1/weak_n_119_4.wav,no,n,weak,119.0,2.305568033,13.07926418,,,Yes,Hyper X Cloud Alpha,0,No,m,38,R,Yes,1,2020-09-16_12h19.57.327,kura-A2,2020.1.2,Win32,60,,,"[""space"",""space"",""space"",""space"",""space"",""space"",""space"",""space"",""space"",""space"",""space"",""space"",""space"",""space"",""space""]","[2.5467300000000535,3.1873450000002492,4.4839649999994435,5.02670500000022,5.762794999998732,6.16274499999966,6.658774999999878,7.490775000000184,7.850879999999933,8.330839999998716,8.818934999999328,9.218689999999725,9.818755000000237,10.419019999999392,10.970734999998967]",space,0.46495,0.0,4.0,4.0,31.0,1.0,,,,,,,,,,,,,,
,,,,,,,,,,,block_1/strong_n_119_4.wav,no,n,strong,119.0,1.980480326,12.048825,,,Yes,Hyper X Cloud Alpha,0,No,m,38,R,Yes,1,2020-09-16_12h19.57.327,kura-A2,2020.1.2,Win32,60,,,"[""space"",""space"",""space"",""space"",""space"",""space"",""space"",""space"",""space"",""space"",""space"",""space"",""space"",""space"",""space"",""space"",""space"",""space"",""space""]","[1.2458099999984995,1.7096599999985926,2.2296649999989313,2.750614999999044,3.2539799999994727,3.725654999998369,4.245619999999661,4.765924999999697,5.2856099999989965,5.765804999999091,6.293644999999771,6.781694999999701,7.261744999999792,7.805709999998697,8.310389999998733,8.78977499999931,9.27775499999916,9.767324999998863,10.28576499999869]",space,0.451135,0.0,5.0,5.0,23.0,1.0,,,,,,,,,,,,,,
,,,,,,,,,,,block_1/weak_n_72_3.wav,no,n,weak,72.0,1.008682366,16.87657352,,,Yes,Hyper X Cloud Alpha,0,No,m,38,R,Yes,1,2020-09-16_12h19.57.327,kura-A2,2020.1.2,Win32,60,,,"[""space"",""space"",""space"",""space"",""space"",""space"",""space"",""space"",""space"",""space"",""space"",""space"",""space"",""space"",""space"",""space"",""space"",""space"",""space"",""space""]","[1.1039200000013807,2.00790500000042,2.7278450000012526,3.511860000000553,4.311835000000428,5.152375000001541,5.935800000001137,6.735819999999904,7.695845000000219,8.295890000001265,9.05583000000118,9.823850000000704,10.647865000000849,11.367940000000118,12.119970000001587,12.919785000000076,13.743805000000037,14.543765000000377,15.352609999999942,16.15984500000016]",space,0.66164,0.0,6.0,6.0,8.0,1.0,,,,,,,,,,,,,,
,,,,,,,,,,,block_1/strong_n_92_4.wav,no,n,strong,92.0,2.276261723,15.98016195,,,Yes,Hyper X Cloud Alpha,0,No,m,38,R,Yes,1,2020-09-16_12h19.57.327,kura-A2,2020.1.2,Win32,60,,,"[""space"",""space"",""space"",""space"",""space"",""space"",""space"",""space"",""space"",""space"",""space"",""space"",""space"",""space"",""space"",""space"",""space"",""space"",""space""]","[1.200619999999617,1.8640550000000644,2.728044999999838,3.5039399999986927,4.217329999999492,4.888315000000148,5.5927149999988615,6.304009999999835,7.017384999999194,7.6800249999996595,8.384065000000135,9.13608000000022,9.856084999999439,10.528134999998656,11.240109999998822,11.992065000000423,12.688070000000153,13.408019999998942,14.083300000000293]",space,0.442265,0.0,7.0,7.0,34.0,1.0,,,,,,,,,,,,,,
,,,,,,,,,,,block_1/strong_n_81_3.wav,no,n,strong,81.0,1.6043637,15.60930701,,,Yes,Hyper X Cloud Alpha,0,No,m,38,R,Yes,1,2020-09-16_12h19.57.327,kura-A2,2020.1.2,Win32,60,,,"[""space"",""space"",""space"",""space"",""space"",""space"",""space"",""space"",""space"",""space"",""space"",""space"",""space"",""space"",""space"",""space"",""space"",""space"",""space"",""space"",""space""]","[0.5098499999986075,0.9419049999996787,1.5259599999990314,2.270179999999641,2.9098849999991785,3.669930000000079,4.382064999999841,5.109914999999148,5.797839999999269,6.493829999999548,7.189954999999884,7.909794999999576,8.630320000000268,9.33419499999951,10.045819999999367,10.789779999999269,11.532889999998645,12.18982499999953,12.877834999999436,13.541784999999493,14.262009999998668]",space,0.398045,0.0,8.0,8.0,10.0,1.0,,,,,,,,,,,,,,
,,,,,,,,,,,block_1/weak_n_92_3.wav,no,n,weak,92.0,1.887522896,14.6307882,,,Yes,Hyper X Cloud Alpha,0,No,m,38,R,Yes,1,2020-09-16_12h19.57.327,kura-A2,2020.1.2,Win32,60,,,"[""space"",""space"",""space"",""space"",""space"",""space"",""space"",""space"",""space"",""space"",""space"",""space"",""space"",""space"",""space"",""space"",""space"",""space"",""space"",""space""]","[0.5300349999997707,1.3543700000009267,2.001959999999656,2.766845000000103,3.345869999999195,4.009830000000932,4.650970000000541,5.265910000000019,5.92181999999957,6.5538200000009965,7.185745000000736,7.851189999999349,8.570045000000391,9.209810000000289,9.85063500000075,10.401910000000498,11.081790000000183,11.78636999999975,12.393749999999272,13.08189499999935]",space,0.418435,0.0,9.0,9.0,5.0,1.0,,,,,,,,,,,,,,
,,,,,,,,,,,block_1/none_n_105_4.wav,no,n,none,105.0,1.493653366,16.97025201,,,Yes,Hyper X Cloud Alpha,0,No,m,38,R,Yes,1,2020-09-16_12h19.57.327,kura-A2,2020.1.2,Win32,60,,,"[""space"",""space"",""space"",""space"",""space"",""space"",""space"",""space"",""space"",""space"",""space"",""space"",""space"",""space"",""space"",""space"",""space"",""space"",""space"",""space"",""space"",""space"",""space"",""space"",""space"",""space"",""space"",""space"",""space"",""space"",""space"",""space"",""space"",""space""]","[0.41977500000029977,1.1885899999997491,1.6038649999991321,6.324425000000701,6.795819999999367,7.259790000000123,7.724019999999655,8.259899999999107,8.459844999999405,8.86801000000014,9.043845000000147,9.291830000000118,9.516990000000021,9.771829999999682,9.996054999999672,10.203804999999193,10.500669999999445,10.755864999999176,10.907945000000836,11.291960000000472,11.492050000000745,11.660120000000461,11.85201500000045,12.163860000000568,12.50828999999976,12.860109999999622,13.052275000000009,13.251870000000054,13.57190500000064,13.891954999999143,14.203944999999294,14.723905000000741,15.035970000000873,15.44381500000054]",space,0.621365,0.0,10.0,10.0,14.0,1.0,,,,,,,,,,,,,,
,,,,,,,,,,,block_1/none_n_92_3.wav,no,n,none,92.0,2.336707073,18.23675242,,,Yes,Hyper X Cloud Alpha,0,No,m,38,R,Yes,1,2020-09-16_12h19.57.327,kura-A2,2020.1.2,Win32,60,,,"[""space"",""space"",""space"",""space"",""space"",""space"",""space"",""space"",""space"",""space"",""space"",""space"",""space"",""space"",""space"",""space"",""space"",""space"",""space"",""space"",""space"",""space"",""space"",""space"",""space"",""space"",""space"",""space"",""space"",""space"",""space"",""space"",""space"",""space"",""space"",""space"",""space"",""space"",""space"",""space"",""space"",""space"",""space"",""space"",""space"",""space"",""space"",""space"",""space""]","[0.253950000000259,0.8219050000007542,5.989934999999605,6.718679999999949,6.950285000000804,7.317979999999807,7.694465000000491,7.894000000000233,8.10990500000122,8.373919999999998,8.542269999999917,8.710175000000163,8.878039999999544,9.118185000001176,9.35064500000044,9.518035000000964,9.710375000000568,9.877935000000377,10.053890000001047,10.229989999999816,10.397885000000315,10.59007500000007,10.766875000001164,10.93398999999954,11.109910000001037,11.310090000000855,11.693885000000591,11.901900000000694,12.069900000000416,12.26195000000007,12.437864999999874,12.614025000000765,12.782310000000507,12.97409499999958,13.150810000001002,13.398005000000921,13.597910000000354,13.773935000001131,13.966920000000755,14.350749999999607,14.510050000000717,14.71005999999943,14.918125000000089,15.093990000001213,15.293895000000703,15.485899999999674,15.67790000000059,15.877905000001192,16.061859999999797]",space,0.134735,0.0,11.0,11.0,25.0,1.0,,,,,,,,,,,,,,
,,,,,,,,,,,block_1/strong_n_81_4.wav,no,n,strong,81.0,1.727706814,17.69954355,,,Yes,Hyper X Cloud Alpha,0,No,m,38,R,Yes,1,2020-09-16_12h19.57.327,kura-A2,2020.1.2,Win32,60,,,"[""space"",""space"",""space"",""space"",""space"",""space"",""space"",""space"",""space"",""space"",""space"",""space"",""space"",""space"",""space"",""space"",""space"",""space"",""space"",""space"",""space""]","[0.5852549999999042,1.1611949999987132,1.7215899999991393,2.545205000000294,3.4014599999990764,4.21740499999936,4.993505000000312,5.8334999999987645,6.625179999999034,7.4251299999995695,8.225259999999139,9.050204999999437,9.905225000000371,10.665289999998947,11.465219999999988,12.289134999999078,13.097195000000227,13.953449999999009,14.777285000000063,15.577175000000295,16.385254999999177]",space,0.63034,0.0,12.0,12.0,1.0,1.0,,,,,,,,,,,,,,
,,,,,,,,,,,block_1/strong_n_105_3.wav,no,n,strong,105.0,1.156897655,12.38746455,,,Yes,Hyper X Cloud Alpha,0,No,m,38,R,Yes,1,2020-09-16_12h19.57.327,kura-A2,2020.1.2,Win32,60,,,"[""space"",""space"",""space"",""space"",""space"",""space"",""space"",""space"",""space"",""space"",""space"",""space"",""space"",""space"",""space"",""space"",""space"",""space"",""space"",""space""]","[0.5019399999982284,1.085384999998496,1.7734249999994063,2.325474999999642,2.8853949999993347,3.4536249999983397,4.053279999998267,4.62936499999887,5.2133299999986775,5.797314999999742,6.34146999999939,6.933504999999059,7.469359999999085,8.085309999998628,8.62159999999858,9.26930999999962,9.797309999999925,10.350404999999228,10.958049999999275,11.477624999999534]",space,0.82318,0.0,13.0,13.0,9.0,1.0,,,,,,,,,,,,,,
,,,,,,,,,,,block_1/none_n_72_3.wav,no,n,none,72.0,1.892162994,23.61892036,,,Yes,Hyper X Cloud Alpha,0,No,m,38,R,Yes,1,2020-09-16_12h19.57.327,kura-A2,2020.1.2,Win32,60,,,"[""space"",""space"",""space"",""space"",""space"",""space"",""space"",""space"",""space"",""space"",""space"",""space"",""space"",""space"",""space"",""space"",""space"",""space"",""space"",""space"",""space"",""space"",""space"",""space"",""space"",""space"",""space"",""space"",""space"",""space"",""space"",""space"",""space"",""space"",""space"",""space"",""space"",""space"",""space"",""space"",""space"",""space"",""space"",""space"",""space"",""space"",""space"",""space"",""space"",""space"",""space"",""space"",""space"",""space"",""space"",""space"",""space"",""space"",""space"",""space"",""space"",""space"",""space"",""space"",""space"",""space"",""space"",""space"",""space"",""space"",""space"",""space"",""space"",""space"",""space"",""space"",""space"",""space"",""space"",""space"",""space"",""space"",""space"",""space"",""space"",""space"",""space""]","[0.9608699999989767,1.8648499999998762,2.8728549999996176,3.072855000000402,3.450104999999894,3.640820000000531,4.008859999999913,4.16897000000057,4.328929999999673,4.680870000000141,4.85028500000044,5.017180000000735,5.4097449999989635,5.608944999999949,6.073444999999992,6.241070000000036,6.680914999999061,6.928944999999658,7.10488500000065,7.544905000000654,7.7609599999996135,7.928939999999727,8.097149999999601,8.496885000000475,8.656960000000254,9.001369999999895,9.201364999998987,9.650325000000521,9.840995000000532,10.24974999999904,10.401190000000497,10.560905000000332,10.769070000000283,10.936939999999595,11.112904999999955,11.297024999999849,11.472889999999154,11.641159999999218,11.808955000000424,11.976940000000468,12.144959999999685,12.272880000000441,12.472905000000537,12.656999999999243,12.809100000000342,12.976889999999969,13.144945000000007,13.312860000000057,13.464845000000423,13.656895000000077,13.824810000000127,14.00100500000002,14.168854999999894,14.312819999999192,14.505184999999983,14.728914999999688,15.09688499999902,15.449994999999035,15.88888000000037,16.08956500000022,16.27283999999969,16.568844999999783,16.88085499999943,17.080855000000156,17.250309999999445,17.41726000000017,17.728854999999385,17.912904999999284,18.080884999999398,18.36105999999927,18.566124999999317,18.73679500000071,19.01718500000061,19.184895000000267,19.38480999999956,19.704889999999068,19.881030000000464,20.05060500000036,20.272864999999,20.50505499999963,20.68896499999937,20.865089999999327,21.064839999999094,21.257120000000214,21.464850000000297,21.65692499999932,21.8408500000005]",space,0.688825,0.0,14.0,14.0,18.0,1.0,,,,,,,,,,,,,,
,,,,,,,,,,,block_1/none_n_105_3.wav,no,n,none,105.0,2.216733946,14.87818519,,,Yes,Hyper X Cloud Alpha,0,No,m,38,R,Yes,1,2020-09-16_12h19.57.327,kura-A2,2020.1.2,Win32,60,,,"[""space"",""space"",""space"",""space"",""space"",""space"",""space"",""space"",""space"",""space"",""space"",""space"",""space"",""space"",""space"",""space"",""space"",""space"",""space"",""space"",""space"",""space"",""space"",""space"",""space"",""space"",""space"",""space"",""space"",""space"",""space"",""space"",""space"",""space"",""space"",""space"",""space"",""space"",""space"",""space"",""space"",""space"",""space"",""space"",""space"",""space"",""space"",""space"",""space"",""space"",""space"",""space"",""space""]","[0.5950300000004063,1.1543899999996938,1.730424999999741,2.1624099999989426,2.3784450000002835,2.7304199999998673,2.9623699999992823,3.3383599999997386,4.210644999999204,4.466824999999517,4.634415000000445,4.834484999999404,5.058324999999911,5.250434999999925,5.4264599999987695,5.6185999999997875,5.8425049999987095,6.050554999999804,6.330309999999315,6.538319999999658,6.714404999998806,7.138559999999416,7.330355000000111,7.506320000000414,7.714364999999816,7.9386649999996735,8.114349999999831,8.298564999999087,8.498569999999745,8.706384999999557,8.898414999999659,9.090329999999085,9.290299999998751,9.466854999998759,9.642340000000274,9.858389999999417,10.042344999999841,10.24237499999981,10.426559999999881,10.60289999999992,10.778414999998859,10.946329999998852,11.13876999999951,11.32235000000037,11.522385000000213,11.706274999998584,11.890299999999115,12.074309999999969,12.258499999999913,12.442349999999408,12.618419999998878,12.794654999999636,12.954359999999724]",space,0.29545,0.0,15.0,15.0,6.0,1.0,,,,,,,,,,,,,,
,,,,,,,,,,,block_1/medium_n_81_3.wav,no,n,medium,81.0,1.199970007,16.72060493,,,Yes,Hyper X Cloud Alpha,0,No,m,38,R,Yes,1,2020-09-16_12h19.57.327,kura-A2,2020.1.2,Win32,60,,,"[""space"",""space"",""space"",""space"",""space"",""space"",""space"",""space"",""space"",""space"",""space"",""space"",""space"",""space"",""space"",""space"",""space"",""space"",""space"",""space"",""space"",""space"",""space"",""space"",""space"",""space"",""space"",""space"",""space"",""space"",""space"",""space"",""space""]","[0.6914900000010675,1.2754100000020117,2.139385000002221,2.9394700000011653,3.787384999999631,4.70797500000117,5.500280000000203,6.275455000002694,6.475529999999708,7.100890000001527,7.307565000002796,7.891385000002629,8.059339999999793,8.571345000000292,8.819385000002512,9.387340000001132,9.571390000000974,10.235365000000456,10.411425000002055,10.995860000002722,11.195425000001705,11.827465000002121,12.027410000002419,12.587445000001026,12.771410000001197,13.435385000000679,13.627380000001722,14.243515000001935,14.443709999999555,15.09224499999982,15.291495000001305,15.851740000001882,16.07543000000078]",space,0.686485,0.0,16.0,16.0,33.0,1.0,,,,,,,,,,,,,,
,,,,,,,,,,,block_1/weak_n_72_4.wav,no,n,weak,72.0,1.441009476,17.41543124,,,Yes,Hyper X Cloud Alpha,0,No,m,38,R,Yes,1,2020-09-16_12h19.57.327,kura-A2,2020.1.2,Win32,60,,,"[""space"",""space"",""space"",""space"",""space"",""space"",""space"",""space"",""space"",""space"",""space"",""space"",""space"",""space"",""space"",""space"",""space"",""space"",""space"",""space"",""space"",""space"",""space"",""space"",""space"",""space"",""space"",""space"",""space"",""space"",""space"",""space"",""space"",""space"",""space""]","[0.5775199999989127,1.3693349999994098,2.2096199999978126,3.081304999999702,3.305289999996603,3.8733249999968393,4.057329999999638,4.793339999996533,4.96929999999702,5.6014349999968545,5.76929999999993,6.329859999998007,6.5133049999967625,7.281294999997044,7.47329499999978,8.07336999999825,8.265454999997019,8.857334999996965,9.041619999999966,9.625404999998864,9.817744999996648,10.466989999997168,10.665489999999409,11.289269999997487,11.473384999997506,12.121354999999312,12.361339999999473,12.94535999999789,13.129309999996622,13.81780499999877,14.01740499999869,14.729319999998552,14.897849999997561,15.505249999998341,15.689309999997931]",space,0.40937,0.0,17.0,17.0,4.0,1.0,,,,,,,,,,,,,,
,,,,,,,,,,,block_1/strong_n_72_4.wav,no,n,strong,72.0,1.599228342,16.96784512,,,Yes,Hyper X Cloud Alpha,0,No,m,38,R,Yes,1,2020-09-16_12h19.57.327,kura-A2,2020.1.2,Win32,60,,,"[""space"",""space"",""space"",""space"",""space"",""space"",""space"",""space"",""space"",""space"",""space"",""space"",""space"",""space"",""space"",""space"",""space"",""space"",""space"",""space""]","[0.7844250000016473,1.4723599999997532,2.2965750000003027,3.088354999999865,3.8803750000006403,4.712455000000773,5.520380000001751,6.280289999998786,7.080379999999423,7.833695000001171,8.681110000001354,9.456395000001066,10.240320000000793,11.008320000000822,11.792355000001407,12.60051999999996,13.39242000000013,14.160335000000487,15.040375000000495,15.824305000001914]",space,0.665655,0.0,18.0,18.0,35.0,1.0,,,,,,,,,,,,,,
,,,,,,,,,,,block_1/strong_n_72_3.wav,no,n,strong,72.0,2.03136762,17.09667374,,,Yes,Hyper X Cloud Alpha,0,No,m,38,R,Yes,1,2020-09-16_12h19.57.327,kura-A2,2020.1.2,Win32,60,,,"[""space"",""space"",""space"",""space"",""space"",""space"",""space"",""space"",""space"",""space"",""space"",""space"",""space"",""space"",""space"",""space"",""space"",""space"",""space"",""space"",""space""]","[0.49429999999847496,0.989675000000716,1.5896499999980733,2.3417499999995925,3.086139999999432,3.845710000001418,4.661639999998442,5.437649999999849,6.150099999998929,6.885634999998729,7.726060000000871,8.405650000000605,9.17368500000157,10.029705000000831,10.82222499999989,11.669695000000502,12.37364499999967,13.125905000000785,13.941670000000158,14.677755000000616,15.485819999998057]",space,1.66612,0.0,19.0,19.0,32.0,1.0,,,,,,,,,,,,,,
,,,,,,,,,,,block_1/medium_n_81_4.wav,no,n,medium,81.0,1.742854158,16.25138024,,,Yes,Hyper X Cloud Alpha,0,No,m,38,R,Yes,1,2020-09-16_12h19.57.327,kura-A2,2020.1.2,Win32,60,,,"[""space"",""space"",""space"",""space"",""space"",""space"",""space"",""space"",""space"",""space"",""space"",""space"",""space"",""space"",""space"",""space"",""space"",""space"",""space"",""space"",""space"",""space"",""space"",""space"",""space"",""space"",""space"",""space"",""space"",""space"",""space"",""space"",""space"",""space"",""space"",""space"",""space"",""space"",""space"",""space""]","[0.8981949999979406,1.0654849999991711,1.4893249999986438,1.6336200000005192,2.242099999999482,2.393355000000156,3.0174299999998766,3.185314999998809,3.793405000000348,3.9614000000001397,4.521404999999504,4.681354999996984,5.313389999999345,5.481424999998126,6.017574999998033,6.201529999998456,6.585384999998496,6.809554999999818,7.3933949999991455,7.553374999999505,8.081415000000561,8.245009999998729,8.7853099999993,8.95335999999952,9.481369999997696,9.657319999998435,10.281364999998914,10.45024999999805,11.05795500000022,11.225354999998672,11.801799999997456,11.969320000000153,12.553394999999,12.72134499999811,13.265484999999899,13.441445000000385,13.993334999999206,14.19340000000011,14.36134999999922,14.785335000000487]",space,0.416695,0.0,20.0,20.0,38.0,1.0,,,,,,,,,,,,,,
,,,,,,,,,,,block_1/medium_n_92_4.wav,no,n,medium,92.0,1.438882438,14.02917722,,,Yes,Hyper X Cloud Alpha,0,No,m,38,R,Yes,1,2020-09-16_12h19.57.327,kura-A2,2020.1.2,Win32,60,,,"[""space"",""space"",""space"",""space"",""space"",""space"",""space"",""space"",""space"",""space"",""space"",""space"",""space"",""space"",""space"",""space"",""space"",""space"",""space"",""space"",""space"",""space"",""space"",""space"",""space"",""space"",""space"",""space"",""space""]","[1.0053200000002107,1.188914999998815,1.572889999999461,1.7571549999993294,2.1730050000005576,2.340954999999667,2.7343050000017683,3.3505949999998847,4.076990000001388,4.6769899999999325,5.341104999999516,5.949155000002065,6.613079999999172,7.236980000001495,7.885105000001204,8.453144999999495,9.093134999999165,9.252929999998742,9.668979999998555,9.83719000000201,10.293420000001788,10.461295000000973,10.892990000000282,11.07690999999977,11.580920000000333,11.76511500000197,12.188959999999497,12.3650000000016,12.837005000001227]",space,0.22027,0.0,21.0,21.0,11.0,1.0,,,,,,,,,,,,,,
,,,,,,,,,,,block_1/medium_n_72_3.wav,no,n,medium,72.0,2.102023577,18.17590113,,,Yes,Hyper X Cloud Alpha,0,No,m,38,R,Yes,1,2020-09-16_12h19.57.327,kura-A2,2020.1.2,Win32,60,,,"[""space"",""space"",""space"",""space"",""space"",""space"",""space"",""space"",""space"",""space"",""space"",""space"",""space"",""space"",""space"",""space"",""space"",""space"",""space"",""space"",""space"",""space"",""space"",""space"",""space"",""space"",""space"",""space"",""space"",""space"",""space"",""space"",""space"",""space"",""space"",""space"",""space"",""space"",""space""]","[0.6622600000009697,0.8462250000011409,1.5582500000018626,1.742245000001276,2.4062450000019453,2.5742800000007264,3.1835050000008778,3.350430000002234,3.966954999999871,4.134390000002895,4.862315000002127,5.030460000001767,5.7263050000001385,5.886270000002696,6.526304999999411,6.702470000000176,7.326435000002675,7.502215000000433,8.190965000001597,8.358305000001565,9.022310000000289,9.190330000001268,9.82225500000277,9.990335000002233,10.59825500000079,10.774209999999584,11.44626000000062,11.630460000000312,12.25425499999983,12.438225000001694,13.134420000002137,13.310284999999567,13.918340000000171,14.086624999999913,14.694279999999708,14.854204999999638,15.494265000001178,15.66224499999953,16.414264999999432]",space,0.384085,0.0,22.0,22.0,13.0,1.0,,,,,,,,,,,,,,
,,,,,,,,,,,block_1/none_n_119_3.wav,no,n,none,119.0,1.932281918,14.89500301,,,Yes,Hyper X Cloud Alpha,0,No,m,38,R,Yes,1,2020-09-16_12h19.57.327,kura-A2,2020.1.2,Win32,60,,,"[""space"",""space"",""space"",""space"",""space"",""space"",""space"",""space"",""space"",""space"",""space"",""space"",""space"",""space"",""space"",""space"",""space"",""space"",""space"",""space"",""space"",""space"",""space"",""space"",""space"",""space"",""space"",""space"",""space"",""space"",""space"",""space"",""space"",""space"",""space"",""space"",""space"",""space"",""space"",""space"",""space"",""space"",""space"",""space"",""space"",""space"",""space"",""space"",""space"",""space"",""space"",""space""]","[0.8424750000012864,1.0506300000015472,3.8345399999998335,4.298389999999927,4.514370000000781,4.722369999999501,4.93838500000129,5.114270000001852,5.283269999999902,5.466619999999239,5.658269999999902,5.826310000000376,6.002260000001115,6.170290000001842,6.3623049999987416,6.554254999999102,6.730344999999943,6.90630500000043,7.083565000000817,7.250455000001239,7.434430000001157,7.610310000000027,7.7864450000015495,7.978259999999864,8.146945000000414,8.330300000001444,8.514330000001792,8.867005000000063,9.042420000001584,9.210360000000946,9.394390000001295,9.554230000001553,9.75427000000127,9.938255000000936,10.138324999999895,10.306394999999611,10.474314999999478,10.658285000001342,10.84231500000169,11.002359999998589,11.170290000001842,11.370289999998931,11.554374999999709,11.722389999998995,11.906425000001036,12.074250000001484,12.25077500000043,12.418324999998731,12.60223500000211,12.778265000000829,12.970229999998992,13.138324999999895]",space,0.28703,0.0,23.0,23.0,24.0,1.0,,,,,,,,,,,,,,
,,,,,,,,,,,block_1/none_n_119_4.wav,no,n,none,119.0,2.009432028,15.37111003,,,Yes,Hyper X Cloud Alpha,0,No,m,38,R,Yes,1,2020-09-16_12h19.57.327,kura-A2,2020.1.2,Win32,60,,,"[""space"",""space"",""space"",""space"",""space"",""space"",""space"",""space"",""space"",""space"",""space"",""space"",""space"",""space"",""space"",""space"",""space"",""space"",""space"",""space"",""space"",""space"",""space"",""space"",""space"",""space"",""space"",""space"",""space"",""space""]","[0.6593149999971502,0.8273749999971187,2.987904999998136,3.171214999998483,3.347204999998212,3.8112549999968905,4.523284999999305,4.667744999998831,5.4353249999985565,5.6513449999984005,5.819229999997333,6.1632599999975355,6.7074199999988195,7.243369999996503,7.411744999997609,7.579234999997425,8.035304999997607,8.211299999999028,9.26733499999682,9.443454999996902,10.100084999998217,10.300239999996847,11.55531499999779,11.73126499999853,12.235529999998107,12.435499999999593,12.619254999997793,13.17984499999875,13.339304999997694,14.275659999999334]",space,0.39589,0.0,24.0,24.0,20.0,1.0,,,,,,,,,,,,,,
,,,,,,,,,,,block_1/medium_n_92_3.wav,no,n,medium,92.0,1.602440637,13.28810957,,,Yes,Hyper X Cloud Alpha,0,No,m,38,R,Yes,1,2020-09-16_12h19.57.327,kura-A2,2020.1.2,Win32,60,,,"[""space"",""space"",""space"",""space"",""space"",""space"",""space"",""space"",""space"",""space"",""space"",""space"",""space"",""space"",""space"",""space"",""space"",""space"",""space"",""space"",""space"",""space"",""space"",""space"",""space"",""space"",""space"",""space"",""space"",""space"",""space"",""space""]","[1.0843800000002375,1.2843400000019756,1.7006750000000466,2.252345000000787,2.860339999999269,3.444210000001476,4.068320000002132,4.628199999999197,4.828219999999419,5.2603500000004715,5.444289999999455,5.820690000000468,5.996289999999135,6.4283550000000105,6.884259999998903,7.260355000002164,7.428200000002107,7.724174999999377,7.908149999999296,8.284285000001546,8.460190000001603,8.86024499999985,9.036329999998998,9.468284999999014,9.6521900000007,10.117005000000063,10.28434500000003,10.70033500000136,10.892149999999674,11.317040000001725,11.516924999999901,11.933645000000979]",space,0.4011,0.0,25.0,25.0,2.0,1.0,,,,,,,,,,,,,,
,,,,,,,,,,,block_1/medium_n_119_4.wav,no,n,medium,119.0,1.261396351,9.568471181,,,Yes,Hyper X Cloud Alpha,0,No,m,38,R,Yes,1,2020-09-16_12h19.57.327,kura-A2,2020.1.2,Win32,60,,,"[""space"",""space"",""space"",""space"",""space"",""space"",""space"",""space"",""space"",""space"",""space""]","[4.000769999998738,4.438364999998157,4.9582399999999325,5.358264999998937,5.862300000000687,6.334439999998722,6.79028499999913,7.214299999999639,7.678299999999581,8.198349999998754,8.630279999997583]",space,0.48667,0.0,26.0,26.0,17.0,1.0,,,,,,,,,,,,,,
,,,,,,,,,,,block_1/strong_n_105_4.wav,no,n,strong,105.0,1.30585928,13.14087062,,,Yes,Hyper X Cloud Alpha,0,No,m,38,R,Yes,1,2020-09-16_12h19.57.327,kura-A2,2020.1.2,Win32,60,,,"[""space"",""space"",""space"",""space"",""space"",""space"",""space"",""space"",""space"",""space"",""space"",""space"",""space"",""space"",""space"",""space"",""space"",""space"",""space"",""space"",""space""]","[0.62271999999939,0.990734999999404,1.358765000000858,1.9669600000015635,2.5670050000007905,3.1593749999992724,3.783709999999701,4.326660000002448,4.967305000001943,5.542895000002318,6.158660000000964,6.7746100000003935,7.310649999999441,7.88662000000113,8.534780000001774,9.174634999999398,9.77467500000057,10.399919999999838,10.918695000000298,11.55078499999945,12.142745000001014]",space,0.697165,0.0,27.0,27.0,3.0,1.0,,,,,,,,,,,,,,
,,,,,,,,,,,block_1/strong_n_92_3.wav,no,n,strong,92.0,1.754608557,14.24499404,,,Yes,Hyper X Cloud Alpha,0,No,m,38,R,Yes,1,2020-09-16_12h19.57.327,kura-A2,2020.1.2,Win32,60,,,"[""space"",""space"",""space"",""space"",""space"",""space"",""space"",""space"",""space"",""space"",""space"",""space"",""space"",""space"",""space"",""space"",""space"",""space"",""space"",""space"",""space""]","[0.37492500000007567,0.8390050000016345,1.4228900000016438,2.070980000000418,2.6791900000025635,3.3269949999994424,3.9268750000010186,4.5509450000026845,5.2002900000006775,5.822960000001331,6.470919999999751,7.110870000000432,7.7269149999992806,8.375534999999218,8.999985000002198,9.615239999999176,10.2549050000016,10.886890000001586,11.534915000000183,12.158930000001419,12.759010000001581]",space,0.46888,0.0,28.0,28.0,39.0,1.0,,,,,,,,,,,,,,
,,,,,,,,,,,block_1/none_n_92_4.wav,no,n,none,92.0,1.296817987,15.18938035,,,Yes,Hyper X Cloud Alpha,0,No,m,38,R,Yes,1,2020-09-16_12h19.57.327,kura-A2,2020.1.2,Win32,60,,,"[""space"",""space"",""space"",""space"",""space"",""space"",""space"",""space"",""space"",""space"",""space"",""space"",""space"",""space"",""space"",""space"",""space"",""space"",""space"",""space"",""space"",""space"",""space"",""space"",""space"",""space"",""space"",""space"",""space"",""space"",""space"",""space"",""space"",""space"",""space"",""space"",""space"",""space"",""space"",""space"",""space""]","[0.3906749999987369,5.3911299999999756,6.846849999998085,7.30254000000059,7.526529999999184,7.926739999998972,8.094559999997728,8.246605000000272,8.414674999999988,8.598845000000438,8.758545000000595,8.91881999999896,9.086609999998473,9.28653999999733,9.463149999999587,9.646600000000035,9.82265499999994,9.998690000000352,10.174530000000232,10.358539999997447,10.534895000000688,10.710599999998522,10.894580000000133,11.054589999999735,11.246530000000348,11.422644999998738,11.614685000000463,11.774579999997513,11.950764999997773,12.126560000000609,12.318530000000464,12.50274999999965,12.686569999998028,12.870595000000321,13.06255500000043,13.238509999999224,13.430645000000368,13.606604999997217,13.798699999999371,13.974539999999251,14.158534999998665]",space,0.431215,0.0,29.0,29.0,19.0,1.0,,,,,,,,,,,,,,
,,,,,,,,,,,block_1/strong_n_119_3.wav,no,n,strong,119.0,1.213627968,10.9792062,,,Yes,Hyper X Cloud Alpha,0,No,m,38,R,Yes,1,2020-09-16_12h19.57.327,kura-A2,2020.1.2,Win32,60,,,"[""space"",""space"",""space"",""space"",""space"",""space"",""space"",""space"",""space"",""space"",""space"",""space"",""space"",""space"",""space"",""space"",""space"",""space"",""space"",""space""]","[0.7817949999989651,1.181110000001354,1.6693950000008044,2.1571550000007846,2.653164999999717,3.1499799999983225,3.6372599999995145,4.101344999999128,4.605214999999589,5.125149999999849,5.59717499999897,6.117369999999937,6.621244999998453,7.117405000000872,7.581180000001041,8.045180000000983,8.541095000000496,9.045709999998508,9.533729999999196,9.981214999999793]",space,0.41388,0.0,30.0,30.0,16.0,1.0,,,,,,,,,,,,,,
,,,,,,,,,,,block_1/none_n_81_3.wav,no,n,none,81.0,1.098648096,17.74277508,,,Yes,Hyper X Cloud Alpha,0,No,m,38,R,Yes,1,2020-09-16_12h19.57.327,kura-A2,2020.1.2,Win32,60,,,"[""space"",""space"",""space"",""space"",""space"",""space"",""space"",""space"",""space"",""space"",""space"",""space"",""space"",""space"",""space"",""space"",""space"",""space"",""space"",""space"",""space"",""space"",""space"",""space"",""space"",""space"",""space"",""space"",""space"",""space"",""space"",""space"",""space"",""space"",""space"",""space"",""space"",""space"",""space"",""space"",""space"",""space"",""space"",""space"",""space"",""space"",""space"",""space"",""space"",""space"",""space"",""space"",""space"",""space"",""space"",""space"",""space"",""space"",""space"",""space"",""space""]","[1.0022199999984878,1.522130000001198,3.769980000000942,4.058270000001357,4.29801999999836,4.467144999998709,4.650359999999637,4.834054999999353,5.010214999998425,5.674044999999751,6.378004999998666,6.54604499999914,6.72271499999988,7.050859999999375,7.2422200000000885,7.409950000001118,7.553909999998723,7.754515000000538,8.074059999999008,8.26672999999937,8.425885000000562,8.634665000001405,9.034100000000763,9.225875000000087,9.386015000000043,9.593919999999343,9.801915000000008,10.066875000000437,10.226040000001376,10.409915000000183,10.593974999999773,10.769945000000007,10.961899999998423,11.113945000000967,11.283315000000584,11.618074999998498,11.793900000000576,11.985935000000609,12.169975000000704,12.35390499999994,12.52194999999847,12.674019999998563,12.905950000000303,13.090000000000146,13.266970000000583,13.434134999999515,13.721910000000207,13.929954999999609,14.146049999999377,14.321939999997994,14.4741099999992,14.689914999999019,14.867050000000745,15.058130000001256,15.266849999999977,15.434119999998074,15.625974999999016,15.802134999998088,16.17002499999944,16.361899999999878,16.66692999999941]",space,0.317045,0.0,31.0,31.0,29.0,1.0,,,,,,,,,,,,,,
,,,,,,,,,,,block_1/weak_n_105_4.wav,no,n,weak,105.0,1.436012468,12.20911904,,,Yes,Hyper X Cloud Alpha,0,No,m,38,R,Yes,1,2020-09-16_12h19.57.327,kura-A2,2020.1.2,Win32,60,,,"[""space"",""space"",""space"",""space"",""space"",""space"",""space"",""space"",""space"",""space"",""space"",""space"",""space"",""space"",""space"",""space"",""space"",""space"",""space"",""space"",""space""]","[0.5418599999975413,1.045734999999695,1.4298699999999371,1.950329999999667,2.541749999996682,3.0457449999994424,3.5669199999974808,4.166864999999234,4.750384999999369,5.261669999999867,5.741789999996399,6.277799999999843,6.8377049999980954,7.325699999997596,7.821679999997286,8.350444999996398,8.894319999999425,9.357694999998785,9.925809999997,10.453894999998738,10.917809999999008]",space,0.484575,0.0,32.0,32.0,28.0,1.0,,,,,,,,,,,,,,
,,,,,,,,,,,block_1/none_n_81_4.wav,no,n,none,81.0,2.242955119,22.19488256,,,Yes,Hyper X Cloud Alpha,0,No,m,38,R,Yes,1,2020-09-16_12h19.57.327,kura-A2,2020.1.2,Win32,60,,,"[""space"",""space"",""space"",""space"",""space"",""space"",""space"",""space"",""space"",""space"",""space"",""space"",""space"",""space"",""space"",""space"",""space"",""space"",""space"",""space"",""space"",""space"",""space"",""space"",""space"",""space"",""space"",""space"",""space"",""space"",""space"",""space"",""space"",""space"",""space"",""space"",""space"",""space"",""space"",""space"",""space"",""space"",""space"",""space"",""space"",""space"",""space"",""space"",""space"",""space"",""space"",""space"",""space"",""space"",""space"",""space"",""space"",""space"",""space"",""space"",""space"",""space"",""space"",""space"",""space"",""space"",""space"",""space"",""space"",""space"",""space"",""space"",""space"",""space"",""space"",""space"",""space"",""space"",""space"",""space"",""space"",""space"",""space"",""space"",""space"",""space"",""space"",""space"",""space"",""space"",""space"",""space"",""space"",""space"",""space"",""space"",""space"",""space"",""space"",""space"",""space""]","[0.3118399999984831,0.712005000001227,1.207845000000816,1.4239400000005844,1.7360349999980826,1.9758350000010978,2.1758999999983644,2.431829999997717,2.663990000000922,2.863965000000462,3.119845000001078,3.375899999999092,3.751864999998361,3.9524899999996705,4.135794999998325,4.319844999998168,4.50394999999844,4.671934999998484,4.872029999998631,5.055854999998701,5.247885000000679,5.423894999999902,5.6169149999986985,5.7919049999982235,5.9840299999996205,6.17589500000031,6.351869999998598,6.536004999998113,6.727969999999914,6.903940000000148,7.095860000001267,7.271949999998469,7.463824999998906,7.639859999999317,7.831944999998086,8.023815000000468,8.207825000001321,8.375785000000178,8.575904999997874,8.768074999999953,8.94390999999814,9.127919999998994,9.327854999999545,9.487900000000081,9.680019999999786,9.855869999999413,10.047835000001214,10.22381999999925,10.375834999998915,10.584015000000363,10.759985000000597,10.93583999999828,11.128029999999853,11.255864999999176,11.463830000000598,11.639844999997877,11.808225000000675,12.000315000001137,12.17587999999887,12.368009999998321,12.543939999999566,12.719844999999623,12.903829999999289,13.079949999999371,13.279904999999417,13.479839999999967,13.65588999999818,13.839939999998023,14.017100000000937,14.207969999999477,14.391864999997779,14.568155000000843,14.759884999999485,14.9519650000002,15.127850000000763,15.303840000000491,15.503919999999198,15.695984999998473,15.887855000000854,16.055884999997943,16.25582999999824,16.423814999998285,16.631914999998116,16.823929999998654,17.007924999998068,17.191875000000437,17.359864999998535,17.575850000001083,17.75983500000075,17.968144999998913,18.159850000000006,18.343854999999166,18.544255000000703,18.74387999999817,18.952409999998054,19.135809999999765,19.328125,19.52792000000045,19.72790999999779,19.927840000000288,20.119869999998627]",space,0.240095,0.0,33.0,33.0,26.0,1.0,,,,,,,,,,,,,,
,,,,,,,,,,,block_1/weak_n_81_4.wav,no,n,weak,81.0,2.484743178,17.5438815,,,Yes,Hyper X Cloud Alpha,0,No,m,38,R,Yes,1,2020-09-16_12h19.57.327,kura-A2,2020.1.2,Win32,60,,,"[""space"",""space"",""space"",""space"",""space"",""space"",""space"",""space"",""space"",""space"",""space"",""space"",""space"",""space"",""space"",""space"",""space"",""space"",""space"",""space"",""space""]","[0.32316500000160886,0.8682900000021618,1.8347649999996065,2.6349300000001676,3.483414999998786,4.234820000001491,5.002489999998943,5.698690000001079,6.1946050000005926,6.794519999999466,7.578574999999546,8.330464999999094,9.09054499999911,9.922520000000077,10.675200000001496,11.474495000002207,12.210685000001831,12.986550000001444,13.770599999999831,14.514490000001388,15.346635000001697]",space,0.276495,0.0,34.0,34.0,36.0,1.0,,,,,,,,,,,,,,
,,,,,,,,,,,block_1/medium_n_105_3.wav,no,n,medium,105.0,2.417465983,14.09955215,,,Yes,Hyper X Cloud Alpha,0,No,m,38,R,Yes,1,2020-09-16_12h19.57.327,kura-A2,2020.1.2,Win32,60,,,"[""space"",""space"",""space"",""space"",""space"",""space"",""space"",""space"",""space"",""space"",""space"",""space"",""space"",""space"",""space"",""space"",""space"",""space"",""space"",""space"",""space""]","[0.39289999999891734,0.9214649999994435,1.4408650000004855,2.0505000000011933,2.608954999999696,3.1768449999981385,3.7928649999994377,4.39288999999917,4.904920000000857,5.536905000000843,6.072869999999966,6.665109999998094,7.280900000001566,7.833750000001601,8.409019999999146,8.968909999999596,9.504925000001094,10.120904999999766,10.793054999998276,11.4506650000003,11.968905000001541]",space,0.30094,0.0,35.0,35.0,0.0,1.0,,,,,,,,,,,,,,
,,,,,,,,,,,block_1/medium_n_72_4.wav,no,n,medium,72.0,1.204769933,15.71334136,,,Yes,Hyper X Cloud Alpha,0,No,m,38,R,Yes,1,2020-09-16_12h19.57.327,kura-A2,2020.1.2,Win32,60,,,"[""space"",""space"",""space"",""space"",""space"",""space"",""space"",""space"",""space"",""space"",""space"",""space"",""space"",""space"",""space"",""space"",""space"",""space"",""space"",""space"",""space""]","[0.3365449999982957,0.6884849999987637,1.4885749999994005,2.233879999999772,3.008750000000873,3.720470000000205,4.464595000001282,5.240574999999808,6.017424999998184,6.680495000000519,7.5204499999999825,8.280595000000176,8.968509999998787,9.640419999999722,10.360400000001391,11.040460000000166,11.91255000000092,12.608540000001085,13.400649999999587,14.064460000001418,14.640605000000505]",space,1.988815,0.0,36.0,36.0,7.0,1.0,,,,,,,,,,,,,,
,,,,,,,,,,,block_1/weak_n_92_4.wav,no,n,weak,92.0,2.208253857,14.29442166,,,Yes,Hyper X Cloud Alpha,0,No,m,38,R,Yes,1,2020-09-16_12h19.57.327,kura-A2,2020.1.2,Win32,60,,,"[""space"",""space"",""space"",""space"",""space"",""space"",""space"",""space"",""space"",""space"",""space"",""space"",""space"",""space"",""space"",""space"",""space"",""space"",""space""]","[0.9002849999997125,1.5079900000018824,2.028215000002092,2.628100000001723,3.2360350000017206,3.8762950000018463,4.436305000002903,4.964210000001913,5.628090000001976,6.236025000001973,6.812004999999772,7.435975000000326,8.228590000002441,8.675979999999981,9.21212000000014,9.844045000001643,10.419945000001462,11.051980000000185,11.972065000001749]",space,4.2883,0.0,37.0,37.0,15.0,1.0,,,,,,,,,,,,,,
,,,,,,,,,,,block_1/weak_n_119_3.wav,no,n,weak,119.0,2.459758036,10.81612992,,,Yes,Hyper X Cloud Alpha,0,No,m,38,R,Yes,1,2020-09-16_12h19.57.327,kura-A2,2020.1.2,Win32,60,,,"[""space"",""space"",""space"",""space"",""space"",""space"",""space"",""space"",""space"",""space"",""space"",""space"",""space"",""space"",""space"",""space""]","[2.0742749999990338,2.498294999997597,2.9147850000008475,3.3941950000007637,3.81020499999795,4.210194999999658,4.658214999999473,5.098204999998416,5.47441500000059,6.010884999999689,6.35427499999787,6.786274999998568,7.218450000000303,7.667639999999665,8.082334999999148,8.634405000000697]",space,0.585115,0.0,38.0,38.0,37.0,1.0,,,,,,,,,,,,,,
,,,,,,,,,,,block_1/weak_n_105_3.wav,no,n,weak,105.0,1.738990723,13.41450093,,,Yes,Hyper X Cloud Alpha,0,No,m,38,R,Yes,1,2020-09-16_12h19.57.327,kura-A2,2020.1.2,Win32,60,,,"[""space"",""space"",""space"",""space"",""space"",""space"",""space"",""space"",""space"",""space"",""space"",""space"",""space"",""space""]","[4.1480350000019826,4.564630000000761,5.036180000002787,5.612160000000586,6.068170000002283,6.6520350000027975,7.276040000000648,7.828320000000531,8.492035000002943,9.123985000001994,9.644045000000915,10.164150000000518,11.212025000000722,11.820009999999456]",space,3.524655,0.0,39.0,39.0,27.0,1.0,,,,,,,,,,,,,,
,,,,,,,,,,,block_2/none_t_105_4.wav,timbre,t,none,105.0,1.723889958,15.53967227,,,Yes,Hyper X Cloud Alpha,0,No,m,38,R,Yes,1,2020-09-16_12h19.57.327,kura-A2,2020.1.2,Win32,60,,,,,,,,,,,,space,36.70561,"[""space"",""space"",""space"",""space"",""space"",""space"",""space"",""space"",""space"",""space"",""space"",""space"",""space"",""space"",""space"",""space"",""space"",""space"",""space"",""space"",""space"",""space"",""space"",""space"",""space"",""space"",""space"",""space"",""space"",""space"",""space"",""space"",""space"",""space""]","[0.37180999999691267,0.9003899999988789,1.491714999996475,1.971929999999702,2.3638449999998556,2.7479349999994156,2.9638449999984005,3.3637999999991735,3.717239999998128,3.9169399999991583,4.411834999998973,4.603749999998399,4.939834999997402,5.323824999999488,5.8759549999995215,6.291964999996708,6.707739999998012,7.371769999997923,7.948409999997239,8.604304999997112,9.355709999999817,10.1638049999965,10.79609999999957,11.643849999996746,12.139809999996942,12.348009999997885,12.531929999997374,12.723934999998164,12.956194999998843,13.155879999998433,13.355804999999236,13.5237599999964,13.71693999999843,13.89989499999865]",space,4.6768,0.0,0.0,0.0,20.0,1.0,,,
,,,,,,,,,,,block_2/medium_t_119_3.wav,timbre,t,medium,119.0,1.894752713,10.65330147,,,Yes,Hyper X Cloud Alpha,0,No,m,38,R,Yes,1,2020-09-16_12h19.57.327,kura-A2,2020.1.2,Win32,60,,,,,,,,,,,,,,"[""space"",""space"",""space"",""space"",""space"",""space"",""space"",""space"",""space"",""space"",""space"",""space"",""space"",""space"",""space"",""space"",""space"",""space"",""space"",""space""]","[0.5202600000011444,0.8962549999996554,1.3283400000000256,1.8005150000026333,2.264290000002802,2.68836999999985,3.0642750000006345,3.6402350000025763,4.0083100000010745,4.424265000001469,4.880350000003091,5.360270000001037,5.81704499999978,6.376309999999648,6.7445000000006985,7.168380000002799,7.608295000001817,8.017120000000432,8.38557000000219,8.936245000000781]",space,0.397775,0.0,1.0,1.0,37.0,1.0,,,
,,,,,,,,,,,block_2/weak_t_72_3.wav,timbre,t,weak,72.0,1.543417886,17.01208002,,,Yes,Hyper X Cloud Alpha,0,No,m,38,R,Yes,1,2020-09-16_12h19.57.327,kura-A2,2020.1.2,Win32,60,,,,,,,,,,,,,,"[""space"",""space"",""space"",""space"",""space"",""space"",""space"",""space"",""space"",""space"",""space"",""space"",""space"",""space"",""space"",""space"",""space"",""space"",""space""]","[1.0801700000010896,1.728240000000369,3.064074999998411,3.896049999999377,4.711999999999534,5.456034999999247,6.240574999999808,7.024054999998043,7.824049999999261,8.640080000001035,9.448134999998729,10.248360000001412,11.064064999998664,11.848304999999527,12.920105000001058,13.55203999999867,14.304215000000113,15.072049999998853,15.840094999999565]",space,7.200715,0.0,2.0,2.0,26.0,1.0,,,
,,,,,,,,,,,block_2/weak_t_92_3.wav,timbre,t,weak,92.0,1.995389518,17.35720358,,,Yes,Hyper X Cloud Alpha,0,No,m,38,R,Yes,1,2020-09-16_12h19.57.327,kura-A2,2020.1.2,Win32,60,,,,,,,,,,,,,,"[""space"",""space"",""space"",""space"",""space"",""space"",""space"",""space"",""space"",""space"",""space"",""space"",""space"",""space"",""space"",""space"",""space"",""space"",""space"",""space""]","[0.639869999999064,1.6085099999982049,2.519909999999072,3.3199249999997846,4.1198699999986275,4.808014999998704,5.6880049999999756,6.432055000001128,7.295910000000731,8.000649999998132,8.735945000000356,9.455920000000333,10.239854999999807,11.048145000000659,11.839934999999969,12.639869999999064,13.487965000000258,14.224289999998291,14.928035000000818,15.703859999997803]",space,16.14619,0.0,3.0,3.0,38.0,1.0,,,
,,,,,,,,,,,block_2/strong_t_119_4.wav,timbre,t,strong,119.0,1.529717424,11.39760858,,,Yes,Hyper X Cloud Alpha,0,No,m,38,R,Yes,1,2020-09-16_12h19.57.327,kura-A2,2020.1.2,Win32,60,,,,,,,,,,,,,,"[""space"",""space"",""space"",""space"",""space"",""space"",""space"",""space"",""space"",""space"",""space"",""space"",""space"",""space"",""space"",""space"",""space"",""space"",""space"",""space"",""space""]","[0.3025649999981397,0.7509449999997742,1.1909899999991467,1.5989450000015495,2.094460000000254,2.60649999999805,3.0707750000001397,3.5584600000001956,4.10253499999817,4.590550000000803,5.086624999999913,5.54262000000017,6.01508499999909,6.567009999998845,7.08670500000153,7.598665000001347,8.078635000001668,8.607059999998455,9.11869999999908,9.606544999998732,10.070489999998244]",space,1.726525,0.0,4.0,4.0,39.0,1.0,,,
,,,,,,,,,,,block_2/strong_t_81_4.wav,timbre,t,strong,81.0,1.059530738,15.41717246,,,Yes,Hyper X Cloud Alpha,0,No,m,38,R,Yes,1,2020-09-16_12h19.57.327,kura-A2,2020.1.2,Win32,60,,,,,,,,,,,,,,"[""space"",""space"",""space"",""space"",""space"",""space"",""space"",""space"",""space"",""space"",""space"",""space"",""space"",""space"",""space"",""space"",""space"",""space"",""space"",""space""]","[0.5917349999981525,1.3679550000015297,2.3436250000013388,3.1117449999983364,3.823759999999311,4.56820499999958,5.23156999999992,6.031585000000632,6.663755000001402,7.417154999999184,8.13555500000075,8.791529999998602,9.567759999998088,10.607599999999366,11.12753000000157,11.823710000000574,12.551684999998542,13.223559999998542,13.903600000001461,14.696130000000267]",space,0.61652,0.0,5.0,5.0,34.0,1.0,,,
,,,,,,,,,,,block_2/none_t_72_3.wav,timbre,t,none,72.0,1.763210745,21.95785927,,,Yes,Hyper X Cloud Alpha,0,No,m,38,R,Yes,1,2020-09-16_12h19.57.327,kura-A2,2020.1.2,Win32,60,,,,,,,,,,,,,,"[""space"",""space"",""space"",""space"",""space"",""space"",""space"",""space"",""space"",""space"",""space"",""space"",""space"",""space"",""space"",""space"",""space"",""space"",""space"",""space"",""space"",""space"",""space"",""space"",""space"",""space"",""space"",""space"",""space"",""space"",""space"",""space"",""space"",""space"",""space"",""space"",""space"",""space"",""space"",""space"",""space"",""space"",""space"",""space"",""space"",""space"",""space"",""space"",""space"",""space"",""space"",""space"",""space"",""space"",""space"",""space"",""space"",""space"",""space"",""space"",""space"",""space"",""space"",""space"",""space""]","[0.9759000000012747,1.6878950000027544,2.0799299999998766,3.1921650000003865,3.768355000000156,4.791900000000169,5.3679100000008475,5.991920000000391,6.671959999999672,7.600780000000668,7.847910000000411,8.232009999999718,8.487905000001774,8.671880000001693,8.935935000001336,9.128020000000106,9.479914999999892,9.655925000002753,9.879880000000412,10.096020000000863,10.487909999999829,10.711875000000873,10.991915000002336,11.239939999999478,11.439969999999448,11.711825000002136,11.943940000001021,12.191930000000866,12.424070000000938,12.656155000000581,13.04795500000182,13.24798500000179,13.47184500000003,13.768130000000383,14.143875000001572,14.367949999999837,14.592094999999972,14.759894999999233,14.984075000000303,15.184085000000778,15.352460000001884,15.559994999999617,15.759995000000345,15.960000000002765,16.135894999999437,16.375865000001795,16.552475000000413,16.784105000002455,16.975884999999835,17.207900000001246,17.417140000001382,17.64051500000278,17.839905000000726,18.017295000001468,18.256170000000566,18.487880000000587,18.671865000000253,18.89588999999978,19.09654000000228,19.31189500000255,19.4965050000028,19.719875000002503,19.944015000000945,20.14398500000243,20.34390500000154]",space,0.761335,0.0,6.0,6.0,19.0,1.0,,,
,,,,,,,,,,,block_2/strong_t_72_3.wav,timbre,t,strong,72.0,1.757165856,18.23458082,,,Yes,Hyper X Cloud Alpha,0,No,m,38,R,Yes,1,2020-09-16_12h19.57.327,kura-A2,2020.1.2,Win32,60,,,,,,,,,,,,,,"[""space"",""space"",""space"",""space"",""space"",""space"",""space"",""space"",""space"",""space"",""space"",""space"",""space"",""space"",""space"",""space"",""space"",""space"",""space"",""space"",""space""]","[0.41269499999907566,0.9405249999981606,1.6766049999969255,2.4364799999966635,3.3654399999977613,4.228514999998879,5.068874999997206,5.901084999997693,6.604839999999967,7.549024999996618,8.333734999996523,9.252634999997099,10.13354999999865,10.980594999997265,11.828499999999622,12.72447999999713,13.445079999997688,14.34862499999872,15.156584999996994,15.988484999998036,16.716749999999593]",space,0.52337,0.0,7.0,7.0,5.0,1.0,,,
,,,,,,,,,,,block_2/weak_t_81_3.wav,timbre,t,weak,81.0,1.745235196,18.01484971,,,Yes,Hyper X Cloud Alpha,0,No,m,38,R,Yes,1,2020-09-16_12h19.57.327,kura-A2,2020.1.2,Win32,60,,,,,,,,,,,,,,"[""space"",""space"",""space"",""space"",""space"",""space"",""space"",""space"",""space"",""space"",""space"",""space"",""space"",""space"",""space"",""space"",""space"",""space"",""space"",""space""]","[0.7767499999972642,1.3447249999990163,2.0970500000003085,2.850204999998823,3.65029499999946,4.560844999999972,5.417949999999109,6.208725000000413,7.0727049999986775,8.016804999999295,8.752714999998716,9.488760000000184,10.224794999998267,10.96078999999736,11.752754999997705,12.496769999997923,13.256814999997005,14.209429999998974,15.041124999999738,15.904759999997623]",space,2.256615,0.0,8.0,8.0,6.0,1.0,,,
,,,,,,,,,,,block_2/weak_t_81_4.wav,timbre,t,weak,81.0,1.138387897,14.33417021,,,Yes,Hyper X Cloud Alpha,0,No,m,38,R,Yes,1,2020-09-16_12h19.57.327,kura-A2,2020.1.2,Win32,60,,,,,,,,,,,,,,"[""space"",""space"",""space"",""space"",""space"",""space"",""space"",""space"",""space"",""space"",""space"",""space"",""space"",""space"",""space"",""space"",""space"",""space"",""space"",""space""]","[0.6805700000004435,1.5765800000008312,2.2340149999981804,2.849224999998114,3.5366849999991246,4.200730000000476,4.864574999999604,5.520485000000917,6.136674999997922,6.824864999998681,7.4645349999991595,8.1846000000005,8.896704999999201,9.512524999998277,10.200880000000325,10.936509999999544,11.58469999999943,12.256519999999,12.945064999999886,13.520489999998972]",space,5.386255,0.0,9.0,9.0,0.0,1.0,,,
,,,,,,,,,,,block_2/strong_t_119_3.wav,timbre,t,strong,119.0,2.177542179,13.00520658,,,Yes,Hyper X Cloud Alpha,0,No,m,38,R,Yes,1,2020-09-16_12h19.57.327,kura-A2,2020.1.2,Win32,60,,,,,,,,,,,,,,"[""space"",""space"",""space"",""space"",""space"",""space"",""space"",""space"",""space"",""space"",""space"",""space"",""space"",""space"",""space"",""space"",""space"",""space"",""space""]","[0.8927900000016962,1.5011350000022503,2.0925400000014633,2.668535000000702,3.252855000002455,3.8526249999995343,4.340585000001738,4.924490000001242,5.4925399999992806,6.021295000002283,6.588530000000901,7.124615000000631,7.756635000001552,8.260525000001508,8.844455000002199,9.35656999999992,9.972515000001295,10.484710000000632,11.133720000001631]",space,9.18848,0.0,10.0,10.0,28.0,1.0,,,
,,,,,,,,,,,block_2/strong_t_105_3.wav,timbre,t,strong,105.0,1.973938856,13.50654657,,,Yes,Hyper X Cloud Alpha,0,No,m,38,R,Yes,1,2020-09-16_12h19.57.327,kura-A2,2020.1.2,Win32,60,,,,,,,,,,,,,,"[""space"",""space"",""space"",""space"",""space"",""space"",""space"",""space"",""space"",""space"",""space"",""space"",""space"",""space"",""space"",""space"",""space"",""space"",""space"",""space"",""space""]","[0.3342849999971804,0.7813449999994191,1.285664999999426,1.9506650000002992,2.469600000000355,3.061409999998432,3.613434999999299,4.141444999997475,4.917629999999917,5.381454999998823,5.957374999998137,6.525439999997616,7.125335000000632,7.693264999998064,8.173919999997452,8.80542499999865,9.469324999998207,10.069429999999556,10.693325000000186,11.221349999999802,11.813474999999016]",space,12.63449,0.0,11.0,11.0,21.0,1.0,,,
,,,,,,,,,,,block_2/medium_t_72_4.wav,timbre,t,medium,72.0,1.912133969,19.94959429,,,Yes,Hyper X Cloud Alpha,0,No,m,38,R,Yes,1,2020-09-16_12h19.57.327,kura-A2,2020.1.2,Win32,60,,,,,,,,,,,,,,"[""space"",""space"",""space"",""space"",""space"",""space"",""space"",""space"",""space"",""space"",""space"",""space"",""space"",""space"",""space"",""space"",""space"",""space"",""space"",""space""]","[0.9934199999988778,2.098709999998391,3.0821649999998044,4.057584999998653,4.9774450000004435,5.913594999998168,6.841580000000249,7.698864999998477,8.506059999999707,9.409374999999272,10.529484999999113,11.313490000000456,12.137299999998504,13.161479999998846,13.94546999999875,14.850029999997787,15.82535999999891,16.60144500000024,17.49887999999919,18.483209999998508]",space,8.54093,0.0,12.0,12.0,36.0,1.0,,,
,,,,,,,,,,,block_2/medium_t_81_3.wav,timbre,t,medium,81.0,1.280563259,13.87394194,,,Yes,Hyper X Cloud Alpha,0,No,m,38,R,Yes,1,2020-09-16_12h19.57.327,kura-A2,2020.1.2,Win32,60,,,,,,,,,,,,,,"[""space"",""space"",""space"",""space"",""space"",""space"",""space"",""space"",""space"",""space"",""space"",""space"",""space"",""space"",""space"",""space"",""space"",""space"",""space"",""space""]","[0.41983500000060303,1.1639300000024377,1.9237500000017462,2.587774999999965,3.2756700000027195,3.995715000000928,4.651840000002267,5.2037750000017695,5.9876750000003085,6.5638400000025285,7.1877000000022235,7.779710000002524,8.435740000000806,9.100280000002385,9.717110000001412,10.403874999999971,11.171669999999722,11.795670000003156,12.317160000002332,12.963685000002442]",space,5.40156,0.0,13.0,13.0,8.0,1.0,,,
,,,,,,,,,,,block_2/none_t_72_4.wav,timbre,t,none,72.0,1.053800106,24.75334659,,,Yes,Hyper X Cloud Alpha,0,No,m,38,R,Yes,1,2020-09-16_12h19.57.327,kura-A2,2020.1.2,Win32,60,,,,,,,,,,,,,,"[""space"",""space"",""space"",""space"",""space"",""space"",""space"",""space"",""space"",""space"",""space"",""space"",""space"",""space"",""space"",""space"",""space"",""space"",""space"",""space"",""space"",""space"",""space"",""space"",""space"",""space"",""space"",""space"",""space"",""space"",""space"",""space"",""space"",""space"",""space"",""space"",""space"",""space"",""space"",""space"",""space"",""space"",""space"",""space"",""space"",""space"",""space"",""space"",""space"",""space"",""space"",""space""]","[0.6700899999996182,1.2780750000019907,1.9981450000013865,2.4861450000025798,2.9900650000017777,3.198080000001937,3.590070000002015,3.766990000000078,4.094295000002603,4.278430000002118,4.662150000000111,4.862430000001041,5.054215000000113,5.262024999999994,5.478044999999838,5.678095000002941,6.206085000001622,6.894225000000006,7.374015000001236,8.038244999999733,8.654155000000173,9.254700000001321,9.918284999999742,10.654239999999845,11.318360000001121,11.878090000001976,12.438120000002527,13.126169999999547,13.767265000002226,14.398095000000467,14.974225000001752,15.584259999999631,16.046135000000504,16.55840000000171,17.342350000002625,17.85411000000022,18.37434000000212,18.80620000000272,19.334940000000643,19.958205000002636,20.63014000000112,20.846230000002834,21.19014000000243,21.367089999999735,21.742089999999735,21.918295000003127,22.27809999999954,22.46226999999999,22.894084999999905,23.08605499999976,23.51010000000315,23.686069999999745]",space,4.7845,0.0,14.0,14.0,15.0,1.0,,,
,,,,,,,,,,,block_2/medium_t_92_3.wav,timbre,t,medium,92.0,1.388240232,13.37372776,,,Yes,Hyper X Cloud Alpha,0,No,m,38,R,Yes,1,2020-09-16_12h19.57.327,kura-A2,2020.1.2,Win32,60,,,,,,,,,,,,,,"[""space"",""space"",""space"",""space"",""space"",""space"",""space"",""space"",""space"",""space"",""space"",""space"",""space"",""space"",""space"",""space"",""space"",""space"",""space"",""space"",""space""]","[0.29684500000075786,0.8011499999993248,1.4015099999996892,2.0248199999987264,2.6088199999976496,3.2169399999984307,3.850044999999227,4.504904999997962,5.064790000000357,5.7049000000006345,6.250355000000127,7.017079999997804,7.504864999998972,8.056899999999587,8.657380000000558,9.328880000000936,9.88099499999953,10.488939999999275,11.06483500000104,11.651239999999234,12.224865000000136]",space,11.22599,0.0,15.0,15.0,35.0,1.0,,,
,,,,,,,,,,,block_2/none_t_119_3.wav,timbre,t,none,119.0,1.207484261,12.32644118,,,Yes,Hyper X Cloud Alpha,0,No,m,38,R,Yes,1,2020-09-16_12h19.57.327,kura-A2,2020.1.2,Win32,60,,,,,,,,,,,,,,"[""space"",""space"",""space"",""space"",""space"",""space"",""space"",""space"",""space"",""space"",""space"",""space"",""space"",""space"",""space"",""space"",""space"",""space"",""space"",""space"",""space"",""space"",""space"",""space"",""space"",""space"",""space"",""space"",""space"",""space"",""space"",""space"",""space"",""space"",""space"",""space"",""space"",""space"",""space"",""space"",""space"",""space""]","[0.2807700000012119,0.8008000000008906,1.4726100000007136,1.9850100000003295,2.5607100000015635,3.8406450000002224,4.3446250000015425,4.544585000003281,4.872620000001916,5.040635000001203,5.3607000000010885,5.512750000001688,5.817970000000059,6.0008450000023,6.328690000002098,6.512720000002446,6.834000000002561,7.000855000002048,7.328965000000608,7.488600000000588,7.785065000000031,8.001015000001644,8.168870000001334,8.336680000000342,8.496680000000197,8.680640000002313,8.857285000001866,9.03403000000253,9.192805000002409,9.368875000000116,9.536725000001752,9.680720000000292,9.896855000002688,10.048735000000306,10.218760000003385,10.385010000001785,10.55261000000246,10.728665000002366,10.896715000002587,11.064715000000433,11.21851500000048,11.400970000002417]",space,23.14926,0.0,16.0,16.0,32.0,1.0,,,
,,,,,,,,,,,block_2/medium_t_81_4.wav,timbre,t,medium,81.0,2.313262111,15.10881767,,,Yes,Hyper X Cloud Alpha,0,No,m,38,R,Yes,1,2020-09-16_12h19.57.327,kura-A2,2020.1.2,Win32,60,,,,,,,,,,,,,,"[""space"",""space"",""space"",""space"",""space"",""space"",""space"",""space"",""space"",""space"",""space"",""space"",""space"",""space"",""space"",""space"",""space"",""space"",""space"",""space"",""space""]","[0.41744000000107917,1.145025000001624,1.8089150000014342,2.552879999999277,3.241024999999354,3.4410600000010163,3.8339650000016263,4.456965000001219,5.024990000001708,5.680899999999383,6.3369650000022375,7.056980000001204,7.7534450000021025,8.464925000000221,9.137099999999919,9.856950000001234,10.545055000002321,11.097020000001066,11.705030000000988,12.336944999999105,13.056970000001456]",space,5.14099,0.0,17.0,17.0,2.0,1.0,,,
,,,,,,,,,,,block_2/strong_t_81_3.wav,timbre,t,strong,81.0,1.276002308,16.49137646,,,Yes,Hyper X Cloud Alpha,0,No,m,38,R,Yes,1,2020-09-16_12h19.57.327,kura-A2,2020.1.2,Win32,60,,,,,,,,,,,,,,"[""space"",""space"",""space"",""space"",""space"",""space"",""space"",""space"",""space"",""space"",""space"",""space"",""space"",""space"",""space"",""space"",""space"",""space"",""space"",""space"",""space""]","[0.32360999999946216,0.7796999999991385,1.619555000001128,2.411579999999958,3.2358000000022002,3.93157500000234,4.691575000000739,5.443579999999201,6.268015000001469,7.051755000000412,7.859550000001036,8.595625000001746,9.372364999999263,10.123859999999695,10.923634999999194,11.68382500000007,12.435535000000527,13.259715000000142,14.01956500000233,14.771550000001298,15.57959000000119]",space,5.37642,0.0,18.0,18.0,24.0,1.0,,,
,,,,,,,,,,,block_2/strong_t_92_4.wav,timbre,t,strong,92.0,1.817525361,14.05856845,,,Yes,Hyper X Cloud Alpha,0,No,m,38,R,Yes,1,2020-09-16_12h19.57.327,kura-A2,2020.1.2,Win32,60,,,,,,,,,,,,,,"[""space"",""space"",""space"",""space"",""space"",""space"",""space"",""space"",""space"",""space"",""space"",""space"",""space"",""space"",""space"",""space"",""space"",""space"",""space"",""space""]","[0.8719450000025972,1.312130000002071,1.7759850000002189,2.351904999999533,2.97586500000034,3.617034999999305,4.217085000000225,4.91198500000246,5.503919999999198,6.15994000000137,6.832014999999956,7.407890000002226,8.071925000000192,8.680830000001151,9.303940000001603,9.95996500000183,10.544250000002648,11.239910000000236,11.872315000000526,12.543965000000753]",space,3.621725,0.0,19.0,19.0,9.0,1.0,,,
,,,,,,,,,,,block_2/none_t_119_4.wav,timbre,t,none,119.0,2.16972576,11.23222009,,,Yes,Hyper X Cloud Alpha,0,No,m,38,R,Yes,1,2020-09-16_12h19.57.327,kura-A2,2020.1.2,Win32,60,,,,,,,,,,,,,,"[""space"",""space"",""space"",""space"",""space"",""space"",""space"",""space"",""space"",""space"",""space"",""space"",""space"",""space"",""space"",""space"",""space"",""space"",""space"",""space"",""space"",""space"",""space"",""space"",""space"",""space"",""space"",""space"",""space"",""space"",""space"",""space"",""space"",""space"",""space"",""space"",""space"",""space"",""space"",""space"",""space"",""space""]","[0.24693999999726657,0.7185399999980291,1.1902549999977055,1.654339999997319,2.134734999999637,2.3262899999972433,2.5104299999984505,2.7423199999975623,2.9582899999986694,3.1103100000000268,3.3102599999983795,3.5102399999996123,3.702434999999241,3.902444999999716,4.078514999997424,4.262334999999439,4.430389999997715,4.6303399999997055,4.798384999998234,5.0143649999990885,5.198309999999765,5.374369999997725,5.567629999997735,5.767420000000129,5.951149999997142,6.142379999997502,6.342404999999417,6.5184599999993225,6.742469999997411,6.918504999997822,7.118549999999232,7.3425049999968905,7.542324999998527,7.758394999997108,7.94230499999685,8.134715000000142,8.32640999999785,8.510354999998526,8.70263999999952,8.878554999999324,9.062289999998029,9.262234999998327]",space,6.30927,0.0,20.0,20.0,27.0,1.0,,,
,,,,,,,,,,,block_2/none_t_81_3.wav,timbre,t,none,81.0,2.3234515,21.58667145,,,Yes,Hyper X Cloud Alpha,0,No,m,38,R,Yes,1,2020-09-16_12h19.57.327,kura-A2,2020.1.2,Win32,60,,,,,,,,,,,,,,"[""space"",""space"",""space"",""space"",""space"",""space"",""space"",""space"",""space"",""space"",""space"",""space"",""space"",""space"",""space"",""space"",""space"",""space"",""space"",""space"",""space"",""space"",""space"",""space"",""space"",""space"",""space"",""space"",""space"",""space"",""space"",""space"",""space"",""space"",""space"",""space"",""space"",""space"",""space"",""space"",""space"",""space"",""space"",""space"",""space"",""space"",""space"",""space"",""space"",""space"",""space"",""space"",""space"",""space"",""space"",""space"",""space"",""space"",""space"",""space"",""space"",""space"",""space"",""space"",""space"",""space"",""space"",""space"",""space"",""space"",""space"",""space"",""space""]","[0.691595000000234,1.3876400000008289,2.9635699999998906,3.907650000001013,4.283905000000232,4.595629999999801,4.8275549999998475,5.1955849999976635,5.691694999997708,5.947714999998425,6.203730000001087,6.395614999997633,6.62755499999912,6.811610000000655,7.027689999998984,7.203545000000304,7.39567999999781,7.595580000001064,7.7961450000002515,8.075580000000627,8.291580000000977,8.491599999997561,8.717039999999542,8.90083500000037,9.107609999999113,9.283914999999979,9.507979999998497,9.700394999999844,9.92357500000071,10.123680000000604,10.307769999999437,10.531739999998535,10.72380499999781,10.923869999998715,11.134125000000495,11.36391999999978,11.60359999999855,11.811569999998028,12.035619999998744,12.235604999998031,12.467844999999215,12.875714999998308,13.091629999998986,13.307669999998325,13.523655000000872,13.747694999998203,13.955649999999878,14.171604999999545,14.371589999998832,14.61167999999816,14.811594999999215,15.03573999999935,15.243705000000773,15.518404999998893,15.747605000000476,15.995640000001004,16.195709999999963,16.467854999998963,16.70041499999934,16.891709999999875,17.107934999999998,17.318394999998418,17.523604999998497,17.723689999998896,17.92442999999912,18.131695000000036,18.318449999998847,18.49166999999943,18.731589999999414,18.917460000000574,19.118429999998625,19.339654999999766,19.539635000001]",space,1.95558,0.0,21.0,21.0,10.0,1.0,,,
,,,,,,,,,,,block_2/strong_t_72_4.wav,timbre,t,strong,72.0,1.957123463,17.07435702,,,Yes,Hyper X Cloud Alpha,0,No,m,38,R,Yes,1,2020-09-16_12h19.57.327,kura-A2,2020.1.2,Win32,60,,,,,,,,,,,,,,"[""space"",""space"",""space"",""space"",""space"",""space"",""space"",""space"",""space"",""space"",""space"",""space"",""space"",""space"",""space"",""space"",""space"",""space"",""space"",""space""]","[0.9350799999992887,1.3673500000004424,2.103050000001531,2.919945000001462,3.6792400000013004,4.511050000000978,5.26310999999987,5.991034999999101,6.855260000000271,7.695125000002008,8.431124999999156,9.271130000000994,9.991130000002158,10.839179999999033,11.607074999999895,12.375074999999924,13.20764500000223,13.935065000001487,14.73520500000086,15.543115000000398]",space,13.580155,0.0,22.0,22.0,1.0,1.0,,,
,,,,,,,,,,,block_2/strong_t_92_3.wav,timbre,t,strong,92.0,2.058598996,15.10526566,,,Yes,Hyper X Cloud Alpha,0,No,m,38,R,Yes,1,2020-09-16_12h19.57.327,kura-A2,2020.1.2,Win32,60,,,,,,,,,,,,,,"[""space"",""space"",""space"",""space"",""space"",""space"",""space"",""space"",""space"",""space"",""space"",""space"",""space"",""space"",""space"",""space"",""space"",""space"",""space"",""space""]","[0.6745799999989686,1.306655000000319,2.026739999997517,2.802819999997155,3.370569999999134,3.890625,4.618749999997817,5.2745450000002165,5.95457499999975,6.635029999997641,7.298634999999194,7.971204999998008,8.683584999998857,9.386579999998503,10.018554999998742,10.650654999997641,11.338579999999638,12.010559999998804,12.698599999999715,13.36252500000046]",space,6.80713,0.0,23.0,23.0,3.0,1.0,,,
,,,,,,,,,,,block_2/none_t_92_4.wav,timbre,t,none,92.0,1.414044957,16.25508804,,,Yes,Hyper X Cloud Alpha,0,No,m,38,R,Yes,1,2020-09-16_12h19.57.327,kura-A2,2020.1.2,Win32,60,,,,,,,,,,,,,,"[""space"",""space"",""space"",""space"",""space"",""space"",""space"",""space"",""space"",""space"",""space"",""space"",""space"",""space"",""space"",""space"",""space"",""space"",""space"",""space"",""space"",""space"",""space"",""space"",""space"",""space"",""space"",""space"",""space"",""space"",""space"",""space"",""space"",""space"",""space"",""space"",""space"",""space"",""space"",""space"",""space"",""space"",""space"",""space"",""space"",""space"",""space""]","[0.25300500000230386,0.684994999999617,1.2370350000019243,1.9338800000004994,2.4210149999998976,2.63696500000151,2.8451750000022002,3.3341849999997066,6.301070000001346,6.517244999999093,6.693040000001929,6.860994999999093,7.2129449999993085,7.677040000002307,8.589605000001029,9.189164999999775,9.508980000002339,9.836965000002238,10.076990000001388,10.253020000000106,10.421014999999898,10.573080000001937,10.741024999999354,10.900975000000471,11.076974999999948,11.229334999999992,11.413045000001148,11.567064999999275,11.733104999999341,11.893005000001722,12.061014999999315,12.22903000000224,12.404969999999594,12.581320000001142,12.75693500000125,12.949725000002218,13.149414999999863,13.341199999998935,13.517169999999169,13.708989999999176,13.88499000000229,14.077115000000049,14.293000000001484,14.501220000001922,14.701180000000022,14.901050000000396,15.085054999999556]",space,15.1076,0.0,24.0,24.0,22.0,1.0,,,
,,,,,,,,,,,block_2/weak_t_105_3.wav,timbre,t,weak,105.0,1.911505731,13.14248079,,,Yes,Hyper X Cloud Alpha,0,No,m,38,R,Yes,1,2020-09-16_12h19.57.327,kura-A2,2020.1.2,Win32,60,,,,,,,,,,,,,,"[""space"",""space"",""space"",""space"",""space"",""space"",""space"",""space"",""space"",""space"",""space"",""space"",""space"",""space"",""space"",""space"",""space"",""space"",""space""]","[0.6101200000011886,1.1060749999996915,1.7220549999983632,2.266380000000936,2.9300599999987753,3.610225000000355,4.226044999999431,4.770094999999856,5.258014999999432,5.762015000000247,6.322124999998778,6.9140299999999115,7.5381950000009965,8.138810000000376,8.722075000001496,9.266319999998814,9.826109999998152,10.370070000000851,11.002144999998563]",space,11.269515,0.0,25.0,25.0,4.0,1.0,,,
,,,,,,,,,,,block_2/none_t_81_4.wav,timbre,t,none,81.0,1.883383873,17.9242909,,,Yes,Hyper X Cloud Alpha,0,No,m,38,R,Yes,1,2020-09-16_12h19.57.327,kura-A2,2020.1.2,Win32,60,,,,,,,,,,,,,,"[""space"",""space"",""space"",""space"",""space"",""space"",""space"",""space"",""space"",""space"",""space"",""space"",""space"",""space"",""space"",""space"",""space"",""space"",""space"",""space"",""space"",""space"",""space"",""space""]","[0.2614800000010291,0.7502899999999499,1.6296350000011444,2.3574750000007043,2.9975799999992887,3.749820000000909,4.445480000002135,5.183430000000953,5.982885000001261,6.63752999999997,7.861730000000534,8.422105000001466,9.061519999999291,9.69351000000097,10.213540000000648,11.198205000000598,11.653519999999844,12.245595000000321,12.813515000001644,13.453525000000809,14.18270499999926,14.813410000002477,15.557585000002291,16.26159000000189]",space,4.977905,0.0,26.0,26.0,12.0,1.0,,,
,,,,,,,,,,,block_2/medium_t_72_3.wav,timbre,t,medium,72.0,1.064285065,17.84451182,,,Yes,Hyper X Cloud Alpha,0,No,m,38,R,Yes,1,2020-09-16_12h19.57.327,kura-A2,2020.1.2,Win32,60,,,,,,,,,,,,,,"[""space"",""space"",""space"",""space"",""space"",""space"",""space"",""space"",""space"",""space"",""space"",""space"",""space"",""space"",""space"",""space"",""space"",""space"",""space""]","[0.6004899999970803,1.584209999997256,2.4641649999975925,3.3602699999973993,4.272224999996979,5.168249999998807,6.35231500000009,6.856134999998176,7.912489999998797,8.617664999997942,9.504744999998366,10.296159999998054,11.21646999999939,11.976289999998698,12.808184999998048,13.73663999999917,14.592454999998154,15.433499999999185,16.368164999999863]",space,10.766835,0.0,27.0,27.0,31.0,1.0,,,
,,,,,,,,,,,block_2/weak_t_72_4.wav,timbre,t,weak,72.0,1.41938316,17.89516547,,,Yes,Hyper X Cloud Alpha,0,No,m,38,R,Yes,1,2020-09-16_12h19.57.327,kura-A2,2020.1.2,Win32,60,,,,,,,,,,,,,,"[""space"",""space"",""space"",""space"",""space"",""space"",""space"",""space"",""space"",""space"",""space"",""space"",""space"",""space"",""space"",""space"",""space"",""space"",""space""]","[1.7105900000024121,2.7985550000012154,3.5907100000003993,4.31851000000097,5.166785000001255,6.094390000002022,6.902539999999135,7.7185649999992165,8.559030000000348,9.510480000000825,10.326414999999542,11.183290000000852,11.967690000001312,12.846505000001343,13.70256000000154,14.510505000002013,15.302415000001929,16.222460000000865,17.054465000001073]",space,0.41824,0.0,28.0,28.0,33.0,1.0,,,
,,,,,,,,,,,block_2/weak_t_105_4.wav,timbre,t,weak,105.0,1.205192231,12.73516956,,,Yes,Hyper X Cloud Alpha,0,No,m,38,R,Yes,1,2020-09-16_12h19.57.327,kura-A2,2020.1.2,Win32,60,,,,,,,,,,,,,,"[""space"",""space"",""space"",""space"",""space"",""space"",""space"",""space"",""space"",""space"",""space"",""space"",""space"",""space"",""space"",""space"",""space"",""space"",""space"",""space""]","[0.945529999997234,1.650099999998929,2.0970299999971758,2.696944999999687,3.2501049999991665,3.752954999999929,4.320989999996527,4.833039999997709,5.385054999998829,5.928949999997712,6.5049699999981385,7.024985000000015,7.640919999998005,8.217429999996966,8.840979999997217,9.369094999998197,9.969239999998535,10.465159999999742,11.073639999998704,11.753139999997074]",space,8.24419,0.0,29.0,29.0,7.0,1.0,,,
,,,,,,,,,,,block_2/medium_t_119_4.wav,timbre,t,medium,119.0,2.1713947,11.99221103,,,Yes,Hyper X Cloud Alpha,0,No,m,38,R,Yes,1,2020-09-16_12h19.57.327,kura-A2,2020.1.2,Win32,60,,,,,,,,,,,,,,"[""space"",""space"",""space"",""space"",""space"",""space"",""space"",""space"",""space"",""space"",""space"",""space"",""space"",""space"",""space"",""space"",""space"",""space"",""space""]","[0.6117849999973259,1.4352599999983795,1.9074149999978545,2.411339999998745,2.8911950000001525,3.371194999999716,3.8911950000001525,4.371229999997013,4.8679749999973865,5.300859999999375,5.9003649999976915,6.4193299999969895,6.995394999998098,7.443250000000262,8.019334999997227,8.499794999999722,9.027145000000019,9.51879999999801,10.06749999999738]",space,5.212295,0.0,30.0,30.0,30.0,1.0,,,
,,,,,,,,,,,block_2/medium_t_92_4.wav,timbre,t,medium,92.0,1.599417172,14.59601581,,,Yes,Hyper X Cloud Alpha,0,No,m,38,R,Yes,1,2020-09-16_12h19.57.327,kura-A2,2020.1.2,Win32,60,,,,,,,,,,,,,,"[""space"",""space"",""space"",""space"",""space"",""space"",""space"",""space"",""space"",""space"",""space"",""space"",""space"",""space"",""space"",""space"",""space"",""space"",""space"",""space""]","[0.5549900000005437,1.251155000001745,2.0029950000025565,2.6189900000026682,3.354975000002014,4.03524500000276,4.651225000001432,5.300054999999702,6.018869999999879,6.683370000002469,7.338905000000523,8.018910000002506,8.700800000002346,9.315024999999878,10.067455000000336,10.642895000000863,11.300185000000056,11.962859999999637,12.546840000002703,13.378985000003013]",space,6.667795,0.0,31.0,31.0,25.0,1.0,,,
,,,,,,,,,,,block_2/weak_t_92_4.wav,timbre,t,weak,92.0,2.338363624,13.8208126,,,Yes,Hyper X Cloud Alpha,0,No,m,38,R,Yes,1,2020-09-16_12h19.57.327,kura-A2,2020.1.2,Win32,60,,,,,,,,,,,,,,"[""space"",""space"",""space"",""space"",""space"",""space"",""space"",""space"",""space"",""space"",""space"",""space"",""space"",""space"",""space"",""space"",""space"",""space"",""space""]","[0.8350200000022596,1.6350300000012794,2.3388900000027206,2.9709400000028836,3.594775000001391,4.114860000001499,4.84293500000058,5.418860000001587,5.938880000001518,6.484075000000303,7.027120000002469,7.634880000001431,8.243545000001177,8.771005000002333,9.346945000001142,9.92281500000172,10.578795000001264,11.100540000003093,11.738840000001801]",space,2.3945,0.0,32.0,32.0,29.0,1.0,,,
,,,,,,,,,,,block_2/weak_t_119_3.wav,timbre,t,weak,119.0,2.134308914,11.54587354,,,Yes,Hyper X Cloud Alpha,0,No,m,38,R,Yes,1,2020-09-16_12h19.57.327,kura-A2,2020.1.2,Win32,60,,,,,,,,,,,,,,"[""space"",""space"",""space"",""space"",""space"",""space"",""space"",""space"",""space"",""space"",""space"",""space"",""space"",""space"",""space"",""space"",""space"",""space"",""space"",""space""]","[0.9346450000011828,1.39685499999905,1.9409450000021025,2.3649750000004133,2.7504399999997986,3.1501549999993586,3.484984999999142,3.812819999999192,4.350565000000643,4.749084999999468,5.213615000000573,5.7728749999987485,6.164909999999509,6.709005000000616,7.180865000002086,7.6850999999987835,8.156865000000835,8.645094999999856,9.140924999999697,9.59686000000147]",space,1.134855,0.0,33.0,33.0,13.0,1.0,,,
,,,,,,,,,,,block_2/strong_t_105_4.wav,timbre,t,strong,105.0,1.910106179,12.02788396,,,Yes,Hyper X Cloud Alpha,0,No,m,38,R,Yes,1,2020-09-16_12h19.57.327,kura-A2,2020.1.2,Win32,60,,,,,,,,,,,,,,"[""space"",""space"",""space"",""space"",""space"",""space"",""space"",""space"",""space"",""space"",""space"",""space"",""space"",""space"",""space"",""space"",""space"",""space"",""space"",""space"",""space""]","[0.572905000000901,0.9970250000005763,1.3409900000006019,1.8369750000019849,2.340895000001183,2.9515250000004016,3.412980000000971,3.8290300000007846,4.317364999998972,4.8050399999992806,5.381124999999884,5.8290000000015425,6.2608949999994365,6.804950000001554,7.3250650000009045,7.900994999999966,8.421795000002021,8.796924999998737,9.301390000000538,9.844974999999977,10.333875000000262]",space,2.37945,0.0,34.0,34.0,18.0,1.0,,,
,,,,,,,,,,,block_2/weak_t_119_4.wav,timbre,t,weak,119.0,2.497661912,13.1066415,,,Yes,Hyper X Cloud Alpha,0,No,m,38,R,Yes,1,2020-09-16_12h19.57.327,kura-A2,2020.1.2,Win32,60,,,,,,,,,,,,,,"[""space"",""space"",""space"",""space"",""space"",""space"",""space"",""space"",""space"",""space"",""space"",""space"",""space"",""space"",""space"",""space"",""space"",""space"",""space"",""space"",""space"",""space""]","[0.40139499999713735,0.9053800000001502,1.4652599999972153,2.0682699999997567,2.5371799999993527,2.937529999999242,3.3530399999981455,3.745025000000169,4.23460999999952,4.689319999997679,5.273079999999027,5.921099999999569,6.537109999997483,6.993024999999761,7.473144999999931,7.9770599999974365,8.513144999997166,8.985024999998132,9.497144999997545,9.937074999998003,10.47316999999748,10.945045000000391]",space,5.125335,0.0,35.0,35.0,11.0,1.0,,,
,,,,,,,,,,,block_2/none_t_92_3.wav,timbre,t,none,92.0,1.328085357,13.39815338,,,Yes,Hyper X Cloud Alpha,0,No,m,38,R,Yes,1,2020-09-16_12h19.57.327,kura-A2,2020.1.2,Win32,60,,,,,,,,,,,,,,"[""space"",""space"",""space"",""space"",""space"",""space"",""space"",""space"",""space"",""space"",""space"",""space"",""space"",""space"",""space"",""space"",""space"",""space"",""space"",""space""]","[0.5549250000003667,1.1629050000010466,1.7645850000008068,2.395025000001624,3.084580000002461,3.8027600000023085,4.467165000001842,5.2514050000027055,5.683965000000171,6.202830000001995,6.93099500000244,7.442805000002409,8.218830000001617,8.715390000001207,9.410785000000033,10.067054999999527,10.554755000001023,11.02681500000108,11.626790000002075,12.226855000000796]",space,3.434555,0.0,36.0,36.0,17.0,1.0,,,
,,,,,,,,,,,block_2/medium_t_105_4.wav,timbre,t,medium,105.0,1.80685877,13.54300389,,,Yes,Hyper X Cloud Alpha,0,No,m,38,R,Yes,1,2020-09-16_12h19.57.327,kura-A2,2020.1.2,Win32,60,,,,,,,,,,,,,,"[""space"",""space"",""space"",""space"",""space"",""space"",""space"",""space"",""space"",""space"",""space"",""space"",""space"",""space"",""space"",""space"",""space"",""space"",""space""]","[0.6893000000018219,1.296730000001844,1.7606700000033015,2.3687449999997625,2.920700000002398,3.5214500000001863,4.120835000001534,4.72867000000042,5.4343600000029255,6.033910000001924,6.60886500000197,7.217130000000907,7.80083999999988,8.450285000002623,9.080840000002354,9.664740000000165,10.272805000000517,10.793540000002395,11.601635000002716]",space,5.67515,0.0,37.0,37.0,23.0,1.0,,,
,,,,,,,,,,,block_2/medium_t_105_3.wav,timbre,t,medium,105.0,1.319167427,12.09599282,,,Yes,Hyper X Cloud Alpha,0,No,m,38,R,Yes,1,2020-09-16_12h19.57.327,kura-A2,2020.1.2,Win32,60,,,,,,,,,,,,,,"[""space"",""space"",""space"",""space"",""space"",""space"",""space"",""space"",""space"",""space"",""space"",""space"",""space"",""space"",""space"",""space"",""space"",""space"",""space"",""space""]","[0.6591599999992468,1.1465649999991,1.674605000000156,2.2106299999977637,2.8266049999983807,3.4026100000010047,3.9385499999989406,4.434704999999667,5.018669999997655,5.5225549999995565,6.0187650000007125,6.594639999999345,7.202679999998509,7.699939999998605,8.274654999997438,8.794584999999643,9.394655000000057,9.890670000000682,10.55474999999933,11.043079999999463]",space,9.847595,0.0,38.0,38.0,16.0,1.0,,,
,,,,,,,,,,,block_2/none_t_105_3.wav,timbre,t,none,105.0,1.906849656,15.72757528,,,Yes,Hyper X Cloud Alpha,0,No,m,38,R,Yes,1,2020-09-16_12h19.57.327,kura-A2,2020.1.2,Win32,60,,,,,,,,,,,,,,"[""space"",""space"",""space"",""space"",""space"",""space"",""space"",""space"",""space"",""space"",""space"",""space"",""space"",""space"",""space"",""space"",""space"",""space"",""space"",""space"",""space"",""space"",""space""]","[7.673074999998789,8.52953499999785,9.056969999997818,9.536984999998822,10.056994999999006,10.561020000001008,10.752974999999424,10.98517499999798,11.201170000000275,11.38495999999941,11.60117999999784,11.825059999999212,12.041034999998374,12.256979999998293,12.456975000000966,12.656960000000254,12.80907500000103,13.025115000000369,13.234990000000835,13.434489999999641,13.625069999998232,13.801220000001194,13.984980000001087]",space,5.356265,0.0,39.0,39.0,14.0,1.0,,,
,,,,,,,,,,,,,,,,,,,,Yes,Hyper X Cloud Alpha,0,No,m,38,R,Yes,1,2020-09-16_12h19.57.327,kura-A2,2020.1.2,Win32,60,,,,,,,,,,,,,,,,,,,,,,,space,13.69277,
