key_resp.keys,key_resp.rt,practice_taps.keys,practice_taps.rt,keyresp.keys,keyresp.rt,practice_stims_loop.thisRepN,practice_stims_loop.thisTrialN,practice_stims_loop.thisN,practice_stims_loop.thisIndex,practice_stims_loop.ran,sndfile,type,tempo,cond,version,delay,dur,Participant Initials,"If you are a MTurk worker, what is your MTurk worker ID?","If you are not an MTurk worker, please provide your email address",Are you wearing headphones?,What are the headphone make and model?,"How many years of musical training, if any, do you have?",Do you have any hearing problems? Please describe,What is your sex (f/m/decline)?,What is your age?,What is your handedness (R/L/ambi)?,Are you currently in a secure and quiet room without a possible interruption?,session ,date,expName,psychopyVersion,OS,frameRate,instructions_prompt.keys,instructions_prompt.rt,block1_taps.keys,block1_taps.rt,key_resp_2.keys,key_resp_2.rt,trials.thisRepN,trials.thisTrialN,trials.thisN,trials.thisIndex,trials.ran,key_resp2.keys,key_resp2.rt,block2_taps.keys,block2_taps.rt,key_resp_3.keys,key_resp_3.rt,trials_2.thisRepN,trials_2.thisTrialN,trials_2.thisN,trials_2.thisIndex,trials_2.ran,key_resp_4.keys,key_resp_4.rt
space,8.442595,"[""space"",""space"",""space"",""space"",""space"",""space"",""space"",""space"",""space"",""space"",""space""]","[5.817524999962188,6.312854999967385,6.8725049999775365,7.3907299999846146,7.8742899999488145,8.438034999999218,8.91714499995578,9.494084999954794,10.019794999971054,10.450124999973923,10.944919999979902]",space,2.097485,0.0,0.0,0.0,2.0,1.0,block_2/weak_n_105_4.wav,no,n,weak,105.0,1.982674472,12.75578105,,,,yes,sol republic mastertracks  pro calvin harris edition,1,no,m,55,r,yes,1,2020-09-07_21h13.50.539,kura-B2,2020.1.2,MacIntel,60,,,,,,,,,,,,,,,,,,,,,,,,
,,"[""space"",""space"",""space"",""space"",""space"",""space"",""space"",""space"",""space"",""space"",""space"",""space"",""space"",""space"",""space"",""space"",""space""]","[1.8653899999917485,2.3129850000259466,2.848794999998063,3.3637950000120327,3.8698650000151247,4.3416200000210665,4.8423949999851175,5.281200000026729,5.855125000001863,6.321159999992233,6.871794999984559,7.389425000001211,7.857859999989159,8.43680000002496,8.974549999984447,9.478739999991376,10.056220000027679]",space,1.678335,0.0,1.0,1.0,3.0,1.0,block_1/medium_t_119_4.wav,timbre,t,medium,119.0,1.752316959,11.57313329,,,,yes,sol republic mastertracks  pro calvin harris edition,1,no,m,55,r,yes,1,2020-09-07_21h13.50.539,kura-B2,2020.1.2,MacIntel,60,,,,,,,,,,,,,,,,,,,,,,,,
,,"[""space"",""space"",""space"",""space"",""space"",""space"",""space"",""space"",""space"",""space"",""space"",""space"",""space"",""space"",""space"",""space"",""space"",""space""]","[1.1674249999923632,1.5634999999892898,2.00144000002183,2.3682450000196695,2.740975000022445,3.134409999998752,3.5460600000224076,3.9136650000000373,4.438650000025518,4.889529999985825,5.373605000029784,5.84041000000434,6.328815000015311,6.772464999987278,7.1967949999962,7.634179999993648,8.072304999979679,8.489890000026207]",space,1.26759,0.0,2.0,2.0,1.0,1.0,block_2/medium_n_119_4.wav,no,n,medium,119.0,1.224634286,9.531709116,,,,yes,sol republic mastertracks  pro calvin harris edition,1,no,m,55,r,yes,1,2020-09-07_21h13.50.539,kura-B2,2020.1.2,MacIntel,60,,,,,,,,,,,,,,,,,,,,,,,,
,,"[""space"",""space"",""space"",""space"",""space"",""space"",""space"",""space"",""space"",""space"",""space"",""space"",""space"",""space"",""space"",""space"",""space"",""space"",""space""]","[1.0830149999819696,1.754804999975022,2.468460000003688,3.3532600000035018,4.165549999976065,4.993904999981169,5.830235000001267,6.615894999995362,7.644369999994524,8.426334999967366,9.354289999988396,10.181114999984857,11.106244999973569,12.237734999973327,12.926999999966938,13.712924999999814,14.57964000001084,15.345544999989215,16.12757499999134]",space,1.355185,0.0,3.0,3.0,0.0,1.0,block_2/none_n_92_3.wav,no,n,none,92.0,2.306164339,18.20620969,,,,yes,sol republic mastertracks  pro calvin harris edition,1,no,m,55,r,yes,1,2020-09-07_21h13.50.539,kura-B2,2020.1.2,MacIntel,60,,,,,,,,,,,,,,,,,,,,,,,,
,,,,,,,,,,,block_1/none_t_81_4.wav,timbre,t,none,81.0,1.802900323,17.84380735,,,,yes,sol republic mastertracks  pro calvin harris edition,1,no,m,55,r,yes,1,2020-09-07_21h13.50.539,kura-B2,2020.1.2,MacIntel,60,space,6.26349,"[""space"",""space"",""space"",""space"",""space"",""space"",""space"",""space"",""space"",""space"",""space"",""space"",""space"",""space"",""space"",""space"",""space"",""space"",""space"",""space"",""space"",""space"",""space"",""space"",""space""]","[0.5271300000022165,1.0077999999630265,1.498154999979306,2.2100199999986216,2.778539999970235,3.4529749999637716,4.179085000010673,4.8664349999744445,5.554564999998547,6.301244999980554,6.906859999988228,7.625469999969937,8.35720999998739,9.07805999997072,9.795154999999795,10.432209999999031,10.994239999970887,11.512069999997038,12.313429999980144,12.873190000012983,13.580000000016298,14.131354999961331,14.818689999985509,15.474099999992177,16.16704500000924]",space,0.751505,0.0,0.0,0.0,12.0,1.0,,,,,,,,,,,,,
,,,,,,,,,,,block_1/medium_t_72_4.wav,timbre,t,medium,72.0,1.659874932,19.69733525,,,,yes,sol republic mastertracks  pro calvin harris edition,1,no,m,55,r,yes,1,2020-09-07_21h13.50.539,kura-B2,2020.1.2,MacIntel,60,,,"[""space"",""space"",""space"",""space"",""space"",""space"",""space"",""space"",""space"",""space"",""space"",""space"",""space"",""space"",""space"",""space"",""space"",""space"",""space""]","[1.00956999999471,2.036179999995511,3.16437999997288,4.1130600000033155,4.934289999946486,5.833084999991115,6.700699999986682,7.669834999949671,8.570799999986775,9.524249999958556,10.391934999963269,11.214164999953937,12.046569999947678,13.026849999965634,13.976734999974724,14.859230000001844,15.746384999947622,16.70317499997327,17.599049999960698]",space,34.18957,0.0,1.0,1.0,36.0,1.0,,,,,,,,,,,,,
,,,,,,,,,,,block_1/weak_t_81_3.wav,timbre,t,weak,81.0,1.53156375,17.80117826,,,,yes,sol republic mastertracks  pro calvin harris edition,1,no,m,55,r,yes,1,2020-09-07_21h13.50.539,kura-B2,2020.1.2,MacIntel,60,,,"[""space"",""space"",""space"",""space"",""space"",""space"",""space"",""space"",""space"",""space"",""space"",""space"",""space"",""space"",""space"",""space"",""space"",""space"",""space""]","[1.5882550000096671,2.223100000002887,2.796280000009574,3.628160000022035,4.591669999994338,5.4160050000064075,6.359020000032615,7.0614250000217,7.993880000023637,9.033534999995027,9.758200000040233,10.525230000028387,11.296870000020135,11.933655000000726,12.628700000001118,13.567645000002813,14.49631000001682,15.22811999998521,15.988855000003241]",space,0.61735,0.0,2.0,2.0,6.0,1.0,,,,,,,,,,,,,
,,,,,,,,,,,block_1/medium_t_105_3.wav,timbre,t,medium,105.0,1.131854181,11.90867958,,,,yes,sol republic mastertracks  pro calvin harris edition,1,no,m,55,r,yes,1,2020-09-07_21h13.50.539,kura-B2,2020.1.2,MacIntel,60,,,"[""space"",""space"",""space"",""space"",""space"",""space"",""space"",""space"",""space"",""space"",""space"",""space"",""space"",""space"",""space"",""space"",""space"",""space"",""space"",""space"",""space""]","[0.24725000001490116,0.717464999994263,1.1374500000383705,1.6321350000216626,2.1713500000187196,2.689089999999851,3.2711100000306033,3.870230000000447,4.375525000039488,4.9746950000408106,5.528465000039432,6.060649999999441,6.607385000039358,7.211470000038389,7.776175000006333,8.270665000018198,8.833819999999832,9.37111000000732,9.940770000044722,10.484655000036582,11.015320000005886]",space,0.842225,0.0,3.0,3.0,16.0,1.0,,,,,,,,,,,,,
,,,,,,,,,,,block_1/strong_t_81_4.wav,timbre,t,strong,81.0,1.870008989,16.22765071,,,,yes,sol republic mastertracks  pro calvin harris edition,1,no,m,55,r,yes,1,2020-09-07_21h13.50.539,kura-B2,2020.1.2,MacIntel,60,,,"[""space"",""space"",""space"",""space"",""space"",""space"",""space"",""space"",""space"",""space"",""space"",""space"",""space"",""space"",""space"",""space"",""space"",""space""]","[2.171860000002198,2.783144999993965,3.3210500000277534,4.0355900000431575,4.810095000022557,5.557800000009593,6.295755000028294,7.026669999992009,7.742339999997057,8.419395000033546,9.191020000027493,9.919585000025108,10.665665000036824,11.381575000006706,12.148700000019744,12.820530000026338,13.485955000040121,14.251810000045225]",space,1.20391,0.0,4.0,4.0,34.0,1.0,,,,,,,,,,,,,
,,,,,,,,,,,block_1/medium_t_92_3.wav,timbre,t,medium,92.0,2.360774731,14.34626226,,,,yes,sol republic mastertracks  pro calvin harris edition,1,no,m,55,r,yes,1,2020-09-07_21h13.50.539,kura-B2,2020.1.2,MacIntel,60,,,"[""space"",""space"",""space"",""space"",""space"",""space"",""space"",""space"",""space"",""space"",""space"",""space"",""space"",""space"",""space"",""space"",""space"",""space"",""space"",""space"",""space""]","[0.41847000003326684,0.939890000037849,1.4335950000095181,1.9190650000236928,2.5463050000253133,3.137380000029225,3.80644499999471,4.4038650000002235,5.010025000025053,5.636365000042133,6.199970000016037,6.7768250000081025,7.359159999992698,7.967845000035595,8.595275000028778,9.182480000017677,9.867810000025202,10.426399999996647,11.0721950000152,11.68924000003608,12.265325000043958]",space,0.67047,0.0,5.0,5.0,35.0,1.0,,,,,,,,,,,,,
,,,,,,,,,,,block_1/strong_t_81_3.wav,timbre,t,strong,81.0,2.437587677,17.65296183,,,,yes,sol republic mastertracks  pro calvin harris edition,1,no,m,55,r,yes,1,2020-09-07_21h13.50.539,kura-B2,2020.1.2,MacIntel,60,,,"[""space"",""space"",""space"",""space"",""space"",""space"",""space"",""space"",""space"",""space"",""space"",""space"",""space"",""space"",""space"",""space"",""space"",""space"",""space"",""space""]","[1.0986449999618344,1.6403799999970943,2.426470000005793,3.213705000001937,3.9929750000010245,4.828279999957886,5.541884999955073,6.2864149999804795,7.073355000000447,7.854349999979604,8.612885000009555,9.411149999999907,10.243554999993648,10.901580000005197,11.690475000010338,12.438284999981988,13.225409999955446,14.032729999977164,14.844414999999572,15.545764999988023]",space,1.049705,0.0,6.0,6.0,24.0,1.0,,,,,,,,,,,,,
,,,,,,,,,,,block_1/medium_t_119_4.wav,timbre,t,medium,119.0,1.399295551,11.22011188,,,,yes,sol republic mastertracks  pro calvin harris edition,1,no,m,55,r,yes,1,2020-09-07_21h13.50.539,kura-B2,2020.1.2,MacIntel,60,,,"[""space"",""space"",""space"",""space"",""space"",""space"",""space"",""space"",""space"",""space"",""space"",""space"",""space"",""space"",""space"",""space"",""space"",""space"",""space"",""space""]","[0.6273050000309013,1.0885100000305101,1.4995800000033341,1.9276449999888428,2.4083950000349432,2.931110000004992,3.366299999994226,3.8368500000215136,4.37031000002753,4.830294999992475,5.314509999996517,5.798034999985248,6.348485000024084,6.856695000024047,7.392779999994673,7.939220000000205,8.433384999982081,8.924044999992475,9.432124999992084,10.005040000018198]",space,0.989295,0.0,7.0,7.0,30.0,1.0,,,,,,,,,,,,,
,,,,,,,,,,,block_1/medium_t_81_4.wav,timbre,t,medium,81.0,1.136743646,13.9322992,,,,yes,sol republic mastertracks  pro calvin harris edition,1,no,m,55,r,yes,1,2020-09-07_21h13.50.539,kura-B2,2020.1.2,MacIntel,60,,,"[""space"",""space"",""space"",""space"",""space"",""space"",""space"",""space"",""space"",""space"",""space"",""space"",""space"",""space"",""space"",""space"",""space"",""space"",""space""]","[0.5992349999723956,1.0288200000068173,1.5083699999959208,2.148125000006985,3.5828050000127405,4.177780000027269,4.831759999971837,5.433154999976978,6.11615499999607,6.751690000004601,7.505969999998342,8.198425000009593,8.908360000001267,9.514115000027232,10.178625000000466,10.828404999978375,11.481369999994058,12.09751499997219,12.702634999994189]",space,0.835955,0.0,8.0,8.0,2.0,1.0,,,,,,,,,,,,,
,,,,,,,,,,,block_1/strong_t_72_3.wav,timbre,t,strong,72.0,1.503157527,17.98057249,,,,yes,sol republic mastertracks  pro calvin harris edition,1,no,m,55,r,yes,1,2020-09-07_21h13.50.539,kura-B2,2020.1.2,MacIntel,60,,,"[""space"",""space"",""space"",""space"",""space"",""space"",""space"",""space"",""space"",""space"",""space"",""space"",""space"",""space"",""space"",""space"",""space"",""space"",""space"",""space"",""space""]","[0.7023049999843352,1.1511300000129268,1.769380000012461,2.6573649999918416,3.523734999995213,4.421904999995604,5.238914999994449,6.022624999983236,6.834614999999758,7.655774999991991,8.515164999989793,9.342264999984764,10.184645000030287,11.013045000028796,11.845135000010487,12.75675499998033,13.60052000003634,14.393450000032317,15.187780000036582,16.059594999998808,16.889964999980293]",space,1.393085,0.0,9.0,9.0,5.0,1.0,,,,,,,,,,,,,
,,,,,,,,,,,block_1/medium_t_81_3.wav,timbre,t,medium,81.0,1.352794873,13.94617356,,,,yes,sol republic mastertracks  pro calvin harris edition,1,no,m,55,r,yes,1,2020-09-07_21h13.50.539,kura-B2,2020.1.2,MacIntel,60,,,"[""space"",""space"",""space"",""space"",""space"",""space"",""space"",""space"",""space"",""space"",""space"",""space"",""space"",""space"",""space"",""space"",""space"",""space""]","[1.2203599999775179,2.015289999952074,2.656444999971427,3.2914099999470636,3.9064699999871664,4.625964999955613,5.306429999996908,5.91320499998983,6.624474999960512,7.27536999998847,7.916929999948479,8.510855000000447,9.143384999944828,9.741214999987278,10.404439999954775,11.099379999970552,11.684589999960735,12.280489999975543]",space,1.052075,0.0,10.0,10.0,8.0,1.0,,,,,,,,,,,,,
,,,,,,,,,,,block_1/none_t_105_4.wav,timbre,t,none,105.0,1.782068205,15.59785052,,,,yes,sol republic mastertracks  pro calvin harris edition,1,no,m,55,r,yes,1,2020-09-07_21h13.50.539,kura-B2,2020.1.2,MacIntel,60,,,"[""space"",""space"",""space"",""space"",""space"",""space"",""space"",""space"",""space"",""space"",""space"",""space"",""space"",""space"",""space""]","[0.6191600000020117,1.296009999990929,1.963530000008177,2.9335799999535084,3.647319999989122,5.0400449999724515,6.120874999964144,7.157854999997653,8.185354999965057,9.182059999962803,10.081339999975171,10.969010000000708,12.067654999962542,13.099709999980405,14.044254999957047]",space,0.716045,0.0,11.0,11.0,20.0,1.0,,,,,,,,,,,,,
,,,,,,,,,,,block_1/strong_t_72_4.wav,timbre,t,strong,72.0,1.194355845,16.3115894,,,,yes,sol republic mastertracks  pro calvin harris edition,1,no,m,55,r,yes,1,2020-09-07_21h13.50.539,kura-B2,2020.1.2,MacIntel,60,,,"[""space"",""space"",""space"",""space"",""space"",""space"",""space"",""space"",""space"",""space"",""space"",""space"",""space"",""space"",""space"",""space"",""space"",""space"",""space""]","[1.5833200000342913,2.1483449999941513,2.9648550000274554,3.751749999995809,4.499085000017658,5.321195000025909,6.101615000050515,6.884375000023283,7.70549000002211,8.429685000039171,9.201615000027232,9.95115999999689,10.799455000029411,11.621340000012424,12.447050000017043,13.16853500000434,13.930359999998473,14.66853500000434,15.514830000000075]",space,0.62322,0.0,12.0,12.0,1.0,1.0,,,,,,,,,,,,,
,,,,,,,,,,,block_1/none_t_119_3.wav,timbre,t,none,119.0,1.169893331,12.28885025,,,,yes,sol republic mastertracks  pro calvin harris edition,1,no,m,55,r,yes,1,2020-09-07_21h13.50.539,kura-B2,2020.1.2,MacIntel,60,,,"[""space"",""space"",""space"",""space"",""space"",""space"",""space"",""space"",""space"",""space"",""space"",""space"",""space"",""space"",""space"",""space"",""space""]","[1.1168450000113808,1.5400149999768473,1.9686850000289269,2.575635000015609,3.1610850000288337,3.864049999974668,4.552815000002738,5.185200000007171,5.938220000010915,6.636624999984633,7.3385850000195205,7.921429999987595,8.615594999981113,9.267155000008643,9.837404999998398,10.475834999990184,11.251850000000559]",space,0.815825,0.0,13.0,13.0,32.0,1.0,,,,,,,,,,,,,
,,,,,,,,,,,block_1/weak_t_72_3.wav,timbre,t,weak,72.0,1.571303333,17.03996546,,,,yes,sol republic mastertracks  pro calvin harris edition,1,no,m,55,r,yes,1,2020-09-07_21h13.50.539,kura-B2,2020.1.2,MacIntel,60,,,"[""space"",""space"",""space"",""space"",""space"",""space"",""space"",""space"",""space"",""space"",""space"",""space"",""space"",""space"",""space"",""space"",""space"",""space"",""space""]","[0.7117200000211596,1.554550000000745,2.4014549999847077,3.135230000014417,3.9121199999935925,4.680274999991525,5.488475000020117,6.322775000007823,7.027750000008382,7.838225000014063,8.645450000010896,9.411369999987073,10.219310000014957,11.072005000023637,11.84028499998385,12.607024999975692,13.372649999975692,14.188619999971706,15.02143000002252]",space,0.38218,0.0,14.0,14.0,26.0,1.0,,,,,,,,,,,,,
,,,,,,,,,,,block_1/medium_t_72_3.wav,timbre,t,medium,72.0,2.203768917,18.98399567,,,,yes,sol republic mastertracks  pro calvin harris edition,1,no,m,55,r,yes,1,2020-09-07_21h13.50.539,kura-B2,2020.1.2,MacIntel,60,,,"[""space"",""space"",""space"",""space"",""space"",""space"",""space"",""space"",""space"",""space"",""space""]","[0.6967300000251271,1.752024999994319,2.6338899999973364,3.4553300000261515,4.253979999979492,5.210959999996703,6.068120000010822,6.90525000001071,7.714459999988321,8.579000000027008,15.260424999985844]",space,1.02321,0.0,15.0,15.0,31.0,1.0,,,,,,,,,,,,,
,,,,,,,,,,,block_1/strong_t_92_4.wav,timbre,t,strong,92.0,1.022726917,13.26377,,,,yes,sol republic mastertracks  pro calvin harris edition,1,no,m,55,r,yes,1,2020-09-07_21h13.50.539,kura-B2,2020.1.2,MacIntel,60,,,"[""space"",""space"",""space"",""space"",""space"",""space"",""space"",""space"",""space"",""space"",""space"",""space"",""space"",""space"",""space"",""space"",""space"",""space"",""space""]","[1.266684999980498,1.7800049999495968,2.397865000006277,3.010759999975562,3.6932449999731034,4.267839999985881,4.9134549999726005,5.537684999988414,6.232264999998733,6.860694999981206,7.447204999974929,8.058724999951664,8.701349999988452,9.37624999997206,9.986754999961704,10.637719999998808,11.244964999961667,11.850654999958351,12.48283499997342]",space,0.832515,0.0,16.0,16.0,9.0,1.0,,,,,,,,,,,,,
,,,,,,,,,,,block_1/weak_t_92_4.wav,timbre,t,weak,92.0,1.530875014,13.01332399,,,,yes,sol republic mastertracks  pro calvin harris edition,1,no,m,55,r,yes,1,2020-09-07_21h13.50.539,kura-B2,2020.1.2,MacIntel,60,,,"[""space"",""space"",""space"",""space"",""space"",""space"",""space"",""space"",""space"",""space"",""space"",""space"",""space"",""space"",""space"",""space"",""space"",""space"",""space"",""space"",""space""]","[0.3450699999812059,0.7740000000339933,1.315984999993816,1.9007700000074692,2.482460000028368,3.0519550000317395,3.61408000002848,4.237495000008494,4.768810000037774,5.390209999983199,5.963434999983292,6.5705050000105985,7.116749999986496,7.702389999991283,8.300020000024233,8.873149999999441,9.388830000010785,10.070145000005141,10.618880000023637,11.235144999984186,11.783519999997225]",space,0.767465,0.0,17.0,17.0,29.0,1.0,,,,,,,,,,,,,
,,,,,,,,,,,block_1/strong_t_119_4.wav,timbre,t,strong,119.0,1.237037075,11.10492823,,,,yes,sol republic mastertracks  pro calvin harris edition,1,no,m,55,r,yes,1,2020-09-07_21h13.50.539,kura-B2,2020.1.2,MacIntel,60,,,"[""space"",""space"",""space"",""space"",""space"",""space"",""space"",""space"",""space"",""space"",""space"",""space"",""space"",""space"",""space"",""space"",""space"",""space"",""space"",""space"",""space"",""space""]","[0.28351999999722466,0.7712500000488944,1.0944800000288524,1.596430000034161,2.0700400000205263,2.6056400000234134,3.1380000000353903,3.715520000027027,4.11607000004733,4.701785000041127,5.147114999999758,5.612680000020191,6.12003500002902,6.648865000053775,7.1152100000181235,7.6623750000144355,8.131405000051018,8.679010000021663,9.134070000029169,9.683944999997038,10.179750000010245,10.777575000014622]",space,0.76478,0.0,18.0,18.0,39.0,1.0,,,,,,,,,,,,,
,,,,,,,,,,,block_1/none_t_72_3.wav,timbre,t,none,72.0,1.707698408,21.90234693,,,,yes,sol republic mastertracks  pro calvin harris edition,1,no,m,55,r,yes,1,2020-09-07_21h13.50.539,kura-B2,2020.1.2,MacIntel,60,,,"[""space"",""space"",""space"",""space"",""space"",""space"",""space"",""space"",""space"",""space"",""space"",""space"",""space"",""space"",""space"",""space"",""space"",""space"",""space"",""space"",""space"",""space"",""space"",""space"",""space""]","[0.31971499999053776,0.7701849999721162,1.5920449999975972,2.1782299999613315,3.3410649999859743,4.1869949999963865,4.953779999981634,5.871839999977965,6.74342000001343,7.635729999979958,8.5096950000152,9.307354999997187,10.140955000009853,10.86580500000855,11.739484999969136,12.50341499998467,13.323739999963436,14.17157499998575,15.003894999972545,15.811879999993835,16.656369999982417,17.559799999988172,18.391884999989998,19.086324999982025,19.940505000005942]",space,0.531035,0.0,19.0,19.0,19.0,1.0,,,,,,,,,,,,,
,,,,,,,,,,,block_1/none_t_92_3.wav,timbre,t,none,92.0,1.813425609,13.88349364,,,,yes,sol republic mastertracks  pro calvin harris edition,1,no,m,55,r,yes,1,2020-09-07_21h13.50.539,kura-B2,2020.1.2,MacIntel,60,,,"[""space"",""space"",""space"",""space"",""space"",""space"",""space"",""space"",""space"",""space"",""space"",""space"",""space"",""space"",""space"",""space""]","[0.3088050000369549,0.9123850000323728,1.3499399999855086,2.426450000028126,3.364945000037551,4.103195000032429,4.84783000004245,5.656285000033677,6.510279999987688,7.426644999999553,8.393525000021327,9.250185000011697,10.18552500003716,11.107480000006035,11.972745000035502,13.258444999984931]",space,0.42483,0.0,20.0,20.0,17.0,1.0,,,,,,,,,,,,,
,,,,,,,,,,,block_1/strong_t_119_3.wav,timbre,t,strong,119.0,1.722630655,12.55029505,,,,yes,sol republic mastertracks  pro calvin harris edition,1,no,m,55,r,yes,1,2020-09-07_21h13.50.539,kura-B2,2020.1.2,MacIntel,60,,,"[""space"",""space"",""space"",""space"",""space"",""space"",""space"",""space"",""space"",""space"",""space"",""space"",""space"",""space"",""space"",""space"",""space"",""space"",""space""]","[1.1662149999756366,1.5850150000187568,2.1143649999867193,2.665580000029877,3.1955200000084005,3.7513850000104867,4.263540000014473,4.862405000021681,5.467884999990929,6.051619999983814,6.6022200000006706,7.180319999984931,7.717085000011139,8.268154999997932,8.864535000000615,9.411599999992177,10.01221000001533,10.484044999990147,11.112460000033025]",space,0.735525,0.0,21.0,21.0,28.0,1.0,,,,,,,,,,,,,
,,,,,,,,,,,block_1/weak_t_105_3.wav,timbre,t,weak,105.0,2.038080476,13.26905553,,,,yes,sol republic mastertracks  pro calvin harris edition,1,no,m,55,r,yes,1,2020-09-07_21h13.50.539,kura-B2,2020.1.2,MacIntel,60,,,"[""space"",""space"",""space"",""space"",""space"",""space"",""space"",""space"",""space"",""space"",""space"",""space"",""space"",""space"",""space"",""space"",""space"",""space"",""space"",""space"",""space"",""space""]","[0.24038000003201887,0.7916749999858439,1.6101400000043213,2.3150299999979325,2.959420000028331,3.677979999978561,4.214320000028238,4.805430000007618,5.311054999998305,5.960495000006631,6.392280000029132,7.043325000035111,7.6272400000016205,8.176934999995865,8.70728999999119,9.32670999999391,9.84519000002183,10.377129999978933,11.09320000000298,11.636875000025611,12.328275000036228,13.051075000024866]",space,0.472185,0.0,22.0,22.0,4.0,1.0,,,,,,,,,,,,,
,,,,,,,,,,,block_1/weak_t_81_4.wav,timbre,t,weak,81.0,2.31768599,15.5134683,,,,yes,sol republic mastertracks  pro calvin harris edition,1,no,m,55,r,yes,1,2020-09-07_21h13.50.539,kura-B2,2020.1.2,MacIntel,60,,,"[""space"",""space"",""space"",""space"",""space"",""space"",""space"",""space"",""space"",""space"",""space"",""space"",""space"",""space"",""space"",""space"",""space"",""space""]","[2.8292249999940395,3.5285550000262447,4.131240000016987,4.783730000024661,5.439669999992475,6.054839999997057,6.8407200000365265,7.477175000007264,8.191549999988638,8.881095000018831,9.525060000014491,10.229074999981094,10.898465000034776,11.562770000018645,12.225964999990538,12.816395000030752,13.450654999993276,14.268495000025723]",space,0.516145,0.0,23.0,23.0,0.0,1.0,,,,,,,,,,,,,
,,,,,,,,,,,block_1/strong_t_92_3.wav,timbre,t,strong,92.0,1.987733848,15.03440052,,,,yes,sol republic mastertracks  pro calvin harris edition,1,no,m,55,r,yes,1,2020-09-07_21h13.50.539,kura-B2,2020.1.2,MacIntel,60,,,"[""space"",""space"",""space"",""space"",""space"",""space"",""space"",""space"",""space"",""space"",""space"",""space"",""space"",""space"",""space"",""space"",""space"",""space"",""space"",""space"",""space""]","[0.31173999997554347,0.879659999976866,1.3591550000128336,2.079680000024382,2.7091699999873526,3.377024999994319,4.092375000007451,4.69427999999607,5.377139999996871,6.019704999984242,6.704045000020415,7.408310000027996,8.068885000015143,8.707824999990407,9.350574999989476,10.0314500000095,10.666930000006687,11.375835000013467,12.041559999983292,12.713700000022072,13.377154999994673]",space,3.676945,0.0,24.0,24.0,3.0,1.0,,,,,,,,,,,,,
,,,,,,,,,,,block_1/none_t_105_3.wav,timbre,t,none,105.0,2.248615294,16.06934092,,,,yes,sol republic mastertracks  pro calvin harris edition,1,no,m,55,r,yes,1,2020-09-07_21h13.50.539,kura-B2,2020.1.2,MacIntel,60,,,"[""space"",""space"",""space"",""space"",""space"",""space"",""space"",""space"",""space"",""space"",""space"",""space"",""space"",""space"",""space"",""space"",""space"",""space"",""space"",""space""]","[0.2652250000392087,0.7546050000237301,1.5288000000291504,2.2971850000321865,3.0260850000195205,3.8976000000257045,4.653145000047516,5.4990600000019185,6.261025000014342,7.108355000033043,7.93731500004651,8.79766500002006,9.486605000041891,10.231570000003558,10.829305000021122,11.358330000017304,11.978875000029802,12.831225000030827,13.71298500004923,14.811810000042897]",space,0.35462,0.0,25.0,25.0,14.0,1.0,,,,,,,,,,,,,
,,,,,,,,,,,block_1/strong_t_105_3.wav,timbre,t,strong,105.0,1.518747526,13.05135524,,,,yes,sol republic mastertracks  pro calvin harris edition,1,no,m,55,r,yes,1,2020-09-07_21h13.50.539,kura-B2,2020.1.2,MacIntel,60,,,"[""space"",""space"",""space"",""space"",""space"",""space"",""space"",""space"",""space"",""space"",""space"",""space"",""space"",""space"",""space"",""space"",""space"",""space"",""space"",""space"",""space"",""space""]","[0.5134049999760464,0.8325049999984913,1.1781349999946542,1.8003249999601394,2.4094099999638274,3.027239999966696,3.5903899999684654,4.19318000000203,4.7787200000020675,5.408304999989923,5.896699999982957,6.506674999953248,7.132489999989048,7.751415000006091,8.287849999964237,8.89551499998197,9.472294999985024,10.026614999980666,10.665044999972451,11.277759999968112,11.764930000004824,12.580394999997225]",space,0.163985,0.0,26.0,26.0,21.0,1.0,,,,,,,,,,,,,
,,,,,,,,,,,block_1/strong_t_105_4.wav,timbre,t,strong,105.0,2.094581561,12.21235934,,,,yes,sol republic mastertracks  pro calvin harris edition,1,no,m,55,r,yes,1,2020-09-07_21h13.50.539,kura-B2,2020.1.2,MacIntel,60,,,"[""space"",""space"",""space"",""space"",""space"",""space"",""space"",""space"",""space"",""space"",""space"",""space"",""space"",""space"",""space"",""space"",""space"",""space"",""space"",""space"",""space""]","[0.7259650000487454,1.0200450000120327,1.3764350000419654,1.8274850000161678,2.3356800000183284,2.840665000025183,3.3109650000114925,3.8847350000287406,4.320850000018254,4.863245000015013,5.340945000003558,5.835400000039954,6.311085000052117,6.8095350000076,7.324715000053402,7.844790000002831,8.328475000045728,8.858665000007022,9.296270000049844,9.813230000028852,10.361375000036787]",space,1.193815,0.0,27.0,27.0,18.0,1.0,,,,,,,,,,,,,
,,,,,,,,,,,block_1/none_t_119_4.wav,timbre,t,none,119.0,1.977931805,11.04042614,,,,yes,sol republic mastertracks  pro calvin harris edition,1,no,m,55,r,yes,1,2020-09-07_21h13.50.539,kura-B2,2020.1.2,MacIntel,60,,,"[""space"",""space"",""space"",""space"",""space"",""space"",""space"",""space"",""space"",""space"",""space"",""space"",""space""]","[0.7775200000032783,1.446044999989681,2.1785149999777786,2.9390499999863096,3.9207799999858253,4.724270000006072,5.60847500001546,6.440759999968577,7.74167999997735,8.479204999981448,9.257805000001099,10.086929999990389,10.921174999966752]",space,0.72613,0.0,28.0,28.0,27.0,1.0,,,,,,,,,,,,,
,,,,,,,,,,,block_1/none_t_92_4.wav,timbre,t,none,92.0,2.400883628,17.24192671,,,,yes,sol republic mastertracks  pro calvin harris edition,1,no,m,55,r,yes,1,2020-09-07_21h13.50.539,kura-B2,2020.1.2,MacIntel,60,,,"[""space"",""space"",""space"",""space"",""space"",""space"",""space"",""space"",""space"",""space"",""space""]","[0.25009000004502013,0.6999899999937043,4.427885000011884,6.14767999999458,7.781620000023395,9.231804999988526,10.981254999991506,12.712380000040866,14.100910000037402,15.529960000014398,16.89712999999756]",space,1.08255,0.0,29.0,29.0,22.0,1.0,,,,,,,,,,,,,
,,,,,,,,,,,block_1/weak_t_119_4.wav,timbre,t,weak,119.0,1.438381355,12.04736095,,,,yes,sol republic mastertracks  pro calvin harris edition,1,no,m,55,r,yes,1,2020-09-07_21h13.50.539,kura-B2,2020.1.2,MacIntel,60,,,"[""space"",""space"",""space"",""space"",""space"",""space"",""space"",""space"",""space"",""space"",""space"",""space"",""space"",""space"",""space"",""space"",""space"",""space"",""space"",""space"",""space"",""space"",""space""]","[0.5877999999793246,1.030384999990929,1.5656299999682233,2.138299999991432,2.7447399999946356,3.228614999970887,3.7142149999854155,4.276249999995343,4.714849999989383,5.367269999987911,5.9623199999914505,6.5475749999750406,7.02131499996176,7.494349999993574,7.9679899999755435,8.559339999977965,9.065000000002328,9.55077499995241,9.976699999999255,10.430399999953806,10.913824999995995,11.48654999997234,11.969790000002831]",space,0.5982,0.0,30.0,30.0,11.0,1.0,,,,,,,,,,,,,
,,,,,,,,,,,block_1/medium_t_119_3.wav,timbre,t,medium,119.0,2.226222359,10.98477111,,,,yes,sol republic mastertracks  pro calvin harris edition,1,no,m,55,r,yes,1,2020-09-07_21h13.50.539,kura-B2,2020.1.2,MacIntel,60,,,"[""space"",""space"",""space"",""space"",""space"",""space"",""space"",""space"",""space"",""space"",""space"",""space"",""space"",""space"",""space"",""space"",""space"",""space"",""space"",""space""]","[0.589075000025332,1.0193399999989197,1.3876300000119954,1.7799600000143982,2.226375000027474,2.6717500000377186,3.1290950000402518,3.6113149999873713,4.041674999985844,4.501530000008643,4.905079999996815,5.442695000034291,5.824469999992289,6.267519999993965,6.763075000024401,7.190360000007786,7.657635000010487,8.125285000016447,8.557945000007749,8.994275000004563]",space,0.865145,0.0,31.0,31.0,37.0,1.0,,,,,,,,,,,,,
,,,,,,,,,,,block_1/none_t_81_3.wav,timbre,t,none,81.0,2.10326082,21.36648077,,,,yes,sol republic mastertracks  pro calvin harris edition,1,no,m,55,r,yes,1,2020-09-07_21h13.50.539,kura-B2,2020.1.2,MacIntel,60,,,"[""space"",""space"",""space"",""space"",""space"",""space"",""space"",""space"",""space"",""space"",""space"",""space"",""space"",""space"",""space"",""space"",""space"",""space"",""space"",""space"",""space"",""space"",""space"",""space"",""space"",""space"",""space"",""space"",""space"",""space"",""space"",""space"",""space"",""space"",""space"",""space"",""space""]","[2.0607250000466593,2.5119249999988824,3.0620600000256673,3.513250000018161,3.986544999992475,4.4664600000251085,5.0307100000209175,5.501105000032112,6.016380000044592,6.538610000046901,6.974370000010822,7.513755000021774,7.976185000035912,8.530295000004116,9.024550000031013,9.466390000015963,9.941425000026356,10.417235000000801,10.8329800000065,11.299210000026505,11.68064500001492,12.192544999998063,12.694264999998268,13.261775000020862,13.781935000035446,14.327214999997523,14.849610000033863,15.36667000001762,15.863210000039544,16.447465000033844,16.97749499999918,17.65043500001775,18.212165000033565,18.664380000031088,19.24601000000257,20.79649999999674,20.986310000007506]",space,0.627845,0.0,32.0,32.0,10.0,1.0,,,,,,,,,,,,,
,,,,,,,,,,,block_1/weak_t_119_3.wav,timbre,t,weak,119.0,1.729530605,11.14109523,,,,yes,sol republic mastertracks  pro calvin harris edition,1,no,m,55,r,yes,1,2020-09-07_21h13.50.539,kura-B2,2020.1.2,MacIntel,60,,,"[""space"",""space"",""space"",""space"",""space"",""space"",""space"",""space"",""space"",""space"",""space"",""space"",""space"",""space"",""space""]","[0.6119199999957345,3.41564500000095,3.876864999998361,4.3641650000354275,4.890019999991637,5.366450000030454,5.8977949999971315,6.397740000043996,6.869854999997187,7.300359999993816,7.717280000040773,8.185285000014119,8.649750000040513,9.182934999989811,9.599849999998696]",space,0.579005,0.0,33.0,33.0,13.0,1.0,,,,,,,,,,,,,
,,,,,,,,,,,block_1/medium_t_105_4.wav,timbre,t,medium,105.0,2.498438995,14.23458412,,,,yes,sol republic mastertracks  pro calvin harris edition,1,no,m,55,r,yes,1,2020-09-07_21h13.50.539,kura-B2,2020.1.2,MacIntel,60,,,"[""space"",""space"",""space"",""space"",""space"",""space"",""space"",""space"",""space"",""space"",""space"",""space"",""space"",""space"",""space"",""space"",""space"",""space"",""space"",""space"",""space"",""space"",""space""]","[0.5319399999571033,1.0494649999891408,1.7373500000103377,2.4041699999943376,2.9859599999617785,3.6074849999858998,4.188339999993332,4.845869999960996,5.528409999969881,6.060804999957327,6.665229999984149,7.296839999966323,7.844959999958519,8.43089499999769,9.062894999980927,9.698054999986198,10.236325000005309,10.847469999978784,11.43525999999838,12.059175000002142,12.845094999996945,13.469699999957811,14.031889999983832]",space,0.54295,0.0,34.0,34.0,23.0,1.0,,,,,,,,,,,,,
,,,,,,,,,,,block_1/none_t_72_4.wav,timbre,t,none,72.0,1.772355542,25.47190203,,,,yes,sol republic mastertracks  pro calvin harris edition,1,no,m,55,r,yes,1,2020-09-07_21h13.50.539,kura-B2,2020.1.2,MacIntel,60,,,"[""space"",""space"",""space"",""space"",""space"",""space"",""space"",""space"",""space"",""space"",""space"",""space"",""space"",""space"",""space"",""space"",""space"",""space"",""space"",""space"",""space"",""space"",""space"",""space"",""space"",""space"",""space"",""space"",""space"",""space"",""space"",""space"",""space"",""space"",""space"",""space"",""space"",""space"",""space"",""space"",""space"",""space"",""space"",""space"",""space""]","[0.6760900000226684,1.2520650000078604,1.8141800000448711,2.45539000001736,2.961730000039097,3.525770000007469,4.065050000033807,4.647875000024214,5.190675000019837,5.738855000003241,6.292170000029728,6.893040000053588,7.428045000007842,7.975780000037048,8.52456000004895,9.06170000002021,9.59051000000909,10.092725000053179,10.65679000003729,11.17758000001777,11.724545000004582,12.259710000013001,12.811440000019502,13.316170000005513,13.895900000003166,14.446695000049658,14.948385000054259,15.507284999999683,16.04441000003135,16.522740000043996,17.07420000003185,17.543445000017527,18.062245000037365,18.543605000013486,19.0816900000209,19.608620000013616,20.206785000045784,20.69190500001423,21.27670000004582,21.8114250000217,22.41990000003716,22.907210000033956,23.504685000050813,24.194539999996778,24.94434500002535]",space,0.56106,0.0,35.0,35.0,15.0,1.0,,,,,,,,,,,,,
,,,,,,,,,,,block_1/medium_t_92_4.wav,timbre,t,medium,92.0,1.590939721,14.58753836,,,,yes,sol republic mastertracks  pro calvin harris edition,1,no,m,55,r,yes,1,2020-09-07_21h13.50.539,kura-B2,2020.1.2,MacIntel,60,,,"[""space"",""space"",""space"",""space"",""space"",""space"",""space"",""space"",""space"",""space"",""space"",""space"",""space"",""space"",""space"",""space"",""space"",""space"",""space"",""space"",""space""]","[0.7429400000255555,1.3451350000104867,2.029035000014119,2.6464849999756552,3.3420049999840558,3.9634700000169687,4.627610000025015,5.3206999999820255,5.973545000015292,6.6594150000019,7.360655000025872,7.958549999981187,8.647905000019819,9.314705000026152,9.977740000002086,10.650934999983292,11.34694000001764,12.061020000022836,12.694569999992382,13.312779999978375,13.995564999990165]",space,0.14535,0.0,36.0,36.0,25.0,1.0,,,,,,,,,,,,,
,,,,,,,,,,,block_1/weak_t_105_4.wav,timbre,t,weak,105.0,1.882880114,13.41285744,,,,yes,sol republic mastertracks  pro calvin harris edition,1,no,m,55,r,yes,1,2020-09-07_21h13.50.539,kura-B2,2020.1.2,MacIntel,60,,,"[""space"",""space"",""space"",""space"",""space"",""space"",""space"",""space"",""space"",""space"",""space"",""space"",""space"",""space"",""space"",""space"",""space"",""space"",""space"",""space"",""space"",""space""]","[0.32209000003058463,0.8925550000276417,1.5066850000293925,2.0499350000172853,2.6933549999957904,3.2139399999869056,3.769444999983534,4.304315000015777,4.792645000037737,5.387655000027735,5.939155000029132,6.549739999987651,7.044575000007171,7.6389450000133365,8.248085000028368,8.805915000033565,9.386540000035893,9.935195000027306,10.552740000013728,11.20653000002494,11.821865000005346,12.510515000030864]",space,0.591745,0.0,37.0,37.0,7.0,1.0,,,,,,,,,,,,,
,,,,,,,,,,,block_1/weak_t_92_3.wav,timbre,t,weak,92.0,1.190820523,16.55263458,,,,yes,sol republic mastertracks  pro calvin harris edition,1,no,m,55,r,yes,1,2020-09-07_21h13.50.539,kura-B2,2020.1.2,MacIntel,60,,,"[""space"",""space"",""space"",""space"",""space"",""space"",""space"",""space"",""space"",""space"",""space"",""space"",""space"",""space"",""space"",""space"",""space"",""space"",""space"",""space""]","[0.31363500002771616,0.6601050000172108,1.7199150000233203,2.850635000038892,3.831140000023879,4.6808550000423566,5.599415000004228,6.398615000012796,7.305805000010878,8.052610000013374,8.729080000019167,9.481560000043828,10.274960000009742,11.112625000008848,11.870114999997895,12.659905000007711,13.42920499999309,14.232345000025816,14.974350000033155,15.682115000032354]",space,0.5943,0.0,38.0,38.0,38.0,1.0,,,,,,,,,,,,,
,,,,,,,,,,,block_1/weak_t_72_4.wav,timbre,t,weak,72.0,1.01386198,17.48964429,,,,yes,sol republic mastertracks  pro calvin harris edition,1,no,m,55,r,yes,1,2020-09-07_21h13.50.539,kura-B2,2020.1.2,MacIntel,60,,,"[""space"",""space"",""space"",""space"",""space"",""space"",""space"",""space"",""space"",""space"",""space"",""space"",""space"",""space"",""space"",""space"",""space"",""space"",""space"",""space"",""space""]","[0.3760500000207685,0.892760000017006,1.9133950000395998,2.7679600000265054,3.6864650000352412,4.491220000025351,5.2432799999951385,6.199690000037663,7.044120000035036,7.85647500003688,8.676834999991115,9.557155000045896,10.325370000035036,11.074790000042412,12.050990000017919,12.861855000024661,13.731915000011213,14.558539999998175,15.293630000029225,16.23041000001831,16.912700000044424]",space,0.71894,0.0,39.0,39.0,33.0,1.0,,,,,,,,,,,,,
,,,,,,,,,,,block_2/medium_n_119_4.wav,no,n,medium,119.0,1.918272059,10.22534689,,,,yes,sol republic mastertracks  pro calvin harris edition,1,no,m,55,r,yes,1,2020-09-07_21h13.50.539,kura-B2,2020.1.2,MacIntel,60,,,,,,,,,,,,space,163.18795,"[""space"",""space"",""space"",""space"",""space"",""space"",""space"",""space"",""space"",""space"",""space"",""space"",""space"",""space"",""space"",""space"",""space"",""space"",""space"",""space""]","[0.7489849999547005,1.2211649999953806,1.6011799999978393,2.0329449999844655,2.3538249999983236,2.8138799999724142,3.1789049999788404,3.569949999975506,4.019809999968857,4.460075000009965,5.028469999961089,5.4793899999931455,5.896514999971259,6.348394999979064,6.814279999991413,7.26111999998102,7.762104999972507,8.178149999992456,8.5530049999943,9.196109999960754]",space,0.72611,0.0,0.0,0.0,17.0,1.0,,
,,,,,,,,,,,block_2/none_n_81_4.wav,no,n,none,81.0,1.032736778,20.98466422,,,,yes,sol republic mastertracks  pro calvin harris edition,1,no,m,55,r,yes,1,2020-09-07_21h13.50.539,kura-B2,2020.1.2,MacIntel,60,,,,,,,,,,,,,,"[""space"",""space"",""space"",""space"",""space"",""space"",""space"",""space"",""space"",""space"",""space"",""space"",""space"",""space"",""space"",""space"",""space"",""space"",""space"",""space"",""space"",""space"",""space"",""space"",""space"",""space"",""space"",""space"",""space""]","[0.5345450000022538,1.0682099999976344,1.5608849999844097,2.120185000007041,2.9069649999728426,3.5538349999696948,4.312939999974333,4.954634999972768,5.577824999985751,6.304899999988265,7.086554999987129,7.843219999980647,8.722944999986794,9.503289999964181,10.265344999963418,10.858379999990575,11.557404999970458,12.305484999960754,13.324429999978747,13.910204999963753,14.859445000009146,15.070514999970328,15.819625000003725,16.768769999966025,17.036954999959562,17.684565000003204,18.43248499999754,18.636300000012852,19.49011499999324]",space,0.677065,0.0,1.0,1.0,26.0,1.0,,
,,,,,,,,,,,block_2/weak_n_105_4.wav,no,n,weak,105.0,1.277365727,12.0504723,,,,yes,sol republic mastertracks  pro calvin harris edition,1,no,m,55,r,yes,1,2020-09-07_21h13.50.539,kura-B2,2020.1.2,MacIntel,60,,,,,,,,,,,,,,"[""space"",""space"",""space"",""space"",""space"",""space"",""space"",""space"",""space"",""space"",""space"",""space"",""space"",""space"",""space"",""space"",""space"",""space"",""space"",""space"",""space""]","[0.6090799999656156,1.0865299999713898,1.4978799999807961,2.0972799999872223,2.6475900000077672,3.168309999979101,3.69310500001302,4.2667249999940395,4.895749999966938,5.423814999987371,5.895484999986365,6.268884999968577,6.887864999996964,7.382039999996778,7.93099500000244,8.39760500000557,8.982329999969807,9.385124999971595,10.048019999987446,10.499759999976959,11.049820000014734]",space,0.728555,0.0,2.0,2.0,28.0,1.0,,
,,,,,,,,,,,block_2/weak_n_105_3.wav,no,n,weak,105.0,2.432347709,14.10785791,,,,yes,sol republic mastertracks  pro calvin harris edition,1,no,m,55,r,yes,1,2020-09-07_21h13.50.539,kura-B2,2020.1.2,MacIntel,60,,,,,,,,,,,,,,"[""space"",""space"",""space"",""space"",""space"",""space"",""space"",""space"",""space"",""space"",""space"",""space"",""space"",""space"",""space"",""space"",""space"",""space"",""space""]","[0.8147400000016205,1.399455000006128,2.2024400000227615,2.7807000000029802,3.4151100000017323,3.986429999989923,4.655934999987949,5.216245000017807,5.980940000037663,6.912015000008978,7.560845000029076,7.75977000000421,8.341730000043754,9.376900000032037,9.94452000001911,10.385509999992792,10.891795000003185,11.388710000028368,11.972515000030398]",space,0.544785,0.0,3.0,3.0,27.0,1.0,,
,,,,,,,,,,,block_2/weak_n_72_3.wav,no,n,weak,72.0,1.604938988,17.47283014,,,,yes,sol republic mastertracks  pro calvin harris edition,1,no,m,55,r,yes,1,2020-09-07_21h13.50.539,kura-B2,2020.1.2,MacIntel,60,,,,,,,,,,,,,,"[""space"",""space"",""space"",""space"",""space"",""space"",""space"",""space"",""space"",""space"",""space"",""space"",""space"",""space"",""space"",""space"",""space"",""space"",""space"",""space"",""space"",""space"",""space"",""space"",""space""]","[0.25552499998593703,0.9941300000064075,2.0499500000150874,2.7824499999987893,3.4991900000022724,4.315164999978151,5.154630000004545,5.966115000017453,6.6511199999949895,7.495905000017956,8.26111999998102,9.0645900000236,9.814405000011902,10.563864999974612,11.280444999982137,11.464269999996759,12.075364999996964,12.846305000013672,13.015520000015385,13.761630000022706,14.445840000000317,14.633455000002868,15.399689999991097,16.000070000009146,16.17256500001531]",space,0.57488,0.0,4.0,4.0,8.0,1.0,,
,,,,,,,,,,,block_2/weak_n_81_3.wav,no,n,weak,81.0,2.376095497,17.43405468,,,,yes,sol republic mastertracks  pro calvin harris edition,1,no,m,55,r,yes,1,2020-09-07_21h13.50.539,kura-B2,2020.1.2,MacIntel,60,,,,,,,,,,,,,,"[""space"",""space"",""space"",""space"",""space"",""space"",""space"",""space"",""space"",""space"",""space"",""space"",""space"",""space"",""space"",""space"",""space"",""space"",""space"",""space""]","[0.8433200000436045,1.763645000057295,2.5705150000285357,3.354525000031572,4.162585000041872,4.8730150000192225,5.6443100000033155,6.463995000056457,7.176365000021178,7.891970000055153,8.111800000013318,8.70883000001777,9.591280000051484,10.212565000052564,10.942090000025928,11.627825000032317,12.424050000030547,13.226265000004787,13.925540000025649,14.677725000015926]",space,0.50826,0.0,5.0,5.0,30.0,1.0,,
,,,,,,,,,,,block_2/weak_n_72_4.wav,no,n,weak,72.0,1.671954957,17.64637673,,,,yes,sol republic mastertracks  pro calvin harris edition,1,no,m,55,r,yes,1,2020-09-07_21h13.50.539,kura-B2,2020.1.2,MacIntel,60,,,,,,,,,,,,,,"[""space"",""space"",""space"",""space"",""space"",""space"",""space"",""space"",""space"",""space"",""space"",""space"",""space"",""space"",""space"",""space"",""space"",""space"",""space"",""space"",""space"",""space""]","[0.5510450000292622,1.3738000000012107,2.15236000000732,3.015320000005886,3.937229999981355,4.611380000016652,4.78992000001017,5.563859999994747,6.3220750000327826,6.490945000026841,7.213950000004843,8.044869999983348,8.798370000033174,9.601810000021942,10.350840000028256,11.25162499997532,12.116020000015851,12.984325000026729,13.828414999996312,14.01283500000136,14.697274999984074,15.532189999998081]",space,0.435405,0.0,6.0,6.0,4.0,1.0,,
,,,,,,,,,,,block_2/none_n_119_4.wav,no,n,none,119.0,1.538189981,14.89986799,,,,yes,sol republic mastertracks  pro calvin harris edition,1,no,m,55,r,yes,1,2020-09-07_21h13.50.539,kura-B2,2020.1.2,MacIntel,60,,,,,,,,,,,,,,"[""space"",""space"",""space"",""space"",""space"",""space"",""space"",""space"",""space"",""space"",""space"",""space"",""space"",""space"",""space"",""space"",""space"",""space""]","[0.392470000020694,1.0179599999682978,1.7468949999893084,2.9320750000188127,3.5311750000109896,4.5654799999902025,5.2772750000003725,6.13656999997329,6.967889999970794,7.9432599999709055,8.117559999984223,9.034419999981765,10.273155000002589,10.63143000000855,11.598620000004303,12.132189999974798,12.732989999989513,13.449629999988247]",space,0.462605,0.0,7.0,7.0,20.0,1.0,,
,,,,,,,,,,,block_2/medium_n_105_4.wav,no,n,medium,105.0,2.115061775,16.52181914,,,,yes,sol republic mastertracks  pro calvin harris edition,1,no,m,55,r,yes,1,2020-09-07_21h13.50.539,kura-B2,2020.1.2,MacIntel,60,,,,,,,,,,,,,,"[""space"",""space"",""space"",""space"",""space"",""space"",""space"",""space"",""space"",""space"",""space"",""space"",""space"",""space"",""space"",""space"",""space"",""space"",""space""]","[0.7709399999585003,1.4333349999506027,2.243934999976773,3.030879999976605,3.9082049999851733,4.785989999945741,5.561904999951366,6.173559999966528,6.887994999997318,7.5995449999463744,8.348869999987073,9.092129999946337,9.713389999989886,10.432455000001937,11.052859999996144,11.831689999962691,12.595004999951925,13.296844999946188,13.993289999954868]",space,0.650835,0.0,8.0,8.0,12.0,1.0,,
,,,,,,,,,,,block_2/none_n_81_3.wav,no,n,none,81.0,2.161532659,18.80565964,,,,yes,sol republic mastertracks  pro calvin harris edition,1,no,m,55,r,yes,1,2020-09-07_21h13.50.539,kura-B2,2020.1.2,MacIntel,60,,,,,,,,,,,,,,"[""space"",""space"",""space"",""space"",""space"",""space"",""space"",""space"",""space"",""space"",""space"",""space"",""space"",""space"",""space"",""space"",""space"",""space"",""space"",""space""]","[0.30937999999150634,1.1247699999948964,2.076115000003483,3.064314999966882,4.00541499996325,4.887784999969881,5.663184999953955,6.492909999971744,7.3622099999920465,8.321744999964722,9.163439999974798,10.01032000000123,10.909824999980628,11.8881199999596,12.76163500000257,13.839489999983925,14.74377999996068,15.707679999992251,16.73674999998184,18.775289999961387]",space,0.578935,0.0,9.0,9.0,29.0,1.0,,
,,,,,,,,,,,block_2/medium_n_81_3.wav,no,n,medium,81.0,2.235189468,17.75582439,,,,yes,sol republic mastertracks  pro calvin harris edition,1,no,m,55,r,yes,1,2020-09-07_21h13.50.539,kura-B2,2020.1.2,MacIntel,60,,,,,,,,,,,,,,"[""space"",""space"",""space"",""space"",""space"",""space"",""space"",""space"",""space"",""space"",""space"",""space"",""space"",""space"",""space"",""space"",""space"",""space"",""space"",""space""]","[0.816869999980554,1.4907300000195391,2.189905000035651,3.0207200000295416,3.9202149999910034,4.652204999991227,5.486000000033528,6.247260000032838,7.048060000000987,7.827250000031199,8.624454999982845,9.421069999982137,10.219879999989644,11.065895000007004,11.88897500000894,12.671465000021271,13.516019999980927,14.350540000014007,15.069194999989122,15.81753000000026]",space,0.60358,0.0,10.0,10.0,33.0,1.0,,
,,,,,,,,,,,block_2/medium_n_92_4.wav,no,n,medium,92.0,1.021723279,13.61201806,,,,yes,sol republic mastertracks  pro calvin harris edition,1,no,m,55,r,yes,1,2020-09-07_21h13.50.539,kura-B2,2020.1.2,MacIntel,60,,,,,,,,,,,,,,"[""space"",""space"",""space"",""space"",""space"",""space"",""space"",""space"",""space"",""space"",""space"",""space"",""space"",""space"",""space"",""space"",""space"",""space"",""space"",""space"",""space""]","[0.5087700000149198,1.0088850000174716,1.5787700000219047,2.2185199999948964,2.7730299999821,3.421565000026021,4.1107300000148825,4.728204999992158,5.340649999969173,5.955569999990985,6.578845000010915,7.226384999987204,7.778805000009015,8.443440000002738,9.087575000012293,9.758039999986067,10.308109999983571,10.916665000026114,11.63698499999009,12.289199999999255,12.874494999996386]",space,1.547855,0.0,11.0,11.0,11.0,1.0,,
,,,,,,,,,,,block_2/medium_n_72_3.wav,no,n,medium,72.0,1.994146771,18.06802432,,,,yes,sol republic mastertracks  pro calvin harris edition,1,no,m,55,r,yes,1,2020-09-07_21h13.50.539,kura-B2,2020.1.2,MacIntel,60,,,,,,,,,,,,,,"[""space"",""space"",""space"",""space"",""space"",""space"",""space"",""space"",""space"",""space"",""space"",""space"",""space"",""space"",""space"",""space"",""space"",""space"",""space""]","[0.6316499999957159,1.7181149999960326,2.5138349999906495,3.308725000009872,4.144919999991544,4.979969999985769,5.8345899999840185,6.610415000002831,7.488045000005513,8.286804999981541,9.084649999975227,9.88631999999052,10.769834999984596,11.563054999976885,12.410949999990407,13.219555000017863,14.002975000010338,14.796284999989439,15.70268499996746]",space,0.663995,0.0,12.0,12.0,13.0,1.0,,
,,,,,,,,,,,block_2/strong_n_72_3.wav,no,n,strong,72.0,2.337906276,17.4032124,,,,yes,sol republic mastertracks  pro calvin harris edition,1,no,m,55,r,yes,1,2020-09-07_21h13.50.539,kura-B2,2020.1.2,MacIntel,60,,,,,,,,,,,,,,"[""space"",""space"",""space"",""space"",""space"",""space"",""space"",""space"",""space"",""space"",""space"",""space"",""space"",""space"",""space"",""space"",""space"",""space"",""space"",""space""]","[0.9636600000085309,1.5595299999695271,2.279195000010077,3.1097249999875203,3.9108850000193343,4.639834999979939,5.406804999976885,6.242725000018254,6.990734999999404,7.767084999999497,8.407650000008289,9.267570000025444,10.106154999986757,10.814804999972694,11.493799999996554,12.300615000014659,13.13718499999959,13.909645000007004,14.772434999991674,15.64269000000786]",space,0.805475,0.0,13.0,13.0,32.0,1.0,,
,,,,,,,,,,,block_2/medium_n_105_3.wav,no,n,medium,105.0,2.480661226,14.16274739,,,,yes,sol republic mastertracks  pro calvin harris edition,1,no,m,55,r,yes,1,2020-09-07_21h13.50.539,kura-B2,2020.1.2,MacIntel,60,,,,,,,,,,,,,,"[""space"",""space"",""space"",""space"",""space"",""space"",""space"",""space"",""space"",""space"",""space"",""space"",""space"",""space"",""space"",""space"",""space"",""space"",""space"",""space"",""space"",""space""]","[0.5822600000537932,0.9999050000333227,1.4807150000124238,2.0764300000155345,2.6250400000135414,3.2139050000114366,3.8093900000094436,4.369395000045188,4.944705000030808,5.522860000026412,6.0805850000469945,6.711355000035837,7.274265000014566,7.860625000030268,8.443435000022873,9.063959999999497,9.64196500001708,10.23838000005344,10.795265000022482,11.347770000051241,11.921610000019427,12.572285000002012]",space,0.54357,0.0,14.0,14.0,0.0,1.0,,
,,,,,,,,,,,block_2/medium_n_72_4.wav,no,n,medium,72.0,1.35197092,15.86054235,,,,yes,sol republic mastertracks  pro calvin harris edition,1,no,m,55,r,yes,1,2020-09-07_21h13.50.539,kura-B2,2020.1.2,MacIntel,60,,,,,,,,,,,,,,"[""space"",""space"",""space"",""space"",""space"",""space"",""space"",""space"",""space"",""space"",""space"",""space"",""space"",""space"",""space"",""space"",""space"",""space"",""space"",""space"",""space""]","[0.34331500000553206,0.6894899999606423,1.6076299999840558,2.3124550000065938,3.036729999992531,3.768824999977369,4.546960000006948,5.295125000004191,6.008589999983087,6.728654999984428,7.475719999987632,8.19228999997722,8.921670000010636,9.693789999990258,10.403289999987464,11.174679999996442,11.831469999975525,12.60663499997463,13.2928949999623,14.061040000000503,14.741554999956861]",space,0.654815,0.0,15.0,15.0,7.0,1.0,,
,,,,,,,,,,,block_2/strong_n_119_4.wav,no,n,strong,119.0,2.003027148,12.07137182,,,,yes,sol republic mastertracks  pro calvin harris edition,1,no,m,55,r,yes,1,2020-09-07_21h13.50.539,kura-B2,2020.1.2,MacIntel,60,,,,,,,,,,,,,,"[""space"",""space"",""space"",""space"",""space"",""space"",""space"",""space"",""space"",""space"",""space"",""space"",""space"",""space"",""space"",""space"",""space"",""space"",""space"",""space"",""space"",""space""]","[0.4317849999642931,0.9430149999679998,1.1986749999923632,1.7153749999706633,2.200989999982994,2.6847349999588914,3.183219999948051,3.716664999956265,4.269845000002533,4.766509999986738,5.195874999975786,5.763289999973495,6.24466999998549,6.761964999954216,7.250149999978021,7.800064999959432,8.23393499996746,8.73747499997262,9.28651499998523,9.782879999955185,10.266494999988936,10.944924999959767]",space,0.583785,0.0,16.0,16.0,23.0,1.0,,
,,,,,,,,,,,block_2/medium_n_92_3.wav,no,n,medium,92.0,2.163023573,13.84869251,,,,yes,sol republic mastertracks  pro calvin harris edition,1,no,m,55,r,yes,1,2020-09-07_21h13.50.539,kura-B2,2020.1.2,MacIntel,60,,,,,,,,,,,,,,"[""space"",""space"",""space"",""space"",""space"",""space"",""space"",""space"",""space"",""space"",""space"",""space"",""space"",""space"",""space"",""space"",""space"",""space"",""space"",""space"",""space""]","[0.3645750000141561,0.634989999991376,1.183004999998957,1.6782200000016019,2.241860000009183,2.8225499999825843,3.4155250000185333,4.13060500001302,4.71351999999024,5.344525000022259,5.8847550000064075,6.527204999991227,7.154474999988452,7.785259999975096,8.364520000002813,8.955729999986943,9.565820000017993,10.208779999986291,10.742889999994077,11.346719999972265,11.947909999988042]",space,1.191975,0.0,17.0,17.0,2.0,1.0,,
,,,,,,,,,,,block_2/strong_n_72_4.wav,no,n,strong,72.0,1.689031128,17.05764791,,,,yes,sol republic mastertracks  pro calvin harris edition,1,no,m,55,r,yes,1,2020-09-07_21h13.50.539,kura-B2,2020.1.2,MacIntel,60,,,,,,,,,,,,,,"[""space"",""space"",""space"",""space"",""space"",""space"",""space"",""space"",""space"",""space"",""space"",""space"",""space"",""space"",""space"",""space"",""space"",""space"",""space"",""space"",""space""]","[0.209644999995362,0.8838899999973364,1.3827999999630265,2.312699999951292,3.123449999955483,3.905019999947399,4.664634999993723,5.474664999986999,6.242234999954235,6.994479999993928,7.828249999962281,8.647574999951757,9.39433999999892,10.21379499998875,10.988034999987576,11.79797499999404,12.610969999979716,13.320234999991953,14.126779999991413,14.99068999994779,15.763794999977108]",space,1.10588,0.0,18.0,18.0,35.0,1.0,,
,,,,,,,,,,,block_2/medium_n_119_3.wav,no,n,medium,119.0,2.317779723,12.17918562,,,,yes,sol republic mastertracks  pro calvin harris edition,1,no,m,55,r,yes,1,2020-09-07_21h13.50.539,kura-B2,2020.1.2,MacIntel,60,,,,,,,,,,,,,,"[""space"",""space"",""space"",""space"",""space"",""space"",""space"",""space"",""space"",""space"",""space"",""space"",""space"",""space"",""space"",""space"",""space""]","[0.6577249999972992,1.338835000002291,1.9849050000193529,2.703045000031125,3.309960000042338,3.9433250000001863,4.691259999992326,5.363740000000689,5.965620000031777,6.685205000045244,7.238240000035148,7.772995000006631,8.241024999995716,8.703885000024457,9.162400000030175,9.589230000041425,10.072615000011865]",space,0.453685,0.0,19.0,19.0,22.0,1.0,,
,,,,,,,,,,,block_2/strong_n_92_3.wav,no,n,strong,92.0,1.019287146,13.50967263,,,,yes,sol republic mastertracks  pro calvin harris edition,1,no,m,55,r,yes,1,2020-09-07_21h13.50.539,kura-B2,2020.1.2,MacIntel,60,,,,,,,,,,,,,,"[""space"",""space"",""space"",""space"",""space"",""space"",""space"",""space"",""space"",""space"",""space"",""space"",""space"",""space"",""space"",""space"",""space"",""space"",""space"",""space"",""space""]","[0.3488999999826774,0.9579350000130944,1.4104199999710545,2.0643399999826215,2.717965000018012,3.3280399999930523,3.9421149999834597,4.595065000001341,5.257274999981746,5.83959499996854,6.539315000001807,7.1068450000020675,7.7360200000111945,8.421310000005178,9.026224999979604,9.637965000001714,10.305699999968056,10.886969999992289,11.479255000012927,12.166859999997541,12.784494999970775]",space,0.979975,0.0,20.0,20.0,39.0,1.0,,
,,,,,,,,,,,block_2/medium_n_81_4.wav,no,n,medium,81.0,1.594727623,16.1032537,,,,yes,sol republic mastertracks  pro calvin harris edition,1,no,m,55,r,yes,1,2020-09-07_21h13.50.539,kura-B2,2020.1.2,MacIntel,60,,,,,,,,,,,,,,"[""space"",""space"",""space"",""space"",""space"",""space"",""space"",""space"",""space"",""space"",""space"",""space"",""space"",""space"",""space"",""space"",""space"",""space"",""space"",""space"",""space""]","[0.3274099999689497,0.8432649999740534,1.5124099999666214,2.344424999959301,3.102279999991879,3.8191399999777786,4.548479999997653,5.235454999958165,5.9314099999610335,6.676264999958221,7.430139999953099,8.174439999973401,8.925349999975879,9.6446649999707,10.431125000002794,11.16382999997586,11.847369999974035,12.64850499999011,13.350244999979623,14.065454999974463,14.794364999979734]",space,0.67919,0.0,21.0,21.0,38.0,1.0,,
,,,,,,,,,,,block_2/none_n_72_3.wav,no,n,none,72.0,2.393872505,24.12062987,,,,yes,sol republic mastertracks  pro calvin harris edition,1,no,m,55,r,yes,1,2020-09-07_21h13.50.539,kura-B2,2020.1.2,MacIntel,60,,,,,,,,,,,,,,"[""space"",""space"",""space"",""space"",""space"",""space"",""space"",""space"",""space"",""space"",""space"",""space"",""space"",""space"",""space"",""space"",""space"",""space"",""space"",""space"",""space"",""space"",""space"",""space"",""space"",""space""]","[0.2047749999910593,0.9243600000045262,1.5712349999812432,2.687084999983199,3.77591999998549,4.678185000026133,5.689154999970924,6.589139999996405,7.803725000005215,8.55719500000123,9.291659999988042,10.121849999995902,10.919125000014901,11.560645000019576,12.405759999994189,13.132314999995288,13.957345000002533,14.775870000012219,15.723835000011604,16.555140000011306,17.4830850000144,18.38929999998072,19.219344999990426,20.156004999997094,20.889145000022836,21.645770000002813]",space,0.027265,0.0,22.0,22.0,18.0,1.0,,
,,,,,,,,,,,block_2/weak_n_81_4.wav,no,n,weak,81.0,1.139338257,16.19847658,,,,yes,sol republic mastertracks  pro calvin harris edition,1,no,m,55,r,yes,1,2020-09-07_21h13.50.539,kura-B2,2020.1.2,MacIntel,60,,,,,,,,,,,,,,"[""space"",""space"",""space"",""space"",""space"",""space"",""space"",""space"",""space"",""space"",""space"",""space"",""space"",""space"",""space"",""space"",""space"",""space"",""space"",""space""]","[0.5624200000311248,1.1635600000154227,1.8859450000454672,2.692410000017844,3.476555000001099,4.192465000029188,5.006660000013653,5.939720000023954,6.726225000049453,7.621000000042841,8.358695000002626,9.176430000050459,10.039950000005774,10.736919999995735,11.581240000028629,12.254899999999907,13.037490000016987,13.819760000042152,14.590895000030287,15.294300000008661]",space,0.014225,0.0,23.0,23.0,36.0,1.0,,
,,,,,,,,,,,block_2/none_n_92_3.wav,no,n,none,92.0,2.008897919,17.90894327,,,,yes,sol republic mastertracks  pro calvin harris edition,1,no,m,55,r,yes,1,2020-09-07_21h13.50.539,kura-B2,2020.1.2,MacIntel,60,,,,,,,,,,,,,,"[""space"",""space"",""space"",""space"",""space"",""space"",""space"",""space"",""space"",""space"",""space"",""space"",""space"",""space"",""space"",""space"",""space"",""space"",""space"",""space"",""space""]","[0.5568949999869801,1.4296299999696203,2.325009999971371,3.1019049999886192,4.017594999982975,4.6883449999731965,5.406024999974761,5.990029999986291,6.743209999985993,7.6395250000059605,8.589014999975916,9.371645000006538,10.119865000015125,10.860909999988507,11.593055000004824,12.30647000001045,13.056884999969043,13.82186999998521,14.635925000009593,15.42558999999892,16.103614999970887]",space,0.56107,0.0,24.0,24.0,25.0,1.0,,
,,,,,,,,,,,block_2/strong_n_105_4.wav,no,n,strong,105.0,1.723608797,13.55862014,,,,yes,sol republic mastertracks  pro calvin harris edition,1,no,m,55,r,yes,1,2020-09-07_21h13.50.539,kura-B2,2020.1.2,MacIntel,60,,,,,,,,,,,,,,"[""space"",""space"",""space"",""space"",""space"",""space"",""space"",""space"",""space"",""space"",""space"",""space"",""space"",""space"",""space"",""space"",""space"",""space"",""space"",""space""]","[0.7355600000009872,1.3708550000446849,1.9444150000344962,2.578395000018645,3.177185000036843,3.7869050000444986,4.314165000047069,4.9526199999963865,5.527990000031423,6.145380000001751,6.747094999998808,7.334384999994654,7.940920000022743,8.552750000031665,9.111445000045933,9.778500000014901,10.34033500001533,10.954645000048913,11.535900000017136,12.11893500003498]",space,0.899495,0.0,25.0,25.0,3.0,1.0,,
,,,,,,,,,,,block_2/none_n_119_3.wav,no,n,none,119.0,1.37370001,14.3364211,,,,yes,sol republic mastertracks  pro calvin harris edition,1,no,m,55,r,yes,1,2020-09-07_21h13.50.539,kura-B2,2020.1.2,MacIntel,60,,,,,,,,,,,,,,"[""space"",""space"",""space"",""space"",""space"",""space"",""space"",""space"",""space"",""space"",""space"",""space"",""space"",""space"",""space"",""space"",""space"",""space""]","[0.7444999999715947,1.7437749999808148,2.658694999990985,2.869079999974929,3.4770999999600463,4.331334999995306,5.06267499999376,5.941504999995232,6.413254999963101,7.320535000006203,7.823789999994915,8.641405000002123,9.258609999960754,10.12931499996921,10.91751999995904,11.712499999965075,12.510249999992084,13.263080000004265]",space,0.42449,0.0,26.0,26.0,24.0,1.0,,
,,,,,,,,,,,block_2/weak_n_119_3.wav,no,n,weak,119.0,1.689359171,10.04573105,,,,yes,sol republic mastertracks  pro calvin harris edition,1,no,m,55,r,yes,1,2020-09-07_21h13.50.539,kura-B2,2020.1.2,MacIntel,60,,,,,,,,,,,,,,"[""space"",""space"",""space"",""space"",""space"",""space"",""space"",""space"",""space"",""space"",""space"",""space"",""space"",""space"",""space"",""space"",""space"",""space"",""space""]","[0.2895950000383891,0.9100750000216067,1.5437300000339746,2.031970000010915,2.456010000023525,2.875260000000708,3.3391849999898113,3.8032550000352785,4.202495000034105,4.620395000034478,5.071540000033565,5.485845000017434,5.925099999993108,6.322080000012647,6.755170000018552,7.221045000012964,7.657464999996591,8.07588499999838,8.526305000006687]",space,0.3499,0.0,27.0,27.0,37.0,1.0,,
,,,,,,,,,,,block_2/weak_n_119_4.wav,no,n,weak,119.0,1.653391966,12.42708811,,,,yes,sol republic mastertracks  pro calvin harris edition,1,no,m,55,r,yes,1,2020-09-07_21h13.50.539,kura-B2,2020.1.2,MacIntel,60,,,,,,,,,,,,,,"[""space"",""space"",""space"",""space"",""space"",""space"",""space"",""space"",""space"",""space"",""space"",""space"",""space"",""space"",""space"",""space"",""space"",""space"",""space"",""space"",""space""]","[0.2611349999788217,0.7785750000039116,1.3664499999722466,1.8490149999852292,2.36343999998644,3.2361800000071526,3.9959049999597482,4.55058999999892,5.245025000011083,5.774059999966994,6.244989999977406,6.909444999997504,7.332185000006575,7.862350000010338,8.262355000013486,8.41761000000406,8.879534999956377,9.42999500001315,9.934895000013057,10.463560000003781,11.022705000010319]",space,0.377235,0.0,28.0,28.0,31.0,1.0,,
,,,,,,,,,,,block_2/none_n_92_4.wav,no,n,none,92.0,2.009431863,15.90199422,,,,yes,sol republic mastertracks  pro calvin harris edition,1,no,m,55,r,yes,1,2020-09-07_21h13.50.539,kura-B2,2020.1.2,MacIntel,60,,,,,,,,,,,,,,"[""space"",""space"",""space"",""space"",""space"",""space"",""space"",""space"",""space"",""space"",""space"",""space"",""space"",""space"",""space"",""space"",""space"",""space"",""space""]","[0.3167700000340119,0.6761700000497513,1.4214150000480004,2.1399350000428967,2.8746150000370108,3.5790750000160187,4.309795000008307,5.100925000035204,5.809000000008382,6.540390000038315,7.433530000038445,8.408745000022464,9.18552500003716,10.02519499999471,10.756735000002664,11.599915000027977,12.501180000021122,13.210164999996778,14.076640000042971]",space,0.455275,0.0,29.0,29.0,19.0,1.0,,
,,,,,,,,,,,block_2/none_n_105_4.wav,no,n,none,105.0,1.256367297,16.73296594,,,,yes,sol republic mastertracks  pro calvin harris edition,1,no,m,55,r,yes,1,2020-09-07_21h13.50.539,kura-B2,2020.1.2,MacIntel,60,,,,,,,,,,,,,,"[""space"",""space"",""space"",""space"",""space"",""space"",""space"",""space"",""space"",""space"",""space"",""space"",""space"",""space"",""space"",""space"",""space"",""space"",""space"",""space"",""space"",""space"",""space""]","[0.332494999980554,1.0447949999943376,1.5474399999948218,2.0842500000144355,2.6610450000152923,3.1822699999902397,3.753649999969639,4.411569999996573,4.960789999982808,5.709655000013299,6.496869999973569,7.344624999968801,7.949810000020079,8.66055500000948,9.32110499998089,9.978209999972023,10.679049999976996,11.302744999993593,12.032859999977518,12.779979999992065,13.530124999990221,14.369614999974146,15.216260000015609]",space,0.734995,0.0,30.0,30.0,14.0,1.0,,
,,,,,,,,,,,block_2/strong_n_119_3.wav,no,n,strong,119.0,2.299979207,12.06555744,,,,yes,sol republic mastertracks  pro calvin harris edition,1,no,m,55,r,yes,1,2020-09-07_21h13.50.539,kura-B2,2020.1.2,MacIntel,60,,,,,,,,,,,,,,"[""space"",""space"",""space"",""space"",""space"",""space"",""space"",""space"",""space"",""space"",""space"",""space"",""space"",""space"",""space"",""space"",""space"",""space"",""space"",""space"",""space"",""space""]","[0.4923549999948591,0.9167250000173226,1.2604999999748543,1.7114600000204518,2.21441000001505,2.6817799999844283,3.20068499998888,3.6857549999840558,4.129695000010543,4.676964999991469,5.137150000024121,5.642044999985956,6.113855000003241,6.6130600000033155,7.08228999999119,7.580904999980703,8.097275000007357,8.5458000000217,9.048264999990351,9.51425000000745,9.998194999992847,11.401705000025686]",space,0.551945,0.0,31.0,31.0,16.0,1.0,,
,,,,,,,,,,,block_2/weak_n_92_3.wav,no,n,weak,92.0,2.16711471,14.91038002,,,,yes,sol republic mastertracks  pro calvin harris edition,1,no,m,55,r,yes,1,2020-09-07_21h13.50.539,kura-B2,2020.1.2,MacIntel,60,,,,,,,,,,,,,,"[""space"",""space"",""space"",""space"",""space"",""space"",""space"",""space"",""space"",""space"",""space"",""space"",""space"",""space"",""space"",""space"",""space"",""space"",""space"",""space""]","[0.6334950000164099,1.31962999998359,2.007374999986496,2.7299999999813735,3.3512749999645166,3.9977300000027753,4.549144999997225,5.264834999979939,5.901109999977052,6.569940000015777,7.200305000005756,7.849645000009332,8.480674999998882,9.153920000011567,9.820089999993797,10.412704999966081,11.069094999984372,11.681404999981169,12.36360500002047,13.010375000012573]",space,0.60925,0.0,32.0,32.0,5.0,1.0,,
,,,,,,,,,,,block_2/weak_n_92_4.wav,no,n,weak,92.0,2.26710089,14.35326869,,,,yes,sol republic mastertracks  pro calvin harris edition,1,no,m,55,r,yes,1,2020-09-07_21h13.50.539,kura-B2,2020.1.2,MacIntel,60,,,,,,,,,,,,,,"[""space"",""space"",""space"",""space"",""space"",""space"",""space"",""space"",""space"",""space"",""space"",""space"",""space"",""space"",""space"",""space"",""space"",""space"",""space"",""space"",""space""]","[0.30857499997364357,0.7965650000260212,1.4829199999803677,2.0821649999707006,2.6741299999994226,3.2697599999955855,3.900099999969825,4.4733199999900535,5.01762499997858,5.776390000013635,6.351275000022724,6.848754999984521,7.502105000021402,8.097405000007711,8.682740000018384,9.366214999987278,9.906595000007655,10.469240000005811,11.134090000006836,11.754420000012033,12.325644999975339]",space,0.6512,0.0,33.0,33.0,15.0,1.0,,
,,,,,,,,,,,block_2/strong_n_81_4.wav,no,n,strong,81.0,1.736263272,17.70810001,,,,yes,sol republic mastertracks  pro calvin harris edition,1,no,m,55,r,yes,1,2020-09-07_21h13.50.539,kura-B2,2020.1.2,MacIntel,60,,,,,,,,,,,,,,"[""space"",""space"",""space"",""space"",""space"",""space"",""space"",""space"",""space"",""space"",""space"",""space"",""space"",""space"",""space"",""space"",""space"",""space"",""space"",""space"",""space"",""space""]","[0.3486949999933131,0.8262600000016391,1.7494149999693036,2.5812300000106916,3.4792599999927916,4.245034999970812,5.055905000015628,5.832980000006501,6.555129999993369,7.478439999977127,8.331554999982473,9.06197500001872,9.8302150000236,10.679780000005849,11.511215000005905,12.298309999983758,13.045670000021346,13.916640000010375,14.680539999972098,15.519484999997076,16.314475000021048,17.197515000007115]",space,0.59661,0.0,34.0,34.0,1.0,1.0,,
,,,,,,,,,,,block_2/none_n_105_3.wav,no,n,none,105.0,1.200203838,13.86165508,,,,yes,sol republic mastertracks  pro calvin harris edition,1,no,m,55,r,yes,1,2020-09-07_21h13.50.539,kura-B2,2020.1.2,MacIntel,60,,,,,,,,,,,,,,"[""space"",""space"",""space"",""space"",""space"",""space"",""space"",""space"",""space"",""space"",""space"",""space"",""space"",""space"",""space"",""space"",""space"",""space"",""space"",""space"",""space""]","[0.5854599999729544,1.1665899999788962,1.8312300000106916,2.562404999975115,3.21802500000922,3.416540000005625,3.563719999976456,4.273125000006985,5.037550000008196,5.807105000014417,6.319275000016205,6.920189999975264,7.657134999986738,8.347394999989774,8.825799999991432,9.482169999973848,10.1965949999867,10.864944999979343,11.582959999970626,12.334335000021383,12.948834999988321]",space,0.78433,0.0,35.0,35.0,6.0,1.0,,
,,,,,,,,,,,block_2/strong_n_81_3.wav,no,n,strong,81.0,2.384474622,16.38941793,,,,yes,sol republic mastertracks  pro calvin harris edition,1,no,m,55,r,yes,1,2020-09-07_21h13.50.539,kura-B2,2020.1.2,MacIntel,60,,,,,,,,,,,,,,"[""space"",""space"",""space"",""space"",""space"",""space"",""space"",""space"",""space"",""space"",""space"",""space"",""space"",""space"",""space"",""space"",""space"",""space"",""space"",""space"",""space""]","[0.6965450000134297,1.4598750000004657,2.2320700000273064,2.891460000013467,3.6389649999910034,4.36390500003472,5.078704999992624,5.799720000009984,6.562239999999292,7.183590000029653,7.882465000031516,8.669865000003483,9.34828999999445,10.00769500003662,10.785525000013877,11.76325000001816,12.145895000023302,12.922220000007655,13.677309999999125,14.36477000004379,15.314775000035297]",space,0.520515,0.0,36.0,36.0,10.0,1.0,,
,,,,,,,,,,,block_2/strong_n_105_3.wav,no,n,strong,105.0,2.095458379,13.32602527,,,,yes,sol republic mastertracks  pro calvin harris edition,1,no,m,55,r,yes,1,2020-09-07_21h13.50.539,kura-B2,2020.1.2,MacIntel,60,,,,,,,,,,,,,,"[""space"",""space"",""space"",""space"",""space"",""space"",""space"",""space"",""space"",""space"",""space"",""space"",""space"",""space"",""space"",""space"",""space"",""space"",""space"",""space"",""space""]","[0.22411000001011416,0.7616500000003725,1.1698600000236183,1.7173499999917112,2.301774999999907,2.9254499999806285,3.4708600000012666,4.025930000003427,4.6569950000266545,5.186694999982137,5.779365000023972,6.322589999996126,6.929739999992307,7.456735000014305,8.046860000002198,8.58961000002455,9.14643000002252,9.770910000021104,10.316259999992326,10.925185000000056,11.510584999981802]",space,0.691255,0.0,37.0,37.0,9.0,1.0,,
,,,,,,,,,,,block_2/strong_n_92_4.wav,no,n,strong,92.0,1.480736093,15.18463632,,,,yes,sol republic mastertracks  pro calvin harris edition,1,no,m,55,r,yes,1,2020-09-07_21h13.50.539,kura-B2,2020.1.2,MacIntel,60,,,,,,,,,,,,,,"[""space"",""space"",""space"",""space"",""space"",""space"",""space"",""space"",""space"",""space"",""space"",""space"",""space"",""space"",""space"",""space"",""space"",""space"",""space"",""space""]","[0.8135899999761023,1.2558399999979883,1.967404999944847,2.683839999954216,3.4813299999805167,4.183544999978039,4.894459999981336,5.62742499995511,6.2333249999792315,6.974729999958072,7.73255999997491,8.399419999972451,9.133124999993015,9.838334999978542,10.533589999948163,11.247039999987464,11.945045000000391,12.70078499999363,13.381099999998696,14.027264999982435]",space,1.352385,0.0,38.0,38.0,34.0,1.0,,
,,,,,,,,,,,block_2/none_n_72_4.wav,no,n,none,72.0,1.743803892,24.48607147,,,,yes,sol republic mastertracks  pro calvin harris edition,1,no,m,55,r,yes,1,2020-09-07_21h13.50.539,kura-B2,2020.1.2,MacIntel,60,,,,,,,,,,,,,,"[""space"",""space"",""space"",""space"",""space"",""space"",""space"",""space"",""space"",""space"",""space"",""space"",""space"",""space"",""space"",""space"",""space"",""space"",""space"",""space"",""space"",""space"",""space"",""space"",""space"",""space"",""space"",""space"",""space"",""space""]","[0.3836750000482425,0.9802350000245497,1.7656200000201352,2.463045000040438,3.2458650000044145,4.031925000017509,4.870355000020936,5.784560000000056,6.514230000029784,7.280320000019856,7.998410000000149,8.848415000014938,9.548725000000559,10.348870000045281,11.057250000012573,11.801090000022668,12.631270000012591,13.351295000000391,14.229865000001155,15.051350000023376,15.952035000023898,16.815295000036713,17.63682500005234,18.437750000040978,19.237945000000764,20.05440500000259,20.730440000013914,21.53274000005331,22.345970000023954,23.03276500001084]",space,0.568465,0.0,39.0,39.0,21.0,1.0,,
,,,,,,,,,,,,,,,,,,,,,yes,sol republic mastertracks  pro calvin harris edition,1,no,m,55,r,yes,1,2020-09-07_21h13.50.539,kura-B2,2020.1.2,MacIntel,60,,,,,,,,,,,,,,,,,,,,,,,space,19.297855
