key_resp.keys,key_resp.rt,practice_taps.keys,practice_taps.rt,keyresp.keys,keyresp.rt,practice_stims_loop.thisRepN,practice_stims_loop.thisTrialN,practice_stims_loop.thisN,practice_stims_loop.thisIndex,practice_stims_loop.ran,sndfile,type,tempo,cond,version,delay,dur,Participant Initials,"If you are a MTurk worker, what is your MTurk worker ID?","If you are not an MTurk worker, please provide your email address",Are you wearing headphones?,What are the headphone make and model?,"How many years of musical training, if any, do you have?",Do you have any hearing problems? Please describe,What is your sex (f/m/decline)?,What is your age?,What is your handedness (R/L/ambi)?,Are you currently in a secure and quiet room without a possible interruption?,session ,date,expName,psychopyVersion,OS,frameRate,instructions_prompt.keys,instructions_prompt.rt,block1_taps.keys,block1_taps.rt,key_resp_2.keys,key_resp_2.rt,trials.thisRepN,trials.thisTrialN,trials.thisN,trials.thisIndex,trials.ran,key_resp2.keys,key_resp2.rt,block2_taps.keys,block2_taps.rt,key_resp_3.keys,key_resp_3.rt,trials_2.thisRepN,trials_2.thisTrialN,trials_2.thisN,trials_2.thisIndex,trials_2.ran,key_resp_4.keys,key_resp_4.rt
space,2.733,"[""space"",""space"",""space"",""space"",""space"",""space"",""space"",""space"",""space""]","[1.5020000000000095,2.399000000000001,3.186000000000007,4.138000000000005,4.930000000000007,5.875,6.734000000000009,7.703000000000003,8.584000000000003]",space,0.945,0.0,0.0,0.0,1.0,1.0,block_2/medium_n_119_4.wav,no,n,medium,119.0,1.224634286,9.531709116,,,,yes,Bose SoundLink,18,No,m,27,R,yes,1,2020-09-25_19h37.04.527,kura-B2,2020.1.2,Win32,60,,,,,,,,,,,,,,,,,,,,,,,,
,,"[""space"",""space"",""space"",""space"",""space"",""space"",""space"",""space"",""space"",""space""]","[1.0229999999999961,1.907999999999987,3.6759999999999877,4.828999999999979,5.7879999999999825,6.822000000000003,7.885999999999996,9.025999999999982,10.054999999999978,11.07899999999998]",space,1.021,0.0,1.0,1.0,2.0,1.0,block_2/weak_n_105_4.wav,no,n,weak,105.0,1.982674472,12.75578105,,,,yes,Bose SoundLink,18,No,m,27,R,yes,1,2020-09-25_19h37.04.527,kura-B2,2020.1.2,Win32,60,,,,,,,,,,,,,,,,,,,,,,,,
,,"[""space"",""space"",""space"",""space"",""space"",""space"",""space"",""space"",""space"",""space""]","[1.0180000000000007,1.9020000000000152,2.9170000000000016,3.920000000000016,4.8870000000000005,5.88300000000001,6.925000000000011,7.923000000000002,9.068000000000012,10.100000000000023]",space,0.852,0.0,2.0,2.0,3.0,1.0,block_1/medium_t_119_4.wav,timbre,t,medium,119.0,1.752316959,11.57313329,,,,yes,Bose SoundLink,18,No,m,27,R,yes,1,2020-09-25_19h37.04.527,kura-B2,2020.1.2,Win32,60,,,,,,,,,,,,,,,,,,,,,,,,
,,"[""space"",""space"",""space"",""space"",""space"",""space"",""space"",""space"",""space"",""space"",""space"",""space"",""space"",""space"",""space"",""space"",""space""]","[1.0229999999999961,1.8910000000000196,2.9579999999999984,3.842000000000013,4.473000000000013,5.501000000000005,6.301000000000016,7.195000000000022,8.109000000000009,9.039999999999992,9.939999999999998,10.806000000000012,11.700999999999993,12.677999999999997,13.49799999999999,14.323000000000008,15.37700000000001]",space,0.581,0.0,3.0,3.0,0.0,1.0,block_2/none_n_92_3.wav,no,n,none,92.0,2.306164339,18.20620969,,,,yes,Bose SoundLink,18,No,m,27,R,yes,1,2020-09-25_19h37.04.527,kura-B2,2020.1.2,Win32,60,,,,,,,,,,,,,,,,,,,,,,,,
,,,,,,,,,,,block_1/weak_t_119_4.wav,timbre,t,weak,119.0,1.438381355,12.04736095,,,,yes,Bose SoundLink,18,No,m,27,R,yes,1,2020-09-25_19h37.04.527,kura-B2,2020.1.2,Win32,60,space,3.564,"[""space"",""space"",""space"",""space"",""space"",""space"",""space"",""space"",""space"",""space""]","[1.056999999999988,1.9950000000000045,2.9989999999999952,4.049000000000007,5.2620000000000005,6.294000000000011,7.527999999999992,8.512,9.542000000000002,10.504999999999995]",space,0.631,0.0,0.0,0.0,11.0,1.0,,,,,,,,,,,,,
,,,,,,,,,,,block_1/none_t_81_4.wav,timbre,t,none,81.0,1.802900323,17.84380735,,,,yes,Bose SoundLink,18,No,m,27,R,yes,1,2020-09-25_19h37.04.527,kura-B2,2020.1.2,Win32,60,,,"[""space"",""space"",""space"",""space"",""space"",""space"",""space"",""space"",""space"",""space"",""space"",""space"",""space"",""space"",""space""]","[0.3269999999999982,1.342000000000013,2.4150000000000205,3.487000000000023,4.686000000000007,5.918000000000006,7.058000000000021,8.179000000000002,9.309000000000026,10.359000000000009,11.469000000000023,12.52200000000002,13.710000000000008,14.953000000000003,16.15900000000002]",space,0.514,0.0,1.0,1.0,12.0,1.0,,,,,,,,,,,,,
,,,,,,,,,,,block_1/weak_t_92_3.wav,timbre,t,weak,92.0,1.190820523,16.55263458,,,,yes,Bose SoundLink,18,No,m,27,R,yes,1,2020-09-25_19h37.04.527,kura-B2,2020.1.2,Win32,60,,,"[""space"",""space"",""space"",""space"",""space"",""space"",""space"",""space"",""space"",""space"",""space"",""space"",""space"",""space"",""space"",""space"",""space"",""space"",""space"",""space""]","[0.4399999999999977,1.0879999999999939,1.775999999999982,2.530000000000001,3.3319999999999936,4.1229999999999905,4.913999999999987,5.828999999999979,6.661000000000001,7.509999999999991,8.22999999999999,9.016999999999996,9.658999999999992,10.45999999999998,11.299999999999983,12.040999999999997,12.86499999999998,13.668999999999983,14.369,15.163999999999987]",space,0.266,0.0,2.0,2.0,38.0,1.0,,,,,,,,,,,,,
,,,,,,,,,,,block_1/weak_t_105_4.wav,timbre,t,weak,105.0,1.882880114,13.41285744,,,,yes,Bose SoundLink,18,No,m,27,R,yes,1,2020-09-25_19h37.04.527,kura-B2,2020.1.2,Win32,60,,,"[""space"",""space"",""space"",""space"",""space"",""space"",""space"",""space"",""space"",""space"",""space""]","[0.4230000000000018,1.2839999999999918,2.734999999999985,3.7239999999999895,4.790999999999997,5.953000000000003,7.103999999999985,8.274000000000001,9.319999999999993,10.586999999999989,11.764999999999986]",space,0.391,0.0,3.0,3.0,7.0,1.0,,,,,,,,,,,,,
,,,,,,,,,,,block_1/medium_t_92_4.wav,timbre,t,medium,92.0,1.590939721,14.58753836,,,,yes,Bose SoundLink,18,No,m,27,R,yes,1,2020-09-25_19h37.04.527,kura-B2,2020.1.2,Win32,60,,,"[""space"",""space"",""space"",""space"",""space"",""space"",""space"",""space"",""space"",""space"",""space"",""space"",""space"",""space"",""space"",""space"",""space"",""space"",""space""]","[0.31799999999998363,1.2860000000000014,2.2179999999999893,2.836999999999989,3.4609999999999843,4.1229999999999905,4.817999999999984,5.453000000000003,6.1370000000000005,6.806999999999988,7.536999999999978,8.114000000000004,8.807999999999993,9.488,10.11099999999999,10.771999999999991,11.435000000000002,12.121999999999986,12.816999999999979]",space,0.452,0.0,4.0,4.0,25.0,1.0,,,,,,,,,,,,,
,,,,,,,,,,,block_1/medium_t_119_4.wav,timbre,t,medium,119.0,1.399295551,11.22011188,,,,yes,Bose SoundLink,18,No,m,27,R,yes,1,2020-09-25_19h37.04.527,kura-B2,2020.1.2,Win32,60,,,"[""space"",""space"",""space"",""space"",""space"",""space"",""space"",""space"",""space"",""space"",""space""]","[0.3739999999999952,0.9680000000000177,1.913000000000011,2.7990000000000066,3.926000000000016,4.858000000000004,5.919000000000011,6.888000000000005,7.921999999999997,9.098000000000013,10.064000000000021]",space,0.267,0.0,5.0,5.0,30.0,1.0,,,,,,,,,,,,,
,,,,,,,,,,,block_1/weak_t_72_3.wav,timbre,t,weak,72.0,1.571303333,17.03996546,,,,yes,Bose SoundLink,18,No,m,27,R,yes,1,2020-09-25_19h37.04.527,kura-B2,2020.1.2,Win32,60,,,"[""space"",""space"",""space"",""space"",""space"",""space"",""space"",""space"",""space"",""space"",""space"",""space"",""space"",""space"",""space"",""space"",""space"",""space"",""space"",""space""]","[0.4399999999999977,1.1940000000000168,1.5910000000000082,2.4920000000000186,3.27200000000002,4.078000000000003,4.778999999999996,5.574000000000012,6.38300000000001,7.13900000000001,7.931000000000012,8.704000000000008,9.540999999999997,10.313000000000017,11.136000000000024,11.939999999999998,12.749000000000024,13.498000000000019,14.368000000000023,15.139999999999986]",space,0.698,0.0,6.0,6.0,26.0,1.0,,,,,,,,,,,,,
,,,,,,,,,,,block_1/none_t_92_3.wav,timbre,t,none,92.0,1.813425609,13.88349364,,,,yes,Bose SoundLink,18,No,m,27,R,yes,1,2020-09-25_19h37.04.527,kura-B2,2020.1.2,Win32,60,,,"[""space"",""space"",""space"",""space"",""space"",""space"",""space"",""space"",""space"",""space"",""space"",""space"",""space"",""space"",""space""]","[0.367999999999995,1.1709999999999923,2.562000000000012,3.992999999999995,4.7900000000000205,5.465000000000032,6.203000000000031,6.965000000000032,7.723000000000013,8.427000000000021,9.063000000000045,9.74799999999999,10.430000000000007,11.161000000000001,11.887]",space,0.288,0.0,7.0,7.0,17.0,1.0,,,,,,,,,,,,,
,,,,,,,,,,,block_1/weak_t_119_3.wav,timbre,t,weak,119.0,1.729530605,11.14109523,,,,yes,Bose SoundLink,18,No,m,27,R,yes,1,2020-09-25_19h37.04.527,kura-B2,2020.1.2,Win32,60,,,"[""space"",""space"",""space"",""space"",""space"",""space"",""space"",""space""]","[0.41800000000000637,1.1000000000000227,2.4020000000000437,3.5710000000000264,4.805000000000007,6.035000000000025,7.307000000000016,8.730999999999995]",space,0.415,0.0,8.0,8.0,13.0,1.0,,,,,,,,,,,,,
,,,,,,,,,,,block_1/none_t_105_3.wav,timbre,t,none,105.0,2.248615294,16.06934092,,,,yes,Bose SoundLink,18,No,m,27,R,yes,1,2020-09-25_19h37.04.527,kura-B2,2020.1.2,Win32,60,,,"[""space"",""space"",""space"",""space"",""space"",""space"",""space"",""space"",""space"",""space""]","[0.05600000000004002,1.4440000000000168,2.7139999999999986,4.180000000000007,5.875,7.338999999999999,8.689000000000021,10.436000000000035,11.910000000000025,13.379999999999995]",space,0.252,0.0,9.0,9.0,14.0,1.0,,,,,,,,,,,,,
,,,,,,,,,,,block_1/medium_t_72_3.wav,timbre,t,medium,72.0,2.203768917,18.98399567,,,,yes,Bose SoundLink,18,No,m,27,R,yes,1,2020-09-25_19h37.04.527,kura-B2,2020.1.2,Win32,60,,,"[""space"",""space"",""space"",""space"",""space"",""space"",""space"",""space"",""space"",""space"",""space"",""space"",""space"",""space"",""space"",""space"",""space"",""space"",""space"",""space""]","[0.2839999999999918,0.9600000000000364,1.6860000000000355,2.465000000000032,3.459000000000003,4.295000000000016,5.165999999999997,5.996000000000038,6.9010000000000105,7.740000000000009,8.608000000000004,9.427999999999997,10.38900000000001,11.203000000000031,12.072000000000003,12.88900000000001,13.788999999999987,14.624000000000024,15.550000000000011,16.439999999999998]",space,0.423,0.0,10.0,10.0,31.0,1.0,,,,,,,,,,,,,
,,,,,,,,,,,block_1/none_t_72_4.wav,timbre,t,none,72.0,1.772355542,25.47190203,,,,yes,Bose SoundLink,18,No,m,27,R,yes,1,2020-09-25_19h37.04.527,kura-B2,2020.1.2,Win32,60,,,"[""space"",""space"",""space"",""space"",""space"",""space"",""space"",""space"",""space"",""space"",""space"",""space"",""space"",""space"",""space"",""space"",""space"",""space"",""space"",""space"",""space""]","[0.3790000000000191,1.3519999999999754,2.5860000000000127,3.576000000000022,4.600999999999999,5.805999999999983,6.975999999999999,8.189999999999998,9.413000000000011,10.793000000000006,12.000999999999976,13.09899999999999,14.273000000000025,15.631000000000029,16.88499999999999,18.141999999999996,19.357000000000028,20.492999999999995,21.80400000000003,23.035000000000025,24.906999999999982]",space,2.591,0.0,11.0,11.0,15.0,1.0,,,,,,,,,,,,,
,,,,,,,,,,,block_1/strong_t_119_4.wav,timbre,t,strong,119.0,1.237037075,11.10492823,,,,yes,Bose SoundLink,18,No,m,27,R,yes,1,2020-09-25_19h37.04.527,kura-B2,2020.1.2,Win32,60,,,"[""space"",""space"",""space"",""space"",""space"",""space"",""space"",""space"",""space"",""space"",""space"",""space"",""space"",""space"",""space"",""space"",""space"",""space"",""space""]","[1.0550000000000068,1.5989999999999895,2.1259999999999764,2.6200000000000045,3.1329999999999814,3.61099999999999,4.137999999999977,4.625,5.135999999999967,5.633999999999958,6.144999999999982,6.633999999999958,7.132000000000005,7.637999999999977,8.169999999999959,8.625999999999976,9.159999999999968,9.70999999999998,10.187999999999988]",space,0.496,0.0,12.0,12.0,39.0,1.0,,,,,,,,,,,,,
,,,,,,,,,,,block_1/weak_t_81_4.wav,timbre,t,weak,81.0,2.31768599,15.5134683,,,,yes,Bose SoundLink,18,No,m,27,R,yes,1,2020-09-25_19h37.04.527,kura-B2,2020.1.2,Win32,60,,,"[""space"",""space"",""space"",""space"",""space"",""space"",""space"",""space"",""space"",""space"",""space"",""space"",""space"",""space"",""space"",""space"",""space"",""space"",""space"",""space"",""space""]","[0.9759999999999991,1.728999999999985,2.3589999999999804,2.9659999999999513,3.5679999999999836,4.282999999999959,4.97199999999998,5.6089999999999804,6.282999999999959,6.928999999999974,7.572999999999979,8.324999999999989,8.956999999999994,9.625,10.267999999999972,11.033999999999992,11.699999999999989,12.373999999999967,13.009999999999991,14.972999999999956,15.396999999999991]",space,0.413,0.0,13.0,13.0,0.0,1.0,,,,,,,,,,,,,
,,,,,,,,,,,block_1/none_t_92_4.wav,timbre,t,none,92.0,2.400883628,17.24192671,,,,yes,Bose SoundLink,18,No,m,27,R,yes,1,2020-09-25_19h37.04.527,kura-B2,2020.1.2,Win32,60,,,"[""space"",""space"",""space"",""space"",""space"",""space"",""space"",""space"",""space"",""space"",""space"",""space"",""space"",""space"",""space"",""space"",""space"",""space"",""space"",""space""]","[0.34600000000000364,0.9460000000000264,1.5790000000000077,2.4499999999999886,3.244000000000028,3.9359999999999786,4.613999999999976,5.3910000000000196,6.165999999999997,6.9950000000000045,7.867999999999995,8.72399999999999,9.488,10.271000000000015,11.050000000000011,11.877999999999986,12.613999999999976,13.355000000000018,14.144999999999982,14.913000000000011]",space,0.457,0.0,14.0,14.0,22.0,1.0,,,,,,,,,,,,,
,,,,,,,,,,,block_1/weak_t_92_4.wav,timbre,t,weak,92.0,1.530875014,13.01332399,,,,yes,Bose SoundLink,18,No,m,27,R,yes,1,2020-09-25_19h37.04.527,kura-B2,2020.1.2,Win32,60,,,"[""space"",""space"",""space"",""space"",""space"",""space"",""space"",""space"",""space"",""space"",""space"",""space"",""space"",""space"",""space"",""space"",""space"",""space"",""space"",""space""]","[0.4340000000000259,0.799000000000035,1.5,1.992999999999995,2.5149999999999864,3.066000000000031,3.5989999999999895,4.189999999999998,4.785000000000025,5.375,5.937999999999988,6.555999999999983,7.119000000000028,7.757000000000005,8.299000000000035,8.829000000000008,9.394000000000005,10.009000000000015,10.626000000000033,11.281000000000006]",space,0.968,0.0,15.0,15.0,29.0,1.0,,,,,,,,,,,,,
,,,,,,,,,,,block_1/strong_t_81_3.wav,timbre,t,strong,81.0,2.437587677,17.65296183,,,,yes,Bose SoundLink,18,No,m,27,R,yes,1,2020-09-25_19h37.04.527,kura-B2,2020.1.2,Win32,60,,,"[""space"",""space"",""space"",""space"",""space"",""space"",""space"",""space"",""space"",""space"",""space"",""space"",""space"",""space"",""space"",""space"",""space"",""space"",""space"",""space"",""space""]","[0.521000000000015,0.896000000000015,1.7339999999999804,2.473000000000013,3.3100000000000023,4.086000000000013,4.738999999999976,5.543000000000006,6.362000000000023,7.1340000000000146,7.8659999999999854,8.709000000000003,9.418000000000006,10.245000000000005,10.98599999999999,11.713999999999999,12.541999999999973,13.324999999999989,14.118999999999971,14.838999999999999,15.583000000000027]",space,0.227,0.0,16.0,16.0,24.0,1.0,,,,,,,,,,,,,
,,,,,,,,,,,block_1/medium_t_72_4.wav,timbre,t,medium,72.0,1.659874932,19.69733525,,,,yes,Bose SoundLink,18,No,m,27,R,yes,1,2020-09-25_19h37.04.527,kura-B2,2020.1.2,Win32,60,,,"[""space"",""space"",""space"",""space"",""space"",""space"",""space"",""space"",""space"",""space"",""space"",""space"",""space"",""space"",""space"",""space"",""space"",""space"",""space"",""space"",""space""]","[0.6419999999999959,1.2869999999999777,2.187999999999988,3.1569999999999823,4.170999999999992,5.079000000000008,5.963999999999999,6.7239999999999895,7.649000000000001,8.55699999999996,9.512999999999977,10.442000000000007,11.293999999999983,12.19599999999997,13.125,13.947000000000003,14.85899999999998,15.856999999999971,16.746999999999957,17.548999999999978,18.46199999999999]",space,0.328,0.0,17.0,17.0,36.0,1.0,,,,,,,,,,,,,
,,,,,,,,,,,block_1/medium_t_105_3.wav,timbre,t,medium,105.0,1.131854181,11.90867958,,,,yes,Bose SoundLink,18,No,m,27,R,yes,1,2020-09-25_19h37.04.527,kura-B2,2020.1.2,Win32,60,,,"[""space"",""space"",""space"",""space"",""space"",""space"",""space"",""space"",""space"",""space"",""space"",""space"",""space"",""space"",""space"",""space"",""space"",""space"",""space""]","[0.3979999999999677,1.2309999999999945,2.166999999999973,2.6999999999999886,3.2860000000000014,3.8759999999999764,4.447999999999979,4.902999999999963,5.4599999999999795,6.033999999999992,6.617999999999995,7.171999999999969,7.706999999999994,8.252999999999986,8.849999999999966,9.370999999999981,9.865999999999985,10.375,10.937000000000012]",space,1.228,0.0,18.0,18.0,16.0,1.0,,,,,,,,,,,,,
,,,,,,,,,,,block_1/medium_t_92_3.wav,timbre,t,medium,92.0,2.360774731,14.34626226,,,,yes,Bose SoundLink,18,No,m,27,R,yes,1,2020-09-25_19h37.04.527,kura-B2,2020.1.2,Win32,60,,,"[""space"",""space"",""space"",""space"",""space"",""space"",""space"",""space"",""space"",""space"",""space"",""space"",""space"",""space"",""space"",""space"",""space"",""space"",""space"",""space"",""space""]","[0.7869999999999777,1.4370000000000118,2.0009999999999764,2.5930000000000177,3.1990000000000123,3.836999999999989,4.402999999999963,5.010999999999967,5.7169999999999845,6.259999999999991,7.002999999999986,7.447000000000003,8.01600000000002,8.581999999999994,9.204999999999984,9.841000000000008,10.509000000000015,11.067999999999984,11.608000000000004,12.255999999999972,14.103999999999985]",space,1.807,0.0,19.0,19.0,35.0,1.0,,,,,,,,,,,,,
,,,,,,,,,,,block_1/strong_t_72_4.wav,timbre,t,strong,72.0,1.194355845,16.3115894,,,,yes,Bose SoundLink,18,No,m,27,R,yes,1,2020-09-25_19h37.04.527,kura-B2,2020.1.2,Win32,60,,,"[""space"",""space"",""space"",""space"",""space"",""space"",""space"",""space"",""space"",""space"",""space"",""space"",""space"",""space"",""space"",""space"",""space"",""space"",""space""]","[1.3000000000000114,2.191000000000031,2.992999999999995,3.7490000000000236,4.5160000000000196,5.300000000000011,6.146999999999991,6.951000000000022,7.691000000000031,8.488,9.384000000000015,10.074000000000012,10.89100000000002,11.645999999999958,12.505999999999972,13.224000000000046,13.884000000000015,14.661000000000058,15.615000000000009]",space,1.669,0.0,20.0,20.0,1.0,1.0,,,,,,,,,,,,,
,,,,,,,,,,,block_1/weak_t_72_4.wav,timbre,t,weak,72.0,1.01386198,17.48964429,,,,yes,Bose SoundLink,18,No,m,27,R,yes,1,2020-09-25_19h37.04.527,kura-B2,2020.1.2,Win32,60,,,"[""space"",""space"",""space"",""space"",""space"",""space"",""space"",""space"",""space"",""space"",""space"",""space"",""space"",""space"",""space"",""space"",""space"",""space"",""space"",""space""]","[0.37200000000007094,1.0629999999999882,2.119000000000028,2.910000000000082,3.7350000000000136,4.4909999999999854,5.374000000000024,6.158999999999992,6.972000000000094,7.778999999999996,8.661000000000058,9.480999999999995,10.412000000000035,11.125,12.022000000000048,12.733000000000061,13.645000000000095,14.533999999999992,15.498000000000047,16.235000000000014]",space,1.849,0.0,21.0,21.0,33.0,1.0,,,,,,,,,,,,,
,,,,,,,,,,,block_1/medium_t_81_3.wav,timbre,t,medium,81.0,1.352794873,13.94617356,,,,yes,Bose SoundLink,18,No,m,27,R,yes,1,2020-09-25_19h37.04.527,kura-B2,2020.1.2,Win32,60,,,"[""space"",""space"",""space"",""space"",""space"",""space"",""space"",""space"",""space"",""space"",""space"",""space"",""space"",""space"",""space"",""space"",""space"",""space"",""space"",""space""]","[0.9500000000000455,2.1070000000000846,2.775000000000091,3.3570000000000846,3.980000000000018,4.662000000000035,5.345000000000027,5.988000000000056,6.6170000000000755,7.287000000000035,7.908999999999992,8.550000000000068,9.245000000000005,9.742000000000075,10.461000000000013,11.180000000000064,11.72700000000009,12.293000000000006,12.975000000000023,13.836000000000013]",space,0.424,0.0,22.0,22.0,8.0,1.0,,,,,,,,,,,,,
,,,,,,,,,,,block_1/medium_t_119_3.wav,timbre,t,medium,119.0,2.226222359,10.98477111,,,,yes,Bose SoundLink,18,No,m,27,R,yes,1,2020-09-25_19h37.04.527,kura-B2,2020.1.2,Win32,60,,,"[""space"",""space"",""space"",""space"",""space"",""space"",""space"",""space"",""space"",""space""]","[0.7429999999999382,1.8439999999999372,2.6529999999999063,3.6119999999999663,4.475999999999999,5.375,6.274000000000001,7.298000000000002,8.113999999999919,8.995999999999981]",space,2.681,0.0,23.0,23.0,37.0,1.0,,,,,,,,,,,,,
,,,,,,,,,,,block_1/strong_t_105_4.wav,timbre,t,strong,105.0,2.094581561,12.21235934,,,,yes,Bose SoundLink,18,No,m,27,R,yes,1,2020-09-25_19h37.04.527,kura-B2,2020.1.2,Win32,60,,,"[""space"",""space"",""space"",""space"",""space"",""space"",""space"",""space"",""space"",""space"",""space"",""space"",""space"",""space"",""space"",""space"",""space"",""space"",""space"",""space"",""space""]","[0.5620000000000118,1.0950000000000273,1.441000000000031,1.90300000000002,2.427000000000021,2.935000000000059,3.4329999999999927,3.923999999999978,4.480000000000018,4.937000000000012,5.399999999999977,5.918000000000006,6.392000000000053,6.918000000000006,7.3799999999999955,7.878000000000043,8.413999999999987,8.913999999999987,9.426000000000045,9.90300000000002,10.43500000000006]",space,0.997,0.0,24.0,24.0,18.0,1.0,,,,,,,,,,,,,
,,,,,,,,,,,block_1/strong_t_81_4.wav,timbre,t,strong,81.0,1.870008989,16.22765071,,,,yes,Bose SoundLink,18,No,m,27,R,yes,1,2020-09-25_19h37.04.527,kura-B2,2020.1.2,Win32,60,,,"[""space"",""space"",""space"",""space"",""space"",""space"",""space"",""space"",""space"",""space"",""space"",""space"",""space"",""space"",""space"",""space"",""space"",""space"",""space"",""space""]","[0.7889999999999873,1.6550000000000864,2.3600000000000136,3.1280000000000427,3.8210000000000264,4.559000000000083,5.287000000000035,6.043999999999983,6.777000000000044,7.461999999999989,8.200000000000045,8.916000000000054,9.691000000000031,10.47700000000009,11.206999999999994,11.897000000000048,12.576999999999998,13.293999999999983,14.030000000000086,14.735000000000014]",space,0.494,0.0,25.0,25.0,34.0,1.0,,,,,,,,,,,,,
,,,,,,,,,,,block_1/medium_t_105_4.wav,timbre,t,medium,105.0,2.498438995,14.23458412,,,,yes,Bose SoundLink,18,No,m,27,R,yes,1,2020-09-25_19h37.04.527,kura-B2,2020.1.2,Win32,60,,,"[""space"",""space"",""space"",""space"",""space"",""space"",""space"",""space"",""space"",""space""]","[0.34600000000000364,1.149000000000001,2.1539999999999964,3.4880000000000564,4.807000000000016,6.050000000000068,7.278999999999996,8.682000000000016,9.724000000000046,10.814000000000078]",space,0.988,0.0,26.0,26.0,23.0,1.0,,,,,,,,,,,,,
,,,,,,,,,,,block_1/strong_t_92_3.wav,timbre,t,strong,92.0,1.987733848,15.03440052,,,,yes,Bose SoundLink,18,No,m,27,R,yes,1,2020-09-25_19h37.04.527,kura-B2,2020.1.2,Win32,60,,,"[""space"",""space"",""space"",""space"",""space"",""space"",""space"",""space"",""space"",""space"",""space"",""space"",""space"",""space"",""space"",""space"",""space"",""space"",""space"",""space""]","[0.6829999999999927,1.3690000000000282,2.0639999999999645,2.6680000000000064,3.372000000000071,4.017000000000053,4.66700000000003,5.29200000000003,5.975999999999999,6.638000000000034,7.303999999999974,8.019000000000005,8.66700000000003,9.437999999999988,10.036000000000058,10.670000000000073,11.341000000000008,12.076999999999998,12.683999999999969,13.349000000000046]",space,2.535,0.0,27.0,27.0,3.0,1.0,,,,,,,,,,,,,
,,,,,,,,,,,block_1/weak_t_105_3.wav,timbre,t,weak,105.0,2.038080476,13.26905553,,,,yes,Bose SoundLink,18,No,m,27,R,yes,1,2020-09-25_19h37.04.527,kura-B2,2020.1.2,Win32,60,,,"[""space"",""space"",""space"",""space"",""space"",""space"",""space"",""space"",""space""]","[1.3099999999999454,2.5259999999999536,3.9449999999999363,5.649000000000001,6.8559999999999945,8.070999999999913,9.287999999999897,10.358999999999924,13.131999999999948]",space,1.099,0.0,28.0,28.0,4.0,1.0,,,,,,,,,,,,,
,,,,,,,,,,,block_1/strong_t_119_3.wav,timbre,t,strong,119.0,1.722630655,12.55029505,,,,yes,Bose SoundLink,18,No,m,27,R,yes,1,2020-09-25_19h37.04.527,kura-B2,2020.1.2,Win32,60,,,"[""space"",""space"",""space"",""space"",""space"",""space"",""space"",""space"",""space"",""space"",""space"",""space"",""space"",""space"",""space"",""space"",""space"",""space"",""space"",""space""]","[0.7149999999999181,1.238999999999919,1.6309999999999718,2.1529999999999063,2.745999999999981,3.2799999999999727,3.8079999999999927,4.417999999999893,4.951999999999998,5.557999999999993,6.094999999999914,6.676999999999907,7.238999999999919,7.7309999999999945,8.295999999999935,8.833999999999946,9.400999999999954,9.972999999999956,10.51299999999992,11.086999999999989]",space,0.357,0.0,29.0,29.0,28.0,1.0,,,,,,,,,,,,,
,,,,,,,,,,,block_1/none_t_72_3.wav,timbre,t,none,72.0,1.707698408,21.90234693,,,,yes,Bose SoundLink,18,No,m,27,R,yes,1,2020-09-25_19h37.04.527,kura-B2,2020.1.2,Win32,60,,,"[""space"",""space"",""space"",""space"",""space"",""space"",""space"",""space"",""space"",""space"",""space"",""space"",""space"",""space"",""space"",""space"",""space"",""space"",""space"",""space"",""space""]","[0.29500000000007276,1.2770000000000437,2.187000000000012,3.225999999999999,4.595000000000027,5.512000000000057,6.4669999999999845,7.427999999999997,8.341999999999985,9.33400000000006,10.215000000000032,11.099000000000046,11.956999999999994,12.894000000000005,13.692999999999984,14.557999999999993,15.523000000000025,16.603000000000065,17.79600000000005,18.576000000000022,19.716000000000008]",space,0.276,0.0,30.0,30.0,19.0,1.0,,,,,,,,,,,,,
,,,,,,,,,,,block_1/none_t_119_3.wav,timbre,t,none,119.0,1.169893331,12.28885025,,,,yes,Bose SoundLink,18,No,m,27,R,yes,1,2020-09-25_19h37.04.527,kura-B2,2020.1.2,Win32,60,,,"[""space"",""space"",""space"",""space"",""space"",""space"",""space"",""space"",""space"",""space"",""space"",""space"",""space""]","[0.30900000000008276,1.039000000000101,1.9360000000000355,2.82000000000005,3.7700000000000955,4.6400000000001,5.5049999999999955,6.845000000000027,7.62600000000009,8.499000000000024,9.437999999999988,10.35200000000009,11.165000000000077]",space,0.948,0.0,31.0,31.0,32.0,1.0,,,,,,,,,,,,,
,,,,,,,,,,,block_1/strong_t_105_3.wav,timbre,t,strong,105.0,1.518747526,13.05135524,,,,yes,Bose SoundLink,18,No,m,27,R,yes,1,2020-09-25_19h37.04.527,kura-B2,2020.1.2,Win32,60,,,"[""space"",""space"",""space"",""space"",""space"",""space"",""space"",""space"",""space"",""space"",""space"",""space"",""space"",""space"",""space"",""space"",""space"",""space"",""space"",""space""]","[0.6309999999999718,1.231999999999971,1.8179999999999836,2.380999999999972,2.9309999999999263,3.5049999999999955,4.102999999999952,4.716000000000008,5.312999999999988,5.894999999999982,6.462999999999965,7.08299999999997,7.624000000000024,8.235000000000014,8.80499999999995,9.379000000000019,10.025999999999954,10.619000000000028,11.215000000000032,11.788000000000011]",space,0.632,0.0,32.0,32.0,21.0,1.0,,,,,,,,,,,,,
,,,,,,,,,,,block_1/strong_t_92_4.wav,timbre,t,strong,92.0,1.022726917,13.26377,,,,yes,Bose SoundLink,18,No,m,27,R,yes,1,2020-09-25_19h37.04.527,kura-B2,2020.1.2,Win32,60,,,"[""space"",""space"",""space"",""space"",""space"",""space"",""space"",""space"",""space"",""space"",""space"",""space"",""space"",""space"",""space"",""space"",""space"",""space"",""space"",""space""]","[0.6150000000000091,1.1050000000000182,1.884999999999991,2.4020000000000437,3.0819999999999936,3.6779999999999973,4.298000000000002,4.912000000000035,5.592999999999961,6.2029999999999745,6.8279999999999745,7.476999999999975,8.100999999999999,8.716000000000008,9.322000000000003,9.94399999999996,10.533000000000015,11.215000000000032,11.863000000000056,12.464000000000055]",space,0.523,0.0,33.0,33.0,9.0,1.0,,,,,,,,,,,,,
,,,,,,,,,,,block_1/medium_t_81_4.wav,timbre,t,medium,81.0,1.136743646,13.9322992,,,,yes,Bose SoundLink,18,No,m,27,R,yes,1,2020-09-25_19h37.04.527,kura-B2,2020.1.2,Win32,60,,,"[""space"",""space"",""space"",""space"",""space"",""space"",""space"",""space"",""space"",""space"",""space"",""space"",""space"",""space"",""space"",""space"",""space"",""space"",""space"",""space""]","[0.5009999999999764,1.2690000000000055,1.9829999999999472,2.6959999999999127,3.342999999999961,3.8629999999999427,4.414999999999964,5.052999999999997,5.703999999999951,6.414999999999964,7.134999999999991,7.867999999999938,8.47199999999998,9.134999999999991,9.839999999999918,10.461000000000013,11.222999999999956,11.785999999999945,12.418000000000006,13.06899999999996]",space,0.478,0.0,34.0,34.0,2.0,1.0,,,,,,,,,,,,,
,,,,,,,,,,,block_1/none_t_81_3.wav,timbre,t,none,81.0,2.10326082,21.36648077,,,,yes,Bose SoundLink,18,No,m,27,R,yes,1,2020-09-25_19h37.04.527,kura-B2,2020.1.2,Win32,60,,,"[""space"",""space"",""space"",""space"",""space"",""space"",""space"",""space"",""space"",""space"",""space"",""space"",""space"",""space"",""space"",""space"",""space"",""space"",""space"",""space"",""space""]","[0.3000000000000682,1.0480000000000018,2.1440000000000055,2.908999999999992,4.01400000000001,5.043000000000006,5.955000000000041,7.156000000000063,8.204000000000065,9.25100000000009,10.18100000000004,11.267000000000053,12.033999999999992,12.942999999999984,13.849000000000046,14.826999999999998,15.923000000000002,17.00400000000002,18.05600000000004,18.891000000000076,20.70900000000006]",space,0.302,0.0,35.0,35.0,10.0,1.0,,,,,,,,,,,,,
,,,,,,,,,,,block_1/strong_t_72_3.wav,timbre,t,strong,72.0,1.503157527,17.98057249,,,,yes,Bose SoundLink,18,No,m,27,R,yes,1,2020-09-25_19h37.04.527,kura-B2,2020.1.2,Win32,60,,,"[""space"",""space"",""space"",""space"",""space"",""space"",""space"",""space"",""space"",""space"",""space"",""space"",""space"",""space"",""space"",""space"",""space"",""space"",""space"",""space"",""space""]","[0.3229999999999791,0.6829999999999927,1.7269999999999754,2.5879999999999654,3.453999999999951,4.044999999999959,5.09699999999998,5.937000000000012,6.808999999999969,7.641999999999939,8.477999999999952,9.369000000000028,10.144999999999982,10.93999999999994,11.850999999999999,12.634000000000015,13.611999999999966,14.375,15.250999999999976,16.145999999999958,16.861999999999966]",space,0.276,0.0,36.0,36.0,5.0,1.0,,,,,,,,,,,,,
,,,,,,,,,,,block_1/weak_t_81_3.wav,timbre,t,weak,81.0,1.53156375,17.80117826,,,,yes,Bose SoundLink,18,No,m,27,R,yes,1,2020-09-25_19h37.04.527,kura-B2,2020.1.2,Win32,60,,,"[""space"",""space"",""space"",""space"",""space"",""space"",""space"",""space"",""space"",""space"",""space"",""space"",""space"",""space"",""space"",""space"",""space"",""space"",""space"",""space""]","[0.29700000000002547,1.22300000000007,2.274000000000001,2.993000000000052,3.586999999999989,4.826000000000022,5.491999999999962,6.2830000000000155,6.989000000000033,7.855000000000018,8.676000000000045,9.432000000000016,10.321000000000026,11.024000000000001,11.788000000000011,12.577999999999975,13.354000000000042,14.297000000000025,15.120999999999981,15.976999999999975]",space,0.884,0.0,37.0,37.0,6.0,1.0,,,,,,,,,,,,,
,,,,,,,,,,,block_1/none_t_119_4.wav,timbre,t,none,119.0,1.977931805,11.04042614,,,,yes,Bose SoundLink,18,No,m,27,R,yes,1,2020-09-25_19h37.04.527,kura-B2,2020.1.2,Win32,60,,,"[""space"",""space"",""space"",""space"",""space"",""space"",""space"",""space"",""space""]","[0.30500000000006366,1.0900000000000318,2.2340000000000373,3.451999999999998,4.628000000000043,5.8700000000000045,6.767000000000053,7.6340000000000146,8.418000000000006]",space,2.754,0.0,38.0,38.0,27.0,1.0,,,,,,,,,,,,,
,,,,,,,,,,,block_1/none_t_105_4.wav,timbre,t,none,105.0,1.782068205,15.59785052,,,,yes,Bose SoundLink,18,No,m,27,R,yes,1,2020-09-25_19h37.04.527,kura-B2,2020.1.2,Win32,60,,,"[""space"",""space"",""space"",""space"",""space"",""space"",""space"",""space"",""space"",""space"",""space"",""space"",""space""]","[0.4410000000000309,1.06899999999996,1.93100000000004,2.8700000000000045,4.157000000000039,5.023000000000025,6.372999999999934,7.624000000000024,8.851999999999975,10.384999999999991,11.662000000000035,12.899000000000001,14.091000000000008]",space,0.504,0.0,39.0,39.0,20.0,1.0,,,,,,,,,,,,,
,,,,,,,,,,,block_2/none_n_72_3.wav,no,n,none,72.0,2.393872505,24.12062987,,,,yes,Bose SoundLink,18,No,m,27,R,yes,1,2020-09-25_19h37.04.527,kura-B2,2020.1.2,Win32,60,,,,,,,,,,,,space,45.225,"[""space"",""space"",""space"",""space"",""space"",""space"",""space"",""space"",""space"",""space"",""space"",""space"",""space"",""space"",""space"",""space"",""space"",""space"",""space"",""space"",""space""]","[0.4619999999999891,1.558999999999969,3.076999999999998,3.979000000000042,4.842999999999961,5.815000000000055,6.740000000000009,7.794999999999959,8.919999999999959,10.06899999999996,11.254999999999995,12.251999999999953,13.398000000000025,14.368000000000052,15.430000000000064,16.601999999999975,17.76800000000003,18.88499999999999,19.730000000000018,20.815000000000055,21.860000000000014]",space,0.434,0.0,0.0,0.0,18.0,1.0,,
,,,,,,,,,,,block_2/none_n_119_3.wav,no,n,none,119.0,1.37370001,14.3364211,,,,yes,Bose SoundLink,18,No,m,27,R,yes,1,2020-09-25_19h37.04.527,kura-B2,2020.1.2,Win32,60,,,,,,,,,,,,,,"[""space"",""space"",""space"",""space"",""space"",""space"",""space"",""space"",""space"",""space"",""space"",""space"",""space""]","[1.20900000000006,2.0299999999999727,3.2810000000000628,4.444000000000074,5.48599999999999,6.560000000000059,7.5330000000000155,8.564000000000078,9.583000000000084,10.34800000000007,11.397000000000048,12.269999999999982,13.153999999999996]",space,0.252,0.0,1.0,1.0,24.0,1.0,,
,,,,,,,,,,,block_2/none_n_81_4.wav,no,n,none,81.0,1.032736778,20.98466422,,,,yes,Bose SoundLink,18,No,m,27,R,yes,1,2020-09-25_19h37.04.527,kura-B2,2020.1.2,Win32,60,,,,,,,,,,,,,,"[""space"",""space"",""space"",""space"",""space"",""space"",""space"",""space"",""space"",""space"",""space"",""space"",""space"",""space"",""space"",""space"",""space"",""space"",""space"",""space"",""space""]","[0.31500000000005457,1.0760000000000218,2.036000000000058,3.2730000000000246,4.345000000000027,5.307999999999993,6.392000000000053,7.4669999999999845,8.489000000000033,9.51400000000001,10.555000000000064,11.526000000000067,12.41700000000003,13.215000000000032,14.099000000000046,15.062999999999988,16.003000000000043,16.926000000000045,17.904999999999973,18.772000000000048,19.890999999999963]",space,1.027,0.0,2.0,2.0,26.0,1.0,,
,,,,,,,,,,,block_2/strong_n_81_3.wav,no,n,strong,81.0,2.384474622,16.38941793,,,,yes,Bose SoundLink,18,No,m,27,R,yes,1,2020-09-25_19h37.04.527,kura-B2,2020.1.2,Win32,60,,,,,,,,,,,,,,"[""space"",""space"",""space"",""space"",""space"",""space"",""space"",""space"",""space"",""space"",""space"",""space"",""space"",""space"",""space"",""space"",""space"",""space"",""space"",""space""]","[0.8390000000000555,1.5480000000000018,2.2369999999999663,2.913000000000011,3.625,4.361999999999966,5.02800000000002,5.720000000000027,6.361999999999966,7,7.88900000000001,8.673999999999978,9.36099999999999,10.118000000000052,10.715000000000032,11.48599999999999,12.228000000000065,12.860000000000014,13.523000000000025,14.373000000000047]",space,0.39,0.0,3.0,3.0,10.0,1.0,,
,,,,,,,,,,,block_2/weak_n_105_4.wav,no,n,weak,105.0,1.277365727,12.0504723,,,,yes,Bose SoundLink,18,No,m,27,R,yes,1,2020-09-25_19h37.04.527,kura-B2,2020.1.2,Win32,60,,,,,,,,,,,,,,"[""space"",""space"",""space"",""space"",""space"",""space"",""space"",""space"",""space"",""space"",""space"",""space"",""space"",""space"",""space"",""space"",""space"",""space"",""space""]","[0.36599999999998545,0.9110000000000582,2.0060000000000855,2.8250000000000455,3.647000000000048,4.281000000000063,4.821000000000026,5.283999999999992,5.758000000000038,6.240000000000009,6.774000000000001,7.33400000000006,7.84699999999998,8.382000000000062,8.936000000000035,9.416000000000054,9.984000000000037,10.418999999999983,11.006000000000085]",space,0.688,0.0,4.0,4.0,28.0,1.0,,
,,,,,,,,,,,block_2/strong_n_72_3.wav,no,n,strong,72.0,2.337906276,17.4032124,,,,yes,Bose SoundLink,18,No,m,27,R,yes,1,2020-09-25_19h37.04.527,kura-B2,2020.1.2,Win32,60,,,,,,,,,,,,,,"[""space"",""space"",""space"",""space"",""space"",""space"",""space"",""space"",""space"",""space"",""space"",""space"",""space"",""space"",""space"",""space"",""space"",""space"",""space"",""space""]","[0.5660000000000309,1.3970000000000482,2.3730000000000473,3.149000000000001,3.8910000000000764,4.572000000000003,5.341000000000008,6.065000000000055,6.776000000000067,7.697000000000003,8.47700000000009,9.31000000000006,10.06000000000006,10.759000000000015,11.54200000000003,12.299000000000092,13.156000000000063,13.908000000000015,14.694000000000074,15.401000000000067]",space,0.331,0.0,5.0,5.0,32.0,1.0,,
,,,,,,,,,,,block_2/strong_n_81_4.wav,no,n,strong,81.0,1.736263272,17.70810001,,,,yes,Bose SoundLink,18,No,m,27,R,yes,1,2020-09-25_19h37.04.527,kura-B2,2020.1.2,Win32,60,,,,,,,,,,,,,,"[""space"",""space"",""space"",""space"",""space"",""space"",""space"",""space"",""space"",""space"",""space"",""space"",""space"",""space"",""space"",""space"",""space"",""space"",""space"",""space"",""space""]","[0.1129999999999427,1.0850000000000364,1.8980000000000246,2.578999999999951,3.369000000000028,4.224000000000046,5.014999999999986,5.831000000000017,6.591000000000008,7.324999999999932,8.01400000000001,9.065999999999917,9.897000000000048,10.698999999999955,11.523000000000025,12.357000000000085,13.131999999999948,13.967999999999961,14.765999999999963,15.597000000000094,16.446000000000026]",space,0.658,0.0,6.0,6.0,1.0,1.0,,
,,,,,,,,,,,block_2/weak_n_119_4.wav,no,n,weak,119.0,1.653391966,12.42708811,,,,yes,Bose SoundLink,18,No,m,27,R,yes,1,2020-09-25_19h37.04.527,kura-B2,2020.1.2,Win32,60,,,,,,,,,,,,,,"[""space"",""space"",""space"",""space"",""space"",""space"",""space"",""space"",""space"",""space"",""space"",""space"",""space"",""space"",""space"",""space"",""space"",""space""]","[1.3339999999998327,1.8019999999999072,2.438999999999851,3.08199999999988,3.6389999999998963,4.201999999999998,4.711000000000013,5.307999999999993,5.851999999999862,6.34699999999998,6.816000000000031,7.328999999999951,7.906999999999925,8.480000000000018,9.02800000000002,9.548000000000002,9.980999999999995,10.577999999999975]",space,1.887,0.0,7.0,7.0,31.0,1.0,,
,,,,,,,,,,,block_2/weak_n_105_3.wav,no,n,weak,105.0,2.432347709,14.10785791,,,,yes,Bose SoundLink,18,No,m,27,R,yes,1,2020-09-25_19h37.04.527,kura-B2,2020.1.2,Win32,60,,,,,,,,,,,,,,"[""space"",""space"",""space"",""space"",""space"",""space"",""space"",""space"",""space"",""space"",""space"",""space"",""space"",""space"",""space"",""space"",""space"",""space""]","[0.2999999999999545,1.0570000000000164,1.7300000000000182,2.4269999999999072,3.22199999999998,3.9149999999999636,4.786000000000058,5.439000000000078,6.1400000000001,6.91800000000012,7.675999999999931,8.679000000000087,9.347999999999956,9.92599999999993,10.401000000000067,10.92599999999993,11.440000000000055,11.923000000000002]",space,0.577,0.0,8.0,8.0,27.0,1.0,,
,,,,,,,,,,,block_2/weak_n_92_3.wav,no,n,weak,92.0,2.16711471,14.91038002,,,,yes,Bose SoundLink,18,No,m,27,R,yes,1,2020-09-25_19h37.04.527,kura-B2,2020.1.2,Win32,60,,,,,,,,,,,,,,"[""space"",""space"",""space"",""space"",""space"",""space"",""space"",""space"",""space"",""space"",""space"",""space"",""space"",""space"",""space"",""space"",""space"",""space"",""space"",""space""]","[0.3420000000000982,0.9110000000000582,1.4359999999999218,2.0370000000000346,2.6749999999999545,3.4120000000000346,4.007000000000062,4.522999999999911,5.260999999999967,5.905999999999949,6.557000000000016,7.251999999999953,7.917999999999893,8.635999999999967,9.242999999999938,9.942000000000007,10.548999999999978,11.136999999999944,11.759999999999991,12.486000000000104]",space,0.424,0.0,9.0,9.0,5.0,1.0,,
,,,,,,,,,,,block_2/none_n_92_3.wav,no,n,none,92.0,2.008897919,17.90894327,,,,yes,Bose SoundLink,18,No,m,27,R,yes,1,2020-09-25_19h37.04.527,kura-B2,2020.1.2,Win32,60,,,,,,,,,,,,,,"[""space"",""space"",""space"",""space"",""space"",""space"",""space"",""space"",""space"",""space"",""space"",""space"",""space"",""space"",""space"",""space"",""space"",""space""]","[1.0700000000001637,1.9249999999999545,2.8079999999999927,3.7380000000000564,4.451000000000022,5.526000000000067,6.269999999999982,7.1180000000001655,7.91800000000012,8.781000000000176,9.710000000000036,10.798000000000002,11.440000000000055,12.329000000000178,13.207000000000107,14.16800000000012,15.16800000000012,16.035000000000082]",space,0.399,0.0,10.0,10.0,25.0,1.0,,
,,,,,,,,,,,block_2/weak_n_81_3.wav,no,n,weak,81.0,2.376095497,17.43405468,,,,yes,Bose SoundLink,18,No,m,27,R,yes,1,2020-09-25_19h37.04.527,kura-B2,2020.1.2,Win32,60,,,,,,,,,,,,,,"[""space"",""space"",""space"",""space"",""space"",""space"",""space"",""space"",""space"",""space"",""space"",""space"",""space"",""space"",""space"",""space"",""space"",""space"",""space"",""space"",""space""]","[0.42699999999990723,1.1620000000000346,2.106999999999971,2.7770000000000437,3.5419999999999163,4.282999999999902,5.010999999999967,5.727999999999838,6.538999999999987,7.211999999999989,7.917999999999893,8.67899999999986,9.389999999999873,10.195999999999913,10.930000000000064,11.226999999999862,11.655999999999949,12.355999999999995,13.245999999999867,14.007000000000062,14.695999999999913]",space,0.427,0.0,11.0,11.0,30.0,1.0,,
,,,,,,,,,,,block_2/none_n_81_3.wav,no,n,none,81.0,2.161532659,18.80565964,,,,yes,Bose SoundLink,18,No,m,27,R,yes,1,2020-09-25_19h37.04.527,kura-B2,2020.1.2,Win32,60,,,,,,,,,,,,,,"[""space"",""space"",""space"",""space"",""space"",""space"",""space"",""space"",""space"",""space"",""space"",""space"",""space"",""space"",""space"",""space""]","[1.2409999999999854,2.316000000000031,3.3040000000000873,4.153999999999996,4.997000000000071,6.317000000000007,7.360999999999876,8.283999999999878,9.22700000000009,10.373000000000047,11.360999999999876,12.340999999999894,13.444999999999936,14.336000000000013,15.544000000000096,16.489000000000033]",space,0.396,0.0,12.0,12.0,29.0,1.0,,
,,,,,,,,,,,block_2/strong_n_72_4.wav,no,n,strong,72.0,1.689031128,17.05764791,,,,yes,Bose SoundLink,18,No,m,27,R,yes,1,2020-09-25_19h37.04.527,kura-B2,2020.1.2,Win32,60,,,,,,,,,,,,,,"[""space"",""space"",""space"",""space"",""space"",""space"",""space"",""space"",""space"",""space"",""space"",""space"",""space"",""space"",""space"",""space"",""space"",""space"",""space"",""space""]","[0.97199999999998,1.4869999999998527,2.2509999999999764,3.140999999999849,3.951000000000022,4.744999999999891,5.579999999999927,6.267000000000053,7.195999999999913,7.911000000000058,8.691000000000031,9.501999999999953,10.253999999999905,11.066000000000031,11.86999999999989,12.65300000000002,13.457999999999856,14.259000000000015,14.979000000000042,15.784999999999854]",space,1.856,0.0,13.0,13.0,35.0,1.0,,
,,,,,,,,,,,block_2/medium_n_92_3.wav,no,n,medium,92.0,2.163023573,13.84869251,,,,yes,Bose SoundLink,18,No,m,27,R,yes,1,2020-09-25_19h37.04.527,kura-B2,2020.1.2,Win32,60,,,,,,,,,,,,,,"[""space"",""space"",""space"",""space"",""space"",""space"",""space"",""space"",""space"",""space"",""space"",""space"",""space"",""space"",""space"",""space"",""space"",""space"",""space"",""space""]","[0.81899999999996,1.3399999999999181,1.8550000000000182,2.339999999999918,2.866999999999962,3.480000000000018,4.182999999999993,4.742999999999938,5.382000000000062,5.945999999999913,6.589999999999918,7.180000000000064,7.7999999999999545,8.355999999999995,9,9.617999999999938,10.249000000000024,10.8599999999999,11.437999999999874,11.991999999999962]",space,0.435,0.0,14.0,14.0,2.0,1.0,,
,,,,,,,,,,,block_2/medium_n_81_4.wav,no,n,medium,81.0,1.594727623,16.1032537,,,,yes,Bose SoundLink,18,No,m,27,R,yes,1,2020-09-25_19h37.04.527,kura-B2,2020.1.2,Win32,60,,,,,,,,,,,,,,"[""space"",""space"",""space"",""space"",""space"",""space"",""space"",""space"",""space"",""space"",""space"",""space"",""space"",""space"",""space"",""space"",""space"",""space"",""space""]","[0.8170000000000073,1.5640000000000782,2.3530000000000655,3.150000000000091,3.883000000000038,4.650000000000091,5.336000000000013,6.0470000000000255,6.742000000000189,7.550000000000182,8.271000000000186,8.94900000000007,9.715000000000146,10.45900000000006,11.221000000000004,11.907000000000153,12.695000000000164,13.406000000000176,14.188000000000102]",space,0.296,0.0,15.0,15.0,38.0,1.0,,
,,,,,,,,,,,block_2/strong_n_119_4.wav,no,n,strong,119.0,2.003027148,12.07137182,,,,yes,Bose SoundLink,18,No,m,27,R,yes,1,2020-09-25_19h37.04.527,kura-B2,2020.1.2,Win32,60,,,,,,,,,,,,,,"[""space"",""space"",""space"",""space"",""space"",""space"",""space"",""space"",""space"",""space"",""space"",""space"",""space"",""space"",""space"",""space"",""space"",""space"",""space"",""space"",""space""]","[0.3910000000000764,0.946999999999889,1.2860000000000582,1.7309999999999945,2.2229999999999563,2.73700000000008,3.272999999999911,3.7670000000000528,4.278999999999996,4.783999999999878,5.2690000000000055,5.807999999999993,6.309999999999945,6.768000000000029,7.320999999999913,7.828999999999951,8.376999999999953,8.866999999999962,9.30600000000004,9.855000000000018,10.34699999999998]",space,0.39,0.0,16.0,16.0,23.0,1.0,,
,,,,,,,,,,,block_2/weak_n_92_4.wav,no,n,weak,92.0,2.26710089,14.35326869,,,,yes,Bose SoundLink,18,No,m,27,R,yes,1,2020-09-25_19h37.04.527,kura-B2,2020.1.2,Win32,60,,,,,,,,,,,,,,"[""space"",""space"",""space"",""space"",""space"",""space"",""space"",""space"",""space"",""space"",""space"",""space"",""space"",""space"",""space"",""space"",""space"",""space"",""space"",""space"",""space""]","[0.3669999999999618,0.9739999999999327,1.6130000000000564,2.1690000000000964,2.783999999999878,3.339999999999918,3.939000000000078,4.510999999999967,5.086999999999989,5.670000000000073,6.339999999999918,6.939000000000078,7.5060000000000855,8.153999999999996,8.722999999999956,9.375999999999976,9.948000000000093,10.614000000000033,11.192999999999984,11.788000000000011,12.406999999999925]",space,0.72,0.0,17.0,17.0,15.0,1.0,,
,,,,,,,,,,,block_2/none_n_119_4.wav,no,n,none,119.0,1.538189981,14.89986799,,,,yes,Bose SoundLink,18,No,m,27,R,yes,1,2020-09-25_19h37.04.527,kura-B2,2020.1.2,Win32,60,,,,,,,,,,,,,,"[""space"",""space"",""space"",""space"",""space"",""space"",""space"",""space"",""space"",""space"",""space"",""space"",""space"",""space""]","[0.07600000000002183,0.9139999999999873,2.066000000000031,3.16599999999994,4.490000000000009,5.589999999999918,6.52599999999984,7.380999999999858,8.270999999999958,9.322999999999865,10.240999999999985,11.060999999999922,12.06399999999985,13.134000000000015]",space,0.671,0.0,18.0,18.0,20.0,1.0,,
,,,,,,,,,,,block_2/medium_n_119_4.wav,no,n,medium,119.0,1.918272059,10.22534689,,,,yes,Bose SoundLink,18,No,m,27,R,yes,1,2020-09-25_19h37.04.527,kura-B2,2020.1.2,Win32,60,,,,,,,,,,,,,,"[""space"",""space"",""space"",""space"",""space"",""space"",""space"",""space"",""space"",""space""]","[1.0329999999999018,1.5640000000000782,2.3430000000000746,3.16599999999994,4.016000000000076,4.949000000000069,5.920000000000073,6.804000000000087,7.663999999999987,8.569999999999936]",space,0.284,0.0,19.0,19.0,17.0,1.0,,
,,,,,,,,,,,block_2/medium_n_105_4.wav,no,n,medium,105.0,2.115061775,16.52181914,,,,yes,Bose SoundLink,18,No,m,27,R,yes,1,2020-09-25_19h37.04.527,kura-B2,2020.1.2,Win32,60,,,,,,,,,,,,,,"[""space"",""space"",""space"",""space"",""space"",""space"",""space"",""space"",""space"",""space"",""space"",""space"",""space"",""space"",""space"",""space"",""space"",""space"",""space"",""space""]","[0.8810000000000855,1.469000000000051,2.2519999999999527,3.0109999999999673,3.8640000000000327,4.671000000000049,5.3120000000001255,6.154999999999973,6.86200000000008,7.574000000000069,8.307000000000016,9.016000000000076,9.734000000000151,10.42599999999993,11.210000000000036,11.895999999999958,12.557000000000016,13.379000000000133,14.080000000000155,14.70900000000006]",space,0.284,0.0,20.0,20.0,12.0,1.0,,
,,,,,,,,,,,block_2/none_n_105_3.wav,no,n,none,105.0,1.200203838,13.86165508,,,,yes,Bose SoundLink,18,No,m,27,R,yes,1,2020-09-25_19h37.04.527,kura-B2,2020.1.2,Win32,60,,,,,,,,,,,,,,"[""space"",""space"",""space"",""space"",""space"",""space"",""space"",""space"",""space"",""space"",""space"",""space"",""space"",""space""]","[0.5700000000001637,0.9770000000000891,1.9850000000001273,2.9730000000001837,3.7390000000000327,4.900000000000091,5.845000000000027,6.83400000000006,7.706000000000131,8.850000000000136,9.79300000000012,10.70900000000006,11.357000000000198,12.518000000000029]",space,0.542,0.0,21.0,21.0,6.0,1.0,,
,,,,,,,,,,,block_2/medium_n_72_3.wav,no,n,medium,72.0,1.994146771,18.06802432,,,,yes,Bose SoundLink,18,No,m,27,R,yes,1,2020-09-25_19h37.04.527,kura-B2,2020.1.2,Win32,60,,,,,,,,,,,,,,"[""space"",""space"",""space"",""space"",""space"",""space"",""space"",""space"",""space"",""space"",""space"",""space"",""space"",""space"",""space"",""space"",""space"",""space"",""space"",""space""]","[0.6730000000000018,1.4780000000000655,2.4010000000000673,3.2210000000000036,4.1030000000000655,5.0779999999999745,5.807999999999993,6.539999999999964,7.427999999999884,8.320999999999913,9.124000000000024,9.945999999999913,10.787000000000035,11.633000000000038,12.470000000000027,13.204999999999927,14.01299999999992,14.791999999999916,15.618999999999915,16.454999999999927]",space,0.87,0.0,22.0,22.0,13.0,1.0,,
,,,,,,,,,,,block_2/none_n_92_4.wav,no,n,none,92.0,2.009431863,15.90199422,,,,yes,Bose SoundLink,18,No,m,27,R,yes,1,2020-09-25_19h37.04.527,kura-B2,2020.1.2,Win32,60,,,,,,,,,,,,,,"[""space"",""space"",""space"",""space"",""space"",""space"",""space"",""space"",""space"",""space"",""space"",""space""]","[0.8029999999998836,1.8209999999999127,3.008000000000038,3.828999999999951,4.76299999999992,5.6189999999999145,6.613000000000056,7.729000000000042,9.094000000000051,10.392000000000053,11.7349999999999,13.184999999999945]",space,0.362,0.0,23.0,23.0,19.0,1.0,,
,,,,,,,,,,,block_2/none_n_105_4.wav,no,n,none,105.0,1.256367297,16.73296594,,,,yes,Bose SoundLink,18,No,m,27,R,yes,1,2020-09-25_19h37.04.527,kura-B2,2020.1.2,Win32,60,,,,,,,,,,,,,,"[""space"",""space"",""space"",""space"",""space"",""space"",""space"",""space"",""space"",""space"",""space"",""space"",""space"",""space"",""space""]","[1.211999999999989,2.0499999999999545,2.7949999999998454,3.9199999999998454,4.675999999999931,5.91599999999994,7.265999999999849,8.21699999999987,9.067000000000007,9.932999999999993,11.061999999999898,11.863999999999805,12.865000000000009,13.92599999999993,14.8599999999999]",space,0.541,0.0,24.0,24.0,14.0,1.0,,
,,,,,,,,,,,block_2/medium_n_105_3.wav,no,n,medium,105.0,2.480661226,14.16274739,,,,yes,Bose SoundLink,18,No,m,27,R,yes,1,2020-09-25_19h37.04.527,kura-B2,2020.1.2,Win32,60,,,,,,,,,,,,,,"[""space"",""space"",""space"",""space"",""space"",""space"",""space"",""space"",""space"",""space"",""space"",""space"",""space"",""space"",""space"",""space"",""space"",""space"",""space"",""space"",""space""]","[0.5710000000001401,1.1140000000000327,1.5370000000000346,2.076999999999998,2.6059999999999945,3.2040000000001783,3.790000000000191,4.372000000000071,4.944000000000187,5.531000000000176,6.101000000000113,6.671000000000049,7.2560000000000855,7.80600000000004,8.361000000000104,9.04300000000012,9.540000000000191,10.15800000000013,10.781000000000176,11.521000000000186,11.985000000000127]",space,0.142,0.0,25.0,25.0,0.0,1.0,,
,,,,,,,,,,,block_2/weak_n_72_4.wav,no,n,weak,72.0,1.671954957,17.64637673,,,,yes,Bose SoundLink,18,No,m,27,R,yes,1,2020-09-25_19h37.04.527,kura-B2,2020.1.2,Win32,60,,,,,,,,,,,,,,"[""space"",""space"",""space"",""space"",""space"",""space"",""space"",""space"",""space"",""space"",""space"",""space"",""space"",""space"",""space"",""space"",""space"",""space"",""space"",""space""]","[0.36200000000008004,0.9490000000000691,1.4950000000001182,2.1980000000000928,2.990000000000009,3.9680000000000746,5.072000000000116,5.66599999999994,6.3940000000000055,7.04300000000012,8.011999999999944,8.922000000000025,9.625999999999976,10.553000000000111,11.38000000000011,12.253999999999905,13.06899999999996,13.842000000000098,14.780999999999949,15.635999999999967]",space,0.468,0.0,26.0,26.0,4.0,1.0,,
,,,,,,,,,,,block_2/strong_n_119_3.wav,no,n,strong,119.0,2.299979207,12.06555744,,,,yes,Bose SoundLink,18,No,m,27,R,yes,1,2020-09-25_19h37.04.527,kura-B2,2020.1.2,Win32,60,,,,,,,,,,,,,,"[""space"",""space"",""space"",""space"",""space"",""space"",""space"",""space"",""space"",""space"",""space"",""space"",""space"",""space"",""space"",""space"",""space"",""space"",""space"",""space""]","[0.8509999999998854,1.27800000000002,1.6959999999999127,2.1639999999999873,2.619999999999891,3.1340000000000146,3.59699999999998,4.080999999999904,4.628999999999905,5.13799999999992,5.593999999999824,6.270999999999958,6.612999999999829,7.091999999999871,7.6099999999999,8.115999999999985,8.592999999999847,9.048000000000002,9.561999999999898,10.01299999999992]",space,1.709,0.0,27.0,27.0,16.0,1.0,,
,,,,,,,,,,,block_2/weak_n_81_4.wav,no,n,weak,81.0,1.139338257,16.19847658,,,,yes,Bose SoundLink,18,No,m,27,R,yes,1,2020-09-25_19h37.04.527,kura-B2,2020.1.2,Win32,60,,,,,,,,,,,,,,"[""space"",""space"",""space"",""space"",""space"",""space"",""space"",""space"",""space"",""space"",""space"",""space"",""space"",""space"",""space"",""space"",""space"",""space""]","[1.0649999999998272,1.9230000000000018,2.617999999999938,3.4129999999997835,4.12299999999982,4.95699999999988,6.520999999999958,6.942000000000007,7.582999999999856,8.405999999999949,9.13299999999981,9.847999999999956,10.709999999999809,11.5,12.242999999999938,12.934999999999945,13.779999999999973,14.567000000000007]",space,0.333,0.0,28.0,28.0,36.0,1.0,,
,,,,,,,,,,,block_2/none_n_72_4.wav,no,n,none,72.0,1.743803892,24.48607147,,,,yes,Bose SoundLink,18,No,m,27,R,yes,1,2020-09-25_19h37.04.527,kura-B2,2020.1.2,Win32,60,,,,,,,,,,,,,,"[""space"",""space"",""space"",""space"",""space"",""space"",""space"",""space"",""space"",""space"",""space"",""space"",""space"",""space"",""space"",""space"",""space"",""space"",""space"",""space"",""space"",""space"",""space"",""space"",""space"",""space""]","[0.35200000000008913,1.1080000000001746,1.9049999999999727,3.004000000000133,4.592000000000098,5.540000000000191,6.768000000000029,7.570000000000164,8.307999999999993,9.047000000000025,9.825000000000045,10.745000000000118,11.498000000000047,12.393000000000029,13.301000000000158,14.090000000000146,14.892000000000053,15.507000000000062,16.226000000000113,17.46400000000017,18.233000000000175,18.891000000000076,19.70900000000006,20.65800000000013,21.522000000000162,22.345000000000027]",space,0.313,0.0,29.0,29.0,21.0,1.0,,
,,,,,,,,,,,block_2/weak_n_72_3.wav,no,n,weak,72.0,1.604938988,17.47283014,,,,yes,Bose SoundLink,18,No,m,27,R,yes,1,2020-09-25_19h37.04.527,kura-B2,2020.1.2,Win32,60,,,,,,,,,,,,,,"[""space"",""space"",""space"",""space"",""space"",""space"",""space"",""space"",""space"",""space"",""space"",""space"",""space"",""space"",""space"",""space"",""space"",""space"",""space"",""space""]","[1.2789999999999964,2.0270000000000437,2.699000000000069,3.5140000000001237,4.343000000000075,5.125,5.9909999999999854,6.698000000000093,7.535000000000082,8.266000000000076,9.07100000000014,9.90300000000002,10.659000000000106,11.452999999999975,12.213000000000193,12.923000000000002,13.820000000000164,14.628000000000156,15.465000000000146,16.36700000000019]",space,0.62,0.0,30.0,30.0,8.0,1.0,,
,,,,,,,,,,,block_2/strong_n_92_4.wav,no,n,strong,92.0,1.480736093,15.18463632,,,,yes,Bose SoundLink,18,No,m,27,R,yes,1,2020-09-25_19h37.04.527,kura-B2,2020.1.2,Win32,60,,,,,,,,,,,,,,"[""space"",""space"",""space"",""space"",""space"",""space"",""space"",""space"",""space"",""space"",""space"",""space"",""space"",""space"",""space"",""space"",""space"",""space"",""space""]","[0.7870000000000346,1.316000000000031,1.9390000000000782,2.7029999999999745,3.3900000000001,4.893000000000029,5.619000000000142,6.309999999999945,7.007000000000062,7.768000000000029,8.450000000000045,9.152000000000044,9.934999999999945,10.569999999999936,11.231999999999971,11.975000000000136,12.759000000000015,13.42599999999993,14.067000000000007]",space,1.008,0.0,31.0,31.0,34.0,1.0,,
,,,,,,,,,,,block_2/medium_n_72_4.wav,no,n,medium,72.0,1.35197092,15.86054235,,,,yes,Bose SoundLink,18,No,m,27,R,yes,1,2020-09-25_19h37.04.527,kura-B2,2020.1.2,Win32,60,,,,,,,,,,,,,,"[""space"",""space"",""space"",""space"",""space"",""space"",""space"",""space"",""space"",""space"",""space"",""space"",""space"",""space"",""space"",""space"",""space"",""space"",""space"",""space""]","[0.4860000000001037,1.5080000000000382,2.275000000000091,3.1110000000001037,3.772000000000162,4.519999999999982,5.246000000000095,5.995000000000118,6.660000000000082,7.423000000000002,8.258000000000038,8.957000000000107,9.625,10.33900000000017,11.125,11.904999999999973,12.580000000000155,13.304000000000087,14.058999999999969,14.994000000000142]",space,0.972,0.0,32.0,32.0,7.0,1.0,,
,,,,,,,,,,,block_2/weak_n_119_3.wav,no,n,weak,119.0,1.689359171,10.04573105,,,,yes,Bose SoundLink,18,No,m,27,R,yes,1,2020-09-25_19h37.04.527,kura-B2,2020.1.2,Win32,60,,,,,,,,,,,,,,"[""space"",""space"",""space"",""space"",""space"",""space"",""space"",""space"",""space"",""space"",""space"",""space"",""space"",""space"",""space"",""space"",""space"",""space""]","[0.9690000000000509,1.4930000000001655,2.053000000000111,2.536000000000058,2.936000000000149,3.451000000000022,3.854000000000042,4.25,4.693000000000211,5.1310000000000855,5.491000000000213,5.951000000000022,6.329000000000178,6.764000000000124,7.230000000000018,7.596000000000004,8.110000000000127,8.56100000000015]",space,0.411,0.0,33.0,33.0,37.0,1.0,,
,,,,,,,,,,,block_2/strong_n_105_3.wav,no,n,strong,105.0,2.095458379,13.32602527,,,,yes,Bose SoundLink,18,No,m,27,R,yes,1,2020-09-25_19h37.04.527,kura-B2,2020.1.2,Win32,60,,,,,,,,,,,,,,"[""space"",""space"",""space"",""space"",""space"",""space"",""space"",""space"",""space"",""space"",""space"",""space"",""space"",""space"",""space"",""space"",""space"",""space"",""space"",""space"",""space""]","[0.2940000000000964,0.7880000000000109,1.1880000000001019,1.7480000000000473,2.2630000000001473,2.8400000000001455,3.405999999999949,4.020999999999958,4.572000000000116,5.16800000000012,5.706000000000131,6.286000000000058,6.889000000000124,7.4909999999999854,8.06100000000015,8.604000000000042,9.134000000000015,9.65800000000013,10.216000000000122,10.798000000000002,11.331000000000131]",space,0.277,0.0,34.0,34.0,9.0,1.0,,
,,,,,,,,,,,block_2/strong_n_105_4.wav,no,n,strong,105.0,1.723608797,13.55862014,,,,yes,Bose SoundLink,18,No,m,27,R,yes,1,2020-09-25_19h37.04.527,kura-B2,2020.1.2,Win32,60,,,,,,,,,,,,,,"[""space"",""space"",""space"",""space"",""space"",""space"",""space"",""space"",""space"",""space"",""space"",""space"",""space"",""space"",""space"",""space"",""space"",""space"",""space"",""space"",""space""]","[0.35400000000004184,0.8250000000000455,1.3609999999998763,1.9990000000000236,2.5989999999999327,3.183999999999969,3.816000000000031,4.404999999999973,4.9849999999999,5.560999999999922,6.194999999999936,6.772999999999911,7.367999999999938,7.953999999999951,8.567999999999984,9.166999999999916,9.740999999999985,10.301999999999907,10.933999999999969,11.644999999999982,12.204999999999927]",space,0.492,0.0,35.0,35.0,3.0,1.0,,
,,,,,,,,,,,block_2/medium_n_119_3.wav,no,n,medium,119.0,2.317779723,12.17918562,,,,yes,Bose SoundLink,18,No,m,27,R,yes,1,2020-09-25_19h37.04.527,kura-B2,2020.1.2,Win32,60,,,,,,,,,,,,,,"[""space"",""space"",""space"",""space"",""space"",""space"",""space"",""space"",""space"",""space""]","[1.09900000000016,1.9230000000000018,2.907000000000153,3.734000000000151,4.594000000000051,5.634999999999991,6.850000000000136,7.597999999999956,8.659000000000106,9.623000000000047]",space,0.807,0.0,36.0,36.0,22.0,1.0,,
,,,,,,,,,,,block_2/strong_n_92_3.wav,no,n,strong,92.0,1.019287146,13.50967263,,,,yes,Bose SoundLink,18,No,m,27,R,yes,1,2020-09-25_19h37.04.527,kura-B2,2020.1.2,Win32,60,,,,,,,,,,,,,,"[""space"",""space"",""space"",""space"",""space"",""space"",""space"",""space"",""space"",""space"",""space"",""space"",""space"",""space"",""space"",""space"",""space"",""space"",""space"",""space""]","[0.7300000000000182,1.4449999999999363,2.117999999999938,2.7159999999998945,3.324999999999818,4.011999999999944,4.617999999999938,5.229000000000042,5.875,6.561999999999898,7.1749999999999545,7.811999999999898,8.384000000000015,9.008000000000038,9.662000000000035,10.254999999999882,10.861999999999853,11.532999999999902,12.140999999999849,12.778999999999996]",space,0.581,0.0,37.0,37.0,39.0,1.0,,
,,,,,,,,,,,block_2/medium_n_92_4.wav,no,n,medium,92.0,1.021723279,13.61201806,,,,yes,Bose SoundLink,18,No,m,27,R,yes,1,2020-09-25_19h37.04.527,kura-B2,2020.1.2,Win32,60,,,,,,,,,,,,,,"[""space"",""space"",""space"",""space"",""space"",""space"",""space"",""space"",""space"",""space"",""space"",""space"",""space"",""space"",""space"",""space"",""space"",""space"",""space"",""space"",""space""]","[0.5930000000000746,1.1040000000000418,1.66599999999994,2.2549999999998818,2.8859999999999673,3.4420000000000073,4.132000000000062,4.745999999999867,5.380999999999858,6.010999999999967,6.626999999999953,7.268000000000029,7.888999999999896,8.490999999999985,9.11200000000008,9.75,10.366999999999962,11,11.677999999999884,12.30399999999986,12.878999999999905]",space,1.393,0.0,38.0,38.0,11.0,1.0,,
,,,,,,,,,,,block_2/medium_n_81_3.wav,no,n,medium,81.0,2.235189468,17.75582439,,,,yes,Bose SoundLink,18,No,m,27,R,yes,1,2020-09-25_19h37.04.527,kura-B2,2020.1.2,Win32,60,,,,,,,,,,,,,,"[""space"",""space"",""space"",""space"",""space"",""space"",""space"",""space"",""space"",""space"",""space"",""space"",""space"",""space"",""space"",""space"",""space"",""space"",""space"",""space""]","[0.8130000000001019,1.30600000000004,2.2070000000001073,2.9860000000001037,3.854000000000042,4.83400000000006,5.558999999999969,6.288000000000011,7.111000000000104,7.847999999999956,8.730000000000018,9.539999999999964,10.30600000000004,11.063000000000102,12.011999999999944,12.70900000000006,13.54300000000012,14.348999999999933,15.18100000000004,15.866999999999962]",space,0.585,0.0,39.0,39.0,33.0,1.0,,
,,,,,,,,,,,,,,,,,,,,,yes,Bose SoundLink,18,No,m,27,R,yes,1,2020-09-25_19h37.04.527,kura-B2,2020.1.2,Win32,60,,,,,,,,,,,,,,,,,,,,,,,space,37.668
