key_resp.keys,key_resp.rt,practice_taps.keys,practice_taps.rt,keyresp.keys,keyresp.rt,practice_stims_loop.thisRepN,practice_stims_loop.thisTrialN,practice_stims_loop.thisN,practice_stims_loop.thisIndex,practice_stims_loop.ran,sndfile,type,tempo,cond,version,delay,dur,Participant Initials,"If you are a MTurk worker, what is your MTurk worker ID?","If you are not an MTurk worker, please provide your email address",Are you wearing headphones?,What are the headphone make and model?,"How many years of musical training, if any, do you have?",Do you have any hearing problems? Please describe,What is your sex (f/m/decline)?,What is your age?,What is your handedness (R/L/ambi)?,Are you currently in a secure and quiet room without a possible interruption?,session ,date,expName,psychopyVersion,OS,frameRate,instructions_prompt.keys,instructions_prompt.rt,block1_taps.keys,block1_taps.rt,key_resp_2.keys,key_resp_2.rt,trials.thisRepN,trials.thisTrialN,trials.thisN,trials.thisIndex,trials.ran,key_resp2.keys,key_resp2.rt,block2_taps.keys,block2_taps.rt,key_resp_3.keys,key_resp_3.rt,trials_2.thisRepN,trials_2.thisTrialN,trials_2.thisN,trials_2.thisIndex,trials_2.ran,key_resp_4.keys,key_resp_4.rt
space,12.09193,"[""space"",""space"",""space""]","[9.197724999976344,11.811449999979232,12.391309999977238]",space,0.20583,0.0,0.0,0.0,2.0,1.0,block_2/weak_n_105_4.wav,no,n,weak,105.0,1.982674472,12.75578105,,,,Yes,JBL E45BT,15 Years,No,f,25,Left,Yes,1,2020-09-21_10h01.20.704,kura-B2,2020.1.2,Win32,60,,,,,,,,,,,,,,,,,,,,,,,,
,,"[""space"",""space"",""space"",""space"",""space"",""space"",""space"",""space"",""space"",""space"",""space"",""space"",""space"",""space"",""space"",""space"",""space"",""space"",""space"",""space"",""space""]","[0.4118400000152178,0.8375949999899603,1.3040700000128709,1.8112400000100024,2.309124999999767,2.789924999990035,3.269670000008773,3.7571400000015274,4.282529999996768,4.80537000001641,5.283620000001974,5.753035000001546,6.222325000009732,6.712239999993471,7.180285000009462,7.638340000004973,8.181260000012117,8.718415000010282,9.253644999989774,9.742510000010952,10.254450000007637]",space,1.489505,0.0,1.0,1.0,3.0,1.0,block_1/medium_t_119_4.wav,timbre,t,medium,119.0,1.752316959,11.57313329,,,,Yes,JBL E45BT,15 Years,No,f,25,Left,Yes,1,2020-09-21_10h01.20.704,kura-B2,2020.1.2,Win32,60,,,,,,,,,,,,,,,,,,,,,,,,
,,"[""space"",""space"",""space"",""space"",""space"",""space"",""space"",""space"",""space"",""space"",""space"",""space"",""space"",""space"",""space"",""space"",""space"",""space""]","[1.4859049999795388,1.8663050000031944,2.3340599999937695,2.660409999982221,2.9593750000058208,3.391414999990957,3.805434999987483,4.240250000002561,4.7010299999965355,5.131135000003269,5.619925000006333,6.085094999987632,6.549960000003921,6.97293499999796,7.436319999978878,7.895575000002282,8.34567499998957,8.800820000004023]",space,0.96619,0.0,2.0,2.0,1.0,1.0,block_2/medium_n_119_4.wav,no,n,medium,119.0,1.224634286,9.531709116,,,,Yes,JBL E45BT,15 Years,No,f,25,Left,Yes,1,2020-09-21_10h01.20.704,kura-B2,2020.1.2,Win32,60,,,,,,,,,,,,,,,,,,,,,,,,
,,"[""space"",""space"",""space"",""space"",""space"",""space"",""space"",""space"",""space"",""space"",""space"",""space"",""space"",""space"",""space"",""space"",""space"",""space"",""space"",""space"",""space"",""space"",""space"",""space"",""space"",""space"",""space"",""space"",""space"",""space"",""space"",""space""]","[0.5117949999985285,0.8211549999832641,1.1016799999924842,1.5613099999900442,2.6360850000055507,3.041639999981271,3.4931649999925867,3.950719999993453,4.734850000008009,5.2194650000019465,5.705339999985881,6.1207899999863,6.6313300000038,7.1868499999982305,7.785889999999199,8.281640000001062,8.731984999991255,9.185639999981504,9.632534999982454,10.101410000002943,10.642584999994142,11.118385000008857,11.627914999990026,12.158334999985527,13.128035000001546,13.646444999991218,14.14022999998997,14.558220000006258,15.058909999992466,15.488214999990305,15.89097499998752,16.343954999989364]",space,1.241135,0.0,3.0,3.0,0.0,1.0,block_2/none_n_92_3.wav,no,n,none,92.0,2.306164339,18.20620969,,,,Yes,JBL E45BT,15 Years,No,f,25,Left,Yes,1,2020-09-21_10h01.20.704,kura-B2,2020.1.2,Win32,60,,,,,,,,,,,,,,,,,,,,,,,,
,,,,,,,,,,,block_1/strong_t_81_4.wav,timbre,t,strong,81.0,1.870008989,16.22765071,,,,Yes,JBL E45BT,15 Years,No,f,25,Left,Yes,1,2020-09-21_10h01.20.704,kura-B2,2020.1.2,Win32,60,space,6.680215,"[""space"",""space"",""space"",""space"",""space"",""space"",""space"",""space"",""space"",""space"",""space"",""space"",""space"",""space"",""space"",""space"",""space"",""space"",""space"",""space"",""space""]","[0.8687449999852106,1.7889199999917764,2.542104999971343,3.3226099999737926,4.016049999976531,4.754579999978887,5.478224999998929,6.204334999987623,6.944049999990966,7.65447999999742,8.411694999987958,9.097599999979138,9.82546499997261,10.574404999992112,11.309709999972256,12.030879999976605,12.707244999997783,13.472524999990128,14.204034999973373,14.905069999978878,15.58179499997641]",space,0.16119,0.0,0.0,0.0,34.0,1.0,,,,,,,,,,,,,
,,,,,,,,,,,block_1/strong_t_72_4.wav,timbre,t,strong,72.0,1.194355845,16.3115894,,,,Yes,JBL E45BT,15 Years,No,f,25,Left,Yes,1,2020-09-21_10h01.20.704,kura-B2,2020.1.2,Win32,60,,,"[""space"",""space"",""space"",""space"",""space"",""space"",""space"",""space"",""space"",""space"",""space"",""space"",""space"",""space"",""space"",""space"",""space"",""space"",""space"",""space""]","[0.6879699999990407,1.509424999996554,2.301739999995334,3.0946750000002794,3.9181549999921117,4.712835000013001,5.481009999988601,6.252195000008214,7.044770000007702,7.812919999996666,8.610875000013039,9.448449999996228,10.224955000012415,10.987744999991264,11.773415000003297,12.552640000008978,13.340285000012955,14.155644999991637,14.908725000015693,15.696449999988545]",space,1.45036,0.0,1.0,1.0,1.0,1.0,,,,,,,,,,,,,
,,,,,,,,,,,block_1/medium_t_81_4.wav,timbre,t,medium,81.0,1.136743646,13.9322992,,,,Yes,JBL E45BT,15 Years,No,f,25,Left,Yes,1,2020-09-21_10h01.20.704,kura-B2,2020.1.2,Win32,60,,,"[""space"",""space"",""space"",""space"",""space"",""space"",""space"",""space"",""space"",""space"",""space"",""space"",""space"",""space"",""space"",""space"",""space"",""space"",""space""]","[0.7243200000084471,1.3700799999933224,2.130585000006249,2.823100000008708,3.4830350000120234,4.040100000012899,4.664935000007972,5.312984999996843,5.944229999993695,6.644014999998035,7.298624999995809,7.994185000017751,8.758254999993369,9.326094999996712,9.959499999997206,10.564710000006016,11.257685000018682,11.940419999998994,12.621199999994133]",space,1.034355,0.0,2.0,2.0,2.0,1.0,,,,,,,,,,,,,
,,,,,,,,,,,block_1/none_t_119_4.wav,timbre,t,none,119.0,1.977931805,11.04042614,,,,Yes,JBL E45BT,15 Years,No,f,25,Left,Yes,1,2020-09-21_10h01.20.704,kura-B2,2020.1.2,Win32,60,,,"[""space"",""space"",""space"",""space"",""space"",""space"",""space"",""space"",""space"",""space"",""space"",""space""]","[0.4063050000113435,0.9173500000033528,1.7514350000128616,2.352359999989858,3.09885999999824,3.698529999994207,4.3700299999909475,5.060224999993807,5.873309999995399,7.028474999999162,8.129825000010896,8.9263149999897]",space,1.120265,0.0,3.0,3.0,27.0,1.0,,,,,,,,,,,,,
,,,,,,,,,,,block_1/weak_t_81_4.wav,timbre,t,weak,81.0,2.31768599,15.5134683,,,,Yes,JBL E45BT,15 Years,No,f,25,Left,Yes,1,2020-09-21_10h01.20.704,kura-B2,2020.1.2,Win32,60,,,"[""space"",""space"",""space"",""space"",""space"",""space"",""space"",""space"",""space"",""space"",""space"",""space"",""space"",""space"",""space"",""space"",""space"",""space"",""space"",""space""]","[0.41595999998389743,1.065039999986766,1.830904999980703,2.449829999997746,3.1016099999833386,3.782600000005914,4.3982449999894015,5.069449999980861,5.8441750000056345,6.410700000007637,7.033534999995027,7.695719999988796,8.376879999996163,9.059600000007777,9.726569999998901,10.473349999985658,11.200604999990901,11.886899999983143,12.50917499998468,13.170894999988377]",space,1.150265,0.0,4.0,4.0,0.0,1.0,,,,,,,,,,,,,
,,,,,,,,,,,block_1/weak_t_92_3.wav,timbre,t,weak,92.0,1.190820523,16.55263458,,,,Yes,JBL E45BT,15 Years,No,f,25,Left,Yes,1,2020-09-21_10h01.20.704,kura-B2,2020.1.2,Win32,60,,,"[""space"",""space"",""space"",""space"",""space"",""space"",""space"",""space"",""space"",""space"",""space"",""space"",""space"",""space"",""space"",""space"",""space"",""space"",""space"",""space""]","[0.434320000000298,0.9176750000042375,1.7482899999886286,2.501124999980675,3.3076599999913014,4.039944999996806,4.901324999984354,5.745954999991227,6.577349999977741,7.444489999994403,8.1934299999848,8.987854999984847,9.760144999978365,10.525099999998929,11.325479999999516,12.064589999994496,12.894479999988107,13.65343499998562,14.413424999976996,15.10770500000217]",space,1.232325,0.0,5.0,5.0,38.0,1.0,,,,,,,,,,,,,
,,,,,,,,,,,block_1/none_t_81_4.wav,timbre,t,none,81.0,1.802900323,17.84380735,,,,Yes,JBL E45BT,15 Years,No,f,25,Left,Yes,1,2020-09-21_10h01.20.704,kura-B2,2020.1.2,Win32,60,,,"[""space"",""space"",""space"",""space"",""space"",""space"",""space"",""space"",""space"",""space"",""space"",""space"",""space"",""space"",""space"",""space"",""space"",""space"",""space"",""space"",""space""]","[0.43821999998181127,1.2987450000073295,2.036005000001751,2.7206200000073295,3.425855000008596,4.266860000003362,4.961680000007618,5.81917999999132,6.645629999984521,7.415334999997867,8.22537500000908,8.994734999985667,9.814415000000736,10.596025000006193,11.35543999998481,12.031374999991385,12.821664999995846,13.737924999993993,14.559045000001788,15.453134999988833,16.29044499999145]",space,0.53797,0.0,6.0,6.0,12.0,1.0,,,,,,,,,,,,,
,,,,,,,,,,,block_1/medium_t_119_3.wav,timbre,t,medium,119.0,2.226222359,10.98477111,,,,Yes,JBL E45BT,15 Years,No,f,25,Left,Yes,1,2020-09-21_10h01.20.704,kura-B2,2020.1.2,Win32,60,,,"[""space"",""space"",""space"",""space"",""space"",""space"",""space"",""space"",""space"",""space"",""space"",""space"",""space"",""space"",""space"",""space"",""space"",""space"",""space""]","[0.46765000000596046,1.2487700000056066,1.5667000000248663,2.015750000020489,2.4639100000204053,2.9041550000256393,3.3820400000258815,3.8667550000245683,4.231735000008484,4.696655000007013,5.163490000006277,5.617859999998473,6.11498000001302,6.562390000006417,6.9946100000233855,7.431555000017397,7.877700000011828,8.30859000000055,8.717315000016242]",space,0.61679,0.0,7.0,7.0,37.0,1.0,,,,,,,,,,,,,
,,,,,,,,,,,block_1/weak_t_92_4.wav,timbre,t,weak,92.0,1.530875014,13.01332399,,,,Yes,JBL E45BT,15 Years,No,f,25,Left,Yes,1,2020-09-21_10h01.20.704,kura-B2,2020.1.2,Win32,60,,,"[""space"",""space"",""space"",""space"",""space"",""space"",""space"",""space"",""space"",""space"",""space"",""space"",""space"",""space"",""space"",""space"",""space"",""space"",""space"",""space"",""space""]","[0.3944600000104401,0.7008149999892339,1.5211600000038743,2.0672499999927823,2.6651049999927636,3.2316649999993388,3.850845000008121,4.385334999999031,4.995809999993071,5.51178999998956,6.131599999993341,6.74411999998847,7.368140000005951,7.926275000005262,8.475290000002133,9.013739999994868,9.651355000009062,10.256094999989728,10.874134999990929,11.3728800000099,11.955790000007255]",space,0.625135,0.0,8.0,8.0,29.0,1.0,,,,,,,,,,,,,
,,,,,,,,,,,block_1/medium_t_81_3.wav,timbre,t,medium,81.0,1.352794873,13.94617356,,,,Yes,JBL E45BT,15 Years,No,f,25,Left,Yes,1,2020-09-21_10h01.20.704,kura-B2,2020.1.2,Win32,60,,,"[""space"",""space"",""space"",""space"",""space"",""space"",""space"",""space"",""space"",""space"",""space"",""space"",""space"",""space"",""space"",""space"",""space"",""space"",""space""]","[0.8591899999883026,1.4159250000084285,2.200535000010859,2.835220000008121,3.4864550000056624,4.180240000016056,4.862859999993816,5.4812049999891315,6.113550000009127,6.769724999991013,7.476694999990286,8.053474999993341,8.645120000001043,9.327164999995148,9.925725000008242,10.613550000009127,11.261014999996405,11.939780000015162,12.539965000003576]",space,2.64734,0.0,9.0,9.0,8.0,1.0,,,,,,,,,,,,,
,,,,,,,,,,,block_1/strong_t_92_4.wav,timbre,t,strong,92.0,1.022726917,13.26377,,,,Yes,JBL E45BT,15 Years,No,f,25,Left,Yes,1,2020-09-21_10h01.20.704,kura-B2,2020.1.2,Win32,60,,,"[""space"",""space"",""space"",""space"",""space"",""space"",""space"",""space"",""space"",""space"",""space"",""space"",""space"",""space"",""space"",""space"",""space"",""space"",""space"",""space""]","[0.8212399999902118,1.2503799999831244,1.931784999993397,2.5396400000026915,3.2168499999970663,3.872094999998808,4.44602499998291,5.13633999999729,5.763329999987036,6.355294999986654,6.951039999985369,7.646095000003697,8.352914999995846,9.00470999997924,9.592049999977462,10.232774999982212,10.903510000003735,11.474849999998696,12.12255999998888,12.722804999997607]",space,1.567365,0.0,10.0,10.0,9.0,1.0,,,,,,,,,,,,,
,,,,,,,,,,,block_1/strong_t_72_3.wav,timbre,t,strong,72.0,1.503157527,17.98057249,,,,Yes,JBL E45BT,15 Years,No,f,25,Left,Yes,1,2020-09-21_10h01.20.704,kura-B2,2020.1.2,Win32,60,,,"[""space"",""space"",""space"",""space"",""space"",""space"",""space"",""space"",""space"",""space"",""space"",""space"",""space"",""space"",""space"",""space"",""space"",""space"",""space"",""space""]","[0.8882250000024214,1.988294999988284,2.947119999997085,3.5126900000032037,4.421154999989085,5.245070000004489,6.145155000005616,7.020515000011073,7.865935000008903,8.695810000004712,9.52937999999267,10.375404999998864,11.223729999997886,12.063549999991665,12.977429999999003,13.762524999998277,14.535289999999804,15.417045000009239,16.201235000015004,17.085710000013933]",space,1.03448,0.0,11.0,11.0,5.0,1.0,,,,,,,,,,,,,
,,,,,,,,,,,block_1/strong_t_119_4.wav,timbre,t,strong,119.0,1.237037075,11.10492823,,,,Yes,JBL E45BT,15 Years,No,f,25,Left,Yes,1,2020-09-21_10h01.20.704,kura-B2,2020.1.2,Win32,60,,,"[""space"",""space"",""space"",""space"",""space"",""space"",""space"",""space"",""space"",""space"",""space"",""space"",""space"",""space"",""space"",""space"",""space"",""space"",""space"",""space"",""space""]","[0.4236500000115484,0.9558600000164006,1.2851599999994505,1.7338250000029802,2.2668000000121538,2.7668899999989662,3.2932000000146218,3.7523199999995995,4.288014999998268,4.779920000000857,5.296059999993304,5.754630000010366,6.286240000015823,6.751459999999497,7.2627100000099745,7.752559999993537,8.27873499999987,8.795280000020284,9.309754999994766,9.766830000007758,10.292110000009416]",space,0.65558,0.0,12.0,12.0,39.0,1.0,,,,,,,,,,,,,
,,,,,,,,,,,block_1/weak_t_105_4.wav,timbre,t,weak,105.0,1.882880114,13.41285744,,,,Yes,JBL E45BT,15 Years,No,f,25,Left,Yes,1,2020-09-21_10h01.20.704,kura-B2,2020.1.2,Win32,60,,,"[""space"",""space"",""space"",""space"",""space"",""space"",""space"",""space"",""space"",""space"",""space"",""space"",""space"",""space"",""space"",""space"",""space"",""space"",""space"",""space"",""space""]","[0.4404600000125356,1.0850050000008196,1.6913000000058673,2.403070000000298,2.9872700000123587,3.5345650000090245,4.092120000015711,4.698000000003958,5.166635000001406,5.632390000013402,6.170085000019753,6.732654999999795,7.304984999995213,7.900840000016615,8.511075000016717,9.114635000005364,9.710560000006808,10.230305000004591,10.817284999997355,11.392110000015236,11.994895000010729]",space,0.96994,0.0,13.0,13.0,7.0,1.0,,,,,,,,,,,,,
,,,,,,,,,,,block_1/medium_t_72_3.wav,timbre,t,medium,72.0,2.203768917,18.98399567,,,,Yes,JBL E45BT,15 Years,No,f,25,Left,Yes,1,2020-09-21_10h01.20.704,kura-B2,2020.1.2,Win32,60,,,"[""space"",""space"",""space"",""space"",""space"",""space"",""space"",""space"",""space"",""space"",""space"",""space"",""space"",""space"",""space"",""space"",""space"",""space"",""space""]","[0.7873600000166334,1.857944999996107,2.659895000018878,3.5430900000210386,4.306540000019595,5.156879999994999,6.048219999996945,7.014439999999013,7.863890000007814,8.763555000012275,9.579105000011623,10.428935000003548,11.290869999997085,12.166370000020834,13.059349999995902,13.897025000012945,14.85855000000447,15.796675000019604,16.611480000021402]",space,1.88762,0.0,14.0,14.0,31.0,1.0,,,,,,,,,,,,,
,,,,,,,,,,,block_1/medium_t_72_4.wav,timbre,t,medium,72.0,1.659874932,19.69733525,,,,Yes,JBL E45BT,15 Years,No,f,25,Left,Yes,1,2020-09-21_10h01.20.704,kura-B2,2020.1.2,Win32,60,,,"[""space"",""space"",""space"",""space"",""space"",""space"",""space"",""space"",""space"",""space"",""space"",""space"",""space"",""space"",""space"",""space"",""space"",""space"",""space""]","[1.4237799999827985,2.215024999983143,3.5502850000048056,4.370679999992717,5.220535000000382,6.128969999990659,7.116589999990538,7.978700000006938,8.85376999998698,9.801390000007814,10.711275000008754,11.564010000001872,12.460269999981392,13.347854999999981,14.275200000003679,15.158924999996088,16.06210999999894,16.959834999986924,17.85314500000095]",space,1.23347,0.0,15.0,15.0,36.0,1.0,,,,,,,,,,,,,
,,,,,,,,,,,block_1/medium_t_92_4.wav,timbre,t,medium,92.0,1.590939721,14.58753836,,,,Yes,JBL E45BT,15 Years,No,f,25,Left,Yes,1,2020-09-21_10h01.20.704,kura-B2,2020.1.2,Win32,60,,,"[""space"",""space"",""space"",""space"",""space"",""space"",""space"",""space"",""space"",""space"",""space"",""space"",""space"",""space"",""space"",""space"",""space"",""space"",""space"",""space"",""space""]","[0.41936500000883825,1.03458999999566,1.467384999996284,2.2717000000120606,2.890034999989439,3.5861150000127964,4.266505000006873,4.927269999985583,5.654985000001034,6.212904999993043,6.869199999986449,7.550404999987222,8.229874999989988,8.876264999998966,9.495120000006864,10.18042499999865,10.82785000000149,11.557579999993322,12.184084999986226,12.794430000009015,13.474030000012135]",space,1.03206,0.0,16.0,16.0,25.0,1.0,,,,,,,,,,,,,
,,,,,,,,,,,block_1/strong_t_105_3.wav,timbre,t,strong,105.0,1.518747526,13.05135524,,,,Yes,JBL E45BT,15 Years,No,f,25,Left,Yes,1,2020-09-21_10h01.20.704,kura-B2,2020.1.2,Win32,60,,,"[""space"",""space"",""space"",""space"",""space"",""space"",""space"",""space"",""space"",""space"",""space"",""space"",""space"",""space"",""space"",""space"",""space"",""space"",""space"",""space""]","[0.9365549999929499,1.4756099999940488,2.0492300000041723,2.642280000000028,3.216839999979129,3.7991449999972247,4.382964999997057,5.013630000001285,5.566149999998743,6.112174999987474,6.744030000001658,7.31995000000461,7.943759999994654,8.551999999996042,9.069034999993164,9.658005000004778,10.2155849999981,10.810074999986682,11.424659999989672,12.010125000000698]",space,4.111785,0.0,17.0,17.0,21.0,1.0,,,,,,,,,,,,,
,,,,,,,,,,,block_1/none_t_119_3.wav,timbre,t,none,119.0,1.169893331,12.28885025,,,,Yes,JBL E45BT,15 Years,No,f,25,Left,Yes,1,2020-09-21_10h01.20.704,kura-B2,2020.1.2,Win32,60,,,"[""space"",""space"",""space"",""space"",""space"",""space"",""space"",""space"",""space"",""space"",""space"",""space"",""space"",""space"",""space"",""space"",""space"",""space"",""space""]","[0.8504700000048615,1.2523900000087451,1.5722700000042096,2.1225799999956507,2.7406250000058208,3.350845000008121,3.9987400000100024,4.906909999990603,5.384725000010803,5.970000000001164,6.581750000012107,7.219894999987446,7.807789999991655,8.471099999995204,9.029964999994263,9.611910000006901,10.16841499999282,10.762784999998985,11.410420000000158]",space,0.46713,0.0,18.0,18.0,32.0,1.0,,,,,,,,,,,,,
,,,,,,,,,,,block_1/medium_t_105_4.wav,timbre,t,medium,105.0,2.498438995,14.23458412,,,,Yes,JBL E45BT,15 Years,No,f,25,Left,Yes,1,2020-09-21_10h01.20.704,kura-B2,2020.1.2,Win32,60,,,"[""space"",""space"",""space"",""space"",""space"",""space"",""space"",""space"",""space"",""space"",""space"",""space"",""space"",""space"",""space"",""space"",""space"",""space"",""space"",""space""]","[0.8698100000037812,1.3850800000072923,1.9669649999996182,2.634845000022324,3.1586050000041723,3.7419150000205263,4.416170000011334,5.016815000009956,5.658450000017183,6.283835000009276,6.901610000000801,7.4842050000152085,8.093800000002375,8.728920000023209,9.428490000020247,10.027275000000373,10.631560000008903,11.195295000012266,11.723955000023125,12.359285000013188]",space,2.275015,0.0,19.0,19.0,23.0,1.0,,,,,,,,,,,,,
,,,,,,,,,,,block_1/none_t_92_3.wav,timbre,t,none,92.0,1.813425609,13.88349364,,,,Yes,JBL E45BT,15 Years,No,f,25,Left,Yes,1,2020-09-21_10h01.20.704,kura-B2,2020.1.2,Win32,60,,,"[""space"",""space"",""space"",""space"",""space"",""space"",""space"",""space"",""space"",""space"",""space"",""space"",""space"",""space"",""space"",""space"",""space"",""space""]","[0.859519999998156,1.5506849999947008,2.1154249999963213,2.754914999997709,3.464175000000978,4.152364999987185,4.856774999992922,5.545515000005253,6.238255000003846,6.964459999988321,7.540030000003753,8.292164999991655,8.93273999998928,9.603774999995949,10.323004999983823,10.860039999999572,11.611894999979995,12.112209999992047]",space,0.83662,0.0,20.0,20.0,17.0,1.0,,,,,,,,,,,,,
,,,,,,,,,,,block_1/weak_t_72_4.wav,timbre,t,weak,72.0,1.01386198,17.48964429,,,,Yes,JBL E45BT,15 Years,No,f,25,Left,Yes,1,2020-09-21_10h01.20.704,kura-B2,2020.1.2,Win32,60,,,"[""space"",""space"",""space"",""space"",""space"",""space"",""space"",""space"",""space"",""space"",""space"",""space"",""space"",""space"",""space"",""space"",""space"",""space"",""space""]","[0.953429999994114,1.9454299999924842,3.052354999992531,3.900164999999106,4.711204999999609,5.574869999982184,6.327499999984866,7.143595000001369,7.972249999991618,8.87408000000869,9.723629999993136,10.673240000003716,11.531549999985145,12.346690000005765,13.18555500000366,14.035154999990482,14.895114999992074,15.719524999993155,16.53312000000733]",space,2.22319,0.0,21.0,21.0,33.0,1.0,,,,,,,,,,,,,
,,,,,,,,,,,block_1/none_t_105_3.wav,timbre,t,none,105.0,2.248615294,16.06934092,,,,Yes,JBL E45BT,15 Years,No,f,25,Left,Yes,1,2020-09-21_10h01.20.704,kura-B2,2020.1.2,Win32,60,,,"[""space"",""space"",""space"",""space"",""space"",""space"",""space"",""space"",""space"",""space"",""space"",""space"",""space"",""space"",""space"",""space"",""space""]","[1.0392399999836925,1.8239400000020396,2.63723999998183,3.5023199999995995,4.313159999990603,5.061914999998407,5.877099999983329,6.744079999974929,7.546535000001313,8.325519999983953,9.145204999978887,9.918909999978496,10.74569499999052,11.574434999987716,12.478959999978542,13.349369999981718,14.172554999997374]",space,0.450975,0.0,22.0,22.0,14.0,1.0,,,,,,,,,,,,,
,,,,,,,,,,,block_1/none_t_92_4.wav,timbre,t,none,92.0,2.400883628,17.24192671,,,,Yes,JBL E45BT,15 Years,No,f,25,Left,Yes,1,2020-09-21_10h01.20.704,kura-B2,2020.1.2,Win32,60,,,"[""space"",""space"",""space"",""space"",""space"",""space"",""space"",""space"",""space"",""space"",""space"",""space"",""space"",""space"",""space"",""space""]","[1.323709999996936,2.1584149999835063,3.4237799999827985,4.614949999988312,5.382744999980787,6.255769999988843,7.211129999981495,8.074804999982007,8.93236999999499,9.747154999990016,10.500969999993686,11.334340000001248,12.195804999995744,13.048305000003893,13.852604999992764,14.76125999999931]",space,0.68049,0.0,23.0,23.0,22.0,1.0,,,,,,,,,,,,,
,,,,,,,,,,,block_1/weak_t_105_3.wav,timbre,t,weak,105.0,2.038080476,13.26905553,,,,Yes,JBL E45BT,15 Years,No,f,25,Left,Yes,1,2020-09-21_10h01.20.704,kura-B2,2020.1.2,Win32,60,,,"[""space"",""space"",""space"",""space"",""space"",""space"",""space"",""space"",""space"",""space"",""space"",""space"",""space"",""space"",""space"",""space""]","[1.5828599999949802,2.215864999976475,3.087359999975888,4.025934999983292,4.8297399999864865,5.416419999994105,5.979070000001229,6.544024999981048,7.115339999989374,7.751789999980247,8.365494999976363,8.918169999989914,9.509359999996377,10.05310499999905,10.667084999993676,11.294309999997495]",space,0.91818,0.0,24.0,24.0,4.0,1.0,,,,,,,,,,,,,
,,,,,,,,,,,block_1/weak_t_119_3.wav,timbre,t,weak,119.0,1.729530605,11.14109523,,,,Yes,JBL E45BT,15 Years,No,f,25,Left,Yes,1,2020-09-21_10h01.20.704,kura-B2,2020.1.2,Win32,60,,,"[""space"",""space"",""space"",""space"",""space"",""space"",""space"",""space"",""space"",""space"",""space"",""space"",""space"",""space"",""space"",""space"",""space"",""space"",""space""]","[0.41811499997857027,1.124309999984689,1.5986099999863654,2.044449999986682,2.7200299999967683,3.2659549999807496,3.8465549999964423,4.3710100000025705,4.863369999977294,5.3729849999945145,5.852524999994785,6.439944999990985,7.037609999999404,7.544774999987567,8.031529999978375,8.497234999987995,8.975405000004685,9.44225500000175,9.870469999994384]",space,0.668595,0.0,25.0,25.0,13.0,1.0,,,,,,,,,,,,,
,,,,,,,,,,,block_1/none_t_72_4.wav,timbre,t,none,72.0,1.772355542,25.47190203,,,,Yes,JBL E45BT,15 Years,No,f,25,Left,Yes,1,2020-09-21_10h01.20.704,kura-B2,2020.1.2,Win32,60,,,"[""space"",""space"",""space"",""space"",""space"",""space"",""space"",""space"",""space"",""space"",""space"",""space"",""space"",""space"",""space"",""space"",""space"",""space"",""space"",""space"",""space"",""space"",""space"",""space"",""space"",""space"",""space"",""space"",""space"",""space"",""space"",""space"",""space"",""space"",""space"",""space"",""space"",""space"",""space"",""space"",""space"",""space"",""space"",""space""]","[0.844665000011446,1.332300000009127,1.8051500000001397,2.316094999987399,2.8091999999887776,3.9415849999932107,4.501480000006268,5.045459999993909,5.524784999986878,5.995330000005197,6.561320000007981,7.115965000004508,7.693085000006249,8.152449999994133,8.692110000003595,9.21957499999553,9.747494999988703,10.313709999987623,10.843590000004042,11.390654999995604,11.909639999998035,12.430395000003045,12.982415000005858,13.544189999985974,14.15151500000502,14.704209999996237,15.273134999995818,15.808395000000019,16.344154999998864,16.834800000011455,17.326330000010785,17.876580000011018,18.426004999986617,18.952764999994542,19.486429999989923,20.015944999991916,20.527919999993173,20.974634999991395,21.558504999993602,22.112980000005336,22.603135000012117,23.11520999998902,23.646145000006072,24.194640000001527]",space,0.61765,0.0,26.0,26.0,15.0,1.0,,,,,,,,,,,,,
,,,,,,,,,,,block_1/strong_t_81_3.wav,timbre,t,strong,81.0,2.437587677,17.65296183,,,,Yes,JBL E45BT,15 Years,No,f,25,Left,Yes,1,2020-09-21_10h01.20.704,kura-B2,2020.1.2,Win32,60,,,"[""space"",""space"",""space"",""space"",""space"",""space"",""space"",""space"",""space"",""space"",""space"",""space"",""space"",""space"",""space"",""space"",""space"",""space"",""space"",""space"",""space""]","[0.6095849999983329,0.9554249999928288,1.8650899999774992,2.618835000001127,3.4280799999833107,4.199749999999767,5.029734999989159,5.672964999976102,6.485084999992978,7.261284999985946,8.026465000002645,8.826279999979306,9.627614999975776,10.440834999986691,11.20265500000096,11.939059999975143,12.7052449999901,13.449079999991227,14.221454999991693,15.016694999998435,15.810339999996359]",space,2.30637,0.0,27.0,27.0,24.0,1.0,,,,,,,,,,,,,
,,,,,,,,,,,block_1/weak_t_72_3.wav,timbre,t,weak,72.0,1.571303333,17.03996546,,,,Yes,JBL E45BT,15 Years,No,f,25,Left,Yes,1,2020-09-21_10h01.20.704,kura-B2,2020.1.2,Win32,60,,,"[""space"",""space"",""space"",""space"",""space"",""space"",""space"",""space"",""space"",""space"",""space"",""space"",""space"",""space"",""space"",""space"",""space"",""space"",""space"",""space""]","[0.43565999998827465,0.9831649999832734,1.7670449999859557,2.5044949999719393,3.2815999999875203,4.09158499998739,4.923044999974081,5.747494999988703,6.5215749999915715,7.279199999989942,8.021409999986645,8.865519999992102,9.71994999999879,10.481979999982286,11.314814999990631,12.110369999980321,12.922439999994822,13.722279999987222,14.538644999993267,15.322804999974323]",space,0.187775,0.0,28.0,28.0,26.0,1.0,,,,,,,,,,,,,
,,,,,,,,,,,block_1/strong_t_119_3.wav,timbre,t,strong,119.0,1.722630655,12.55029505,,,,Yes,JBL E45BT,15 Years,No,f,25,Left,Yes,1,2020-09-21_10h01.20.704,kura-B2,2020.1.2,Win32,60,,,"[""space"",""space"",""space"",""space"",""space"",""space"",""space"",""space"",""space"",""space"",""space"",""space"",""space"",""space"",""space"",""space"",""space"",""space"",""space"",""space""]","[0.9326850000070408,1.4499350000114646,1.7606200000154786,2.332665000023553,2.930495000007795,3.5293100000126287,4.04605000000447,4.583890000008978,5.177865000005113,5.728655000013532,6.261480000015581,6.874770000024,7.415995000017574,7.960780000023078,8.541755000012927,9.063515000016196,9.627605000016047,10.17469000001438,10.713750000024447,11.310815000004368]",space,1.1499,0.0,29.0,29.0,28.0,1.0,,,,,,,,,,,,,
,,,,,,,,,,,block_1/medium_t_119_4.wav,timbre,t,medium,119.0,1.399295551,11.22011188,,,,Yes,JBL E45BT,15 Years,No,f,25,Left,Yes,1,2020-09-21_10h01.20.704,kura-B2,2020.1.2,Win32,60,,,"[""space"",""space"",""space"",""space"",""space"",""space"",""space"",""space"",""space"",""space"",""space"",""space"",""space"",""space"",""space"",""space"",""space"",""space"",""space""]","[0.8008750000153668,1.332090000010794,1.7480600000126287,2.1668900000222493,2.616955000004964,3.114675000018906,3.564135000022361,4.096515000012005,4.541880000004312,5.0196350000042,5.561515000008512,6.0212049999972805,6.545280000020284,7.115535000019008,7.609790000016801,8.142460000002757,8.64047000001301,9.714360000012675,10.250140000018291]",space,2.05513,0.0,30.0,30.0,30.0,1.0,,,,,,,,,,,,,
,,,,,,,,,,,block_1/medium_t_105_3.wav,timbre,t,medium,105.0,1.131854181,11.90867958,,,,Yes,JBL E45BT,15 Years,No,f,25,Left,Yes,1,2020-09-21_10h01.20.704,kura-B2,2020.1.2,Win32,60,,,"[""space"",""space"",""space"",""space"",""space"",""space"",""space"",""space"",""space"",""space"",""space"",""space"",""space"",""space"",""space"",""space"",""space"",""space"",""space"",""space""]","[0.8583750000107102,1.3748250000062399,1.9066549999988638,2.4655800000182353,3.050600000016857,3.5500650000176392,4.059804999997141,4.613050000014482,5.181284999998752,5.719004999991739,6.294469999993453,6.827905000012834,7.410204999992857,7.962889999995241,8.553360000019893,9.067700000014156,9.606365000014193,10.158905000018422,10.762545000005048,11.291200000006938]",space,2.79248,0.0,31.0,31.0,16.0,1.0,,,,,,,,,,,,,
,,,,,,,,,,,block_1/medium_t_92_3.wav,timbre,t,medium,92.0,2.360774731,14.34626226,,,,Yes,JBL E45BT,15 Years,No,f,25,Left,Yes,1,2020-09-21_10h01.20.704,kura-B2,2020.1.2,Win32,60,,,"[""space"",""space"",""space"",""space"",""space"",""space"",""space"",""space"",""space"",""space"",""space"",""space"",""space"",""space"",""space"",""space"",""space"",""space"",""space"",""space""]","[0.9706999999762047,1.6410199999809265,2.25189999997383,2.8658549999818206,3.4201349999930244,4.066919999982929,4.565949999989243,5.212719999981346,5.862109999987297,6.496199999994133,7.144214999978431,7.711479999998119,8.221349999977974,8.877679999975953,9.477214999991702,10.144619999977294,10.772375000000466,11.360430000000633,12.007684999989579,12.497399999992922]",space,0.817595,0.0,32.0,32.0,35.0,1.0,,,,,,,,,,,,,
,,,,,,,,,,,block_1/none_t_105_4.wav,timbre,t,none,105.0,1.782068205,15.59785052,,,,Yes,JBL E45BT,15 Years,No,f,25,Left,Yes,1,2020-09-21_10h01.20.704,kura-B2,2020.1.2,Win32,60,,,"[""space"",""space"",""space"",""space"",""space"",""space"",""space"",""space"",""space"",""space"",""space"",""space"",""space"",""space"",""space"",""space"",""space"",""space"",""space"",""space"",""space"",""space"",""space"",""space""]","[0.4680850000004284,0.9679449999821372,1.5321100000001024,2.1638249999959953,2.733074999996461,3.2985899999912363,3.8813699999882374,4.443479999987176,5.077549999987241,5.696059999987483,6.201604999980191,6.791104999982053,7.442364999995334,8.075024999998277,8.712115000002086,9.309189999999944,9.902919999993173,10.54423999998835,11.141639999987092,11.693654999980936,12.292909999989206,12.84203499997966,13.562160000001313,14.153044999984559]",space,0.601125,0.0,33.0,33.0,20.0,1.0,,,,,,,,,,,,,
,,,,,,,,,,,block_1/none_t_81_3.wav,timbre,t,none,81.0,2.10326082,21.36648077,,,,Yes,JBL E45BT,15 Years,No,f,25,Left,Yes,1,2020-09-21_10h01.20.704,kura-B2,2020.1.2,Win32,60,,,"[""space"",""space"",""space"",""space"",""space"",""space"",""space"",""space"",""space"",""space"",""space"",""space"",""space"",""space"",""space"",""space"",""space"",""space"",""space"",""space"",""space"",""space"",""space"",""space"",""space"",""space"",""space"",""space"",""space"",""space"",""space"",""space"",""space"",""space"",""space""]","[0.4525549999962095,0.9001099999877624,1.5158100000116974,2.7003099999856204,3.030460000009043,3.5297849999915343,4.180640000005951,4.830049999989569,5.395489999995334,5.9130500000028405,6.567834999994375,7.080649999988964,7.6279649999924,8.192364999995334,8.709174999996321,9.235075000004144,9.778384999983246,10.24322000000393,10.808619999996154,11.390519999986282,11.89117499999702,12.422454999992624,13.008540000009816,13.604554999998072,14.108749999984866,14.77063499999349,15.253300000011222,15.777475000009872,16.362174999987474,16.857094999984838,17.408594999986235,17.94518499998958,18.5504849999852,19.101499999989755,19.682159999996657]",space,0.804315,0.0,34.0,34.0,10.0,1.0,,,,,,,,,,,,,
,,,,,,,,,,,block_1/weak_t_119_4.wav,timbre,t,weak,119.0,1.438381355,12.04736095,,,,Yes,JBL E45BT,15 Years,No,f,25,Left,Yes,1,2020-09-21_10h01.20.704,kura-B2,2020.1.2,Win32,60,,,"[""space"",""space"",""space"",""space"",""space"",""space"",""space"",""space"",""space"",""space"",""space"",""space"",""space"",""space"",""space"",""space"",""space"",""space"",""space""]","[0.8490100000053644,1.4087599999911617,1.9973049999971408,2.532359999982873,3.048500000004424,3.601364999980433,4.122354999999516,5.047534999990603,5.594314999994822,6.119384999998147,6.662140000000363,7.177529999986291,7.722309999982826,8.259454999992158,8.77679000000353,9.307444999984,9.795964999997523,10.356509999983246,10.891680000000633]",space,1.36778,0.0,35.0,35.0,11.0,1.0,,,,,,,,,,,,,
,,,,,,,,,,,block_1/strong_t_92_3.wav,timbre,t,strong,92.0,1.987733848,15.03440052,,,,Yes,JBL E45BT,15 Years,No,f,25,Left,Yes,1,2020-09-21_10h01.20.704,kura-B2,2020.1.2,Win32,60,,,"[""space"",""space"",""space"",""space"",""space"",""space"",""space"",""space"",""space"",""space"",""space"",""space"",""space"",""space"",""space"",""space"",""space"",""space"",""space"",""space""]","[0.8490400000009686,1.5480399999942165,2.2222949999850243,2.89368999999715,3.5350349999789614,4.23110999999335,4.835789999982808,5.569640000001527,6.244774999999208,6.893634999985807,7.573399999993853,8.192515000002459,8.911670000001322,9.560094999993453,10.226769999979297,10.872799999982817,11.605725000001257,12.20887999999104,12.990814999997383,13.594719999993686]",space,0.3824,0.0,36.0,36.0,3.0,1.0,,,,,,,,,,,,,
,,,,,,,,,,,block_1/strong_t_105_4.wav,timbre,t,strong,105.0,2.094581561,12.21235934,,,,Yes,JBL E45BT,15 Years,No,f,25,Left,Yes,1,2020-09-21_10h01.20.704,kura-B2,2020.1.2,Win32,60,,,"[""space"",""space"",""space"",""space"",""space"",""space"",""space"",""space"",""space"",""space"",""space"",""space"",""space"",""space"",""space"",""space"",""space"",""space"",""space"",""space""]","[1.1856649999972433,1.522274999995716,2.031814999994822,2.530785000009928,3.049029999994673,3.5398850000055972,4.034745000011753,4.5690750000067055,5.05043500001193,5.613149999990128,6.063159999990603,6.543834999989485,7.061365000001388,7.5679200000013225,8.092139999993378,8.602389999985462,9.061509999999544,9.623885000008158,10.108789999998407,10.578424999985145]",space,1.94851,0.0,37.0,37.0,18.0,1.0,,,,,,,,,,,,,
,,,,,,,,,,,block_1/none_t_72_3.wav,timbre,t,none,72.0,1.707698408,21.90234693,,,,Yes,JBL E45BT,15 Years,No,f,25,Left,Yes,1,2020-09-21_10h01.20.704,kura-B2,2020.1.2,Win32,60,,,"[""space"",""space"",""space"",""space"",""space"",""space"",""space"",""space"",""space"",""space"",""space"",""space"",""space"",""space"",""space"",""space"",""space"",""space"",""space"",""space"",""space"",""space"",""space"",""space"",""space"",""space"",""space"",""space"",""space"",""space"",""space"",""space"",""space"",""space"",""space"",""space"",""space"",""space"",""space"",""space"",""space"",""space"",""space""]","[0.7610600000189152,1.2205550000071526,1.6402999999991152,2.048515000002226,2.4815400000079535,2.865894999995362,3.260355000005802,3.730265000020154,4.147079999995185,4.598970000020927,5.136170000012498,5.680805000010878,6.196420000022044,6.6960350000008475,7.132050000014715,7.613700000016252,8.111820000020089,8.567104999994626,9.02569000000949,9.576809999998659,10.017850000003818,10.483334999997169,10.917455000017071,11.410230000008596,11.90430500000366,12.374360000016168,12.912260000011884,13.458964999997988,13.973095000023022,14.489315000013448,14.97091500001261,15.46095000000787,15.988095000007888,16.426215000014054,16.93650000001071,17.408110000018496,17.91937499999767,18.425370000011753,18.87260500001139,19.331560000020545,19.833615000010468,20.279890000005253,21.552140000014333]",space,0.088365,0.0,38.0,38.0,19.0,1.0,,,,,,,,,,,,,
,,,,,,,,,,,block_1/weak_t_81_3.wav,timbre,t,weak,81.0,1.53156375,17.80117826,,,,Yes,JBL E45BT,15 Years,No,f,25,Left,Yes,1,2020-09-21_10h01.20.704,kura-B2,2020.1.2,Win32,60,,,"[""space"",""space"",""space"",""space"",""space"",""space"",""space"",""space"",""space"",""space"",""space"",""space"",""space"",""space"",""space"",""space"",""space"",""space"",""space"",""space"",""space"",""space"",""space""]","[0.46668500002124347,0.8847050000040326,1.3818599999940488,2.2996750000165775,3.0736000000033528,3.8295800000196323,4.527610000019195,5.313315000006696,6.028925000020536,6.784760000009555,7.526379999995697,8.29353500000434,9.089330000017071,9.84063000002061,10.539634999993723,11.242859999998473,12.005015000002459,12.770994999998948,13.518825000006473,14.305550000019139,15.120590000005905,15.901175000006333,16.579295000003185]",space,0.550595,0.0,39.0,39.0,6.0,1.0,,,,,,,,,,,,,
,,,,,,,,,,,block_2/strong_n_105_4.wav,no,n,strong,105.0,1.723608797,13.55862014,,,,Yes,JBL E45BT,15 Years,No,f,25,Left,Yes,1,2020-09-21_10h01.20.704,kura-B2,2020.1.2,Win32,60,,,,,,,,,,,,space,8972.86906,"[""space"",""space"",""space"",""space"",""space"",""space"",""space"",""space"",""space"",""space"",""space"",""space"",""space"",""space"",""space"",""space"",""space""]","[2.361849999986589,2.8256899999978486,3.457220000012967,4.043669999984559,4.639945000002626,5.255925000004936,5.878089999983786,6.454380000010133,7.05449999999837,7.638639999990119,8.270025000003443,8.870135000002847,9.436309999990044,10.013849999988452,10.66769000000204,11.26759500001208,11.866290000005392]",space,2.03573,0.0,0.0,0.0,3.0,1.0,,
,,,,,,,,,,,block_2/weak_n_105_4.wav,no,n,weak,105.0,1.277365727,12.0504723,,,,Yes,JBL E45BT,15 Years,No,f,25,Left,Yes,1,2020-09-21_10h01.20.704,kura-B2,2020.1.2,Win32,60,,,,,,,,,,,,,,"[""space"",""space"",""space"",""space"",""space"",""space"",""space"",""space"",""space"",""space"",""space"",""space"",""space"",""space"",""space"",""space"",""space"",""space"",""space"",""space""]","[0.4060299999837298,1.1767799999797717,1.6727149999933317,2.1846349999832455,2.8504099999845494,3.3325799999875017,3.9151699999929406,4.4242949999734265,5.000769999982367,5.551955000002636,6.047759999986738,6.563379999977769,7.048414999997476,7.552529999986291,8.030115000001388,8.587409999978263,9.170734999992419,9.63680999999815,10.261299999983748,10.79675999999563]",space,0.37234,0.0,1.0,1.0,28.0,1.0,,
,,,,,,,,,,,block_2/strong_n_119_3.wav,no,n,strong,119.0,2.299979207,12.06555744,,,,Yes,JBL E45BT,15 Years,No,f,25,Left,Yes,1,2020-09-21_10h01.20.704,kura-B2,2020.1.2,Win32,60,,,,,,,,,,,,,,"[""space"",""space"",""space"",""space"",""space"",""space"",""space"",""space"",""space"",""space"",""space"",""space"",""space"",""space"",""space"",""space"",""space"",""space"",""space"",""space"",""space""]","[0.42292499999348365,0.936390000018946,1.4859050000086427,1.9213900000049762,2.3843050000159565,2.881950000011784,3.333229999989271,3.848245000001043,4.335290000019086,4.7951150000171765,5.341379999999845,5.82181500000479,6.296499999998559,6.762990000019272,7.263795000008031,7.712915000012799,8.243699999991804,8.74907500000154,9.244215000015174,9.752550000006522,10.498584999995728]",space,0.32425,0.0,2.0,2.0,16.0,1.0,,
,,,,,,,,,,,block_2/strong_n_105_3.wav,no,n,strong,105.0,2.095458379,13.32602527,,,,Yes,JBL E45BT,15 Years,No,f,25,Left,Yes,1,2020-09-21_10h01.20.704,kura-B2,2020.1.2,Win32,60,,,,,,,,,,,,,,"[""space"",""space"",""space"",""space"",""space"",""space"",""space"",""space"",""space"",""space"",""space"",""space"",""space"",""space"",""space"",""space"",""space"",""space"",""space"",""space"",""space""]","[0.39228499997989275,0.9355399999767542,1.385645000002114,1.9675049999787007,2.500854999991134,3.100959999981569,3.6502549999859184,4.2501049999846146,4.8068899999761925,5.386104999983218,5.949774999986403,6.553984999975,7.114284999986921,7.721299999975599,8.26121999998577,8.798509999993257,9.394449999992503,9.977084999993167,10.527734999981476,11.111409999984971,11.742700000002515]",space,0.33365,0.0,3.0,3.0,9.0,1.0,,
,,,,,,,,,,,block_2/none_n_119_3.wav,no,n,none,119.0,1.37370001,14.3364211,,,,Yes,JBL E45BT,15 Years,No,f,25,Left,Yes,1,2020-09-21_10h01.20.704,kura-B2,2020.1.2,Win32,60,,,,,,,,,,,,,,"[""space"",""space"",""space"",""space"",""space"",""space"",""space"",""space"",""space"",""space"",""space"",""space"",""space"",""space"",""space"",""space"",""space"",""space"",""space"",""space"",""space"",""space"",""space"",""space"",""space"",""space"",""space""]","[1.023944999995365,1.4343149999931484,1.8019749999821215,2.1991499999730877,2.5821449999948527,3.0063699999900564,3.63277499997821,4.2149549999776355,4.771689999995942,5.365679999989879,5.913219999987632,6.417919999979858,6.9349249999813765,7.428244999990056,7.860929999997097,8.326774999995905,8.627769999993689,9.118629999984478,9.642669999971986,10.082375000001775,10.545919999976832,10.992244999973991,11.46237499997551,11.92438499999298,12.357549999987896,12.794884999984788,13.348769999984142]",space,2.20527,0.0,4.0,4.0,24.0,1.0,,
,,,,,,,,,,,block_2/none_n_92_4.wav,no,n,none,92.0,2.009431863,15.90199422,,,,Yes,JBL E45BT,15 Years,No,f,25,Left,Yes,1,2020-09-21_10h01.20.704,kura-B2,2020.1.2,Win32,60,,,,,,,,,,,,,,"[""space"",""space"",""space"",""space"",""space"",""space"",""space"",""space"",""space"",""space"",""space"",""space"",""space"",""space"",""space"",""space"",""space"",""space"",""space"",""space"",""space"",""space"",""space""]","[1.4445600000017293,2.1350749999983236,2.6841349999886006,3.3418649999948684,3.769654999983686,4.349820000003092,5.148320000007516,5.747600000002421,6.314255000004778,6.864029999997001,7.396565000002738,7.9331249999813735,8.478074999991804,9.012705000001006,9.528744999988703,10.012814999994589,10.496790000004694,11.041520000000673,11.492780000002313,12.025699999998324,12.562639999989187,13.014844999997877,13.947834999999031]",space,0.466555,0.0,5.0,5.0,19.0,1.0,,
,,,,,,,,,,,block_2/none_n_81_3.wav,no,n,none,81.0,2.161532659,18.80565964,,,,Yes,JBL E45BT,15 Years,No,f,25,Left,Yes,1,2020-09-21_10h01.20.704,kura-B2,2020.1.2,Win32,60,,,,,,,,,,,,,,"[""space"",""space"",""space"",""space"",""space"",""space"",""space"",""space"",""space"",""space"",""space"",""space"",""space"",""space"",""space"",""space"",""space"",""space"",""space"",""space"",""space"",""space"",""space"",""space"",""space"",""space"",""space"",""space"",""space"",""space"",""space"",""space"",""space"",""space"",""space""]","[0.43417500000214204,0.9673450000118464,1.500785000011092,1.984535000025062,2.4185700000089128,2.834419999999227,3.3026600000157487,3.7200600000196573,4.215454999997746,4.701930000010179,5.047910000021147,5.563330000004498,6.082175000017742,6.587390000000596,7.094230000016978,7.520784999998796,7.915670000016689,8.44560000000638,8.86293500001193,9.363475000020117,9.844050000016068,10.357625000002372,10.859060000017053,11.31930000000284,11.874609999998938,12.390710000008767,12.955125000007683,13.454775000020163,13.971140000008745,14.503300000011222,15.124414999998407,15.835619999998016,16.33527999999933,16.868000000016764,18.17162000000826]",space,0.333435,0.0,6.0,6.0,29.0,1.0,,
,,,,,,,,,,,block_2/medium_n_81_3.wav,no,n,medium,81.0,2.235189468,17.75582439,,,,Yes,JBL E45BT,15 Years,No,f,25,Left,Yes,1,2020-09-21_10h01.20.704,kura-B2,2020.1.2,Win32,60,,,,,,,,,,,,,,"[""space"",""space"",""space"",""space"",""space"",""space"",""space"",""space"",""space"",""space"",""space"",""space"",""space"",""space"",""space"",""space"",""space"",""space"",""space"",""space"",""space"",""space""]","[0.39798000000882894,0.7815499999851454,1.3079600000055507,1.7817050000012387,2.330874999985099,3.2299950000015087,4.07000499998685,4.862034999998286,5.661129999993136,6.426940000004834,7.2819799999997485,8.106174999993527,8.898480000003474,9.64919500000724,10.432339999997566,11.306320000003325,12.105580000003101,12.86737500000163,13.620555000001332,14.438805000012508,15.229709999985062,16.026405000011437]",space,0.236745,0.0,7.0,7.0,33.0,1.0,,
,,,,,,,,,,,block_2/medium_n_72_4.wav,no,n,medium,72.0,1.35197092,15.86054235,,,,Yes,JBL E45BT,15 Years,No,f,25,Left,Yes,1,2020-09-21_10h01.20.704,kura-B2,2020.1.2,Win32,60,,,,,,,,,,,,,,"[""space"",""space"",""space"",""space"",""space"",""space"",""space"",""space"",""space"",""space"",""space"",""space"",""space"",""space"",""space"",""space"",""space"",""space"",""space""]","[0.48206999999820255,1.7927199999976438,2.5357099999964703,3.289485000015702,3.9515900000096735,4.699680000019725,5.507470000011381,6.243050000019139,6.970670000007885,7.776010000001406,8.475095000001602,9.256655000004685,9.814585000014631,10.573605000012321,11.339880000014091,12.10563999999431,12.8382649999985,13.564650000014808,14.369940000004135]",space,1.468995,0.0,8.0,8.0,7.0,1.0,,
,,,,,,,,,,,block_2/strong_n_81_4.wav,no,n,strong,81.0,1.736263272,17.70810001,,,,Yes,JBL E45BT,15 Years,No,f,25,Left,Yes,1,2020-09-21_10h01.20.704,kura-B2,2020.1.2,Win32,60,,,,,,,,,,,,,,"[""space"",""space"",""space"",""space"",""space"",""space"",""space"",""space"",""space"",""space"",""space"",""space"",""space"",""space"",""space"",""space"",""space"",""space"",""space"",""space"",""space""]","[0.6168999999936204,1.119860000006156,1.9158600000082515,2.717399999994086,3.5641150000155903,4.35361500000181,5.216689999999289,6.016135000010763,6.806849999993574,7.598874999994223,8.446185000007972,9.262175000010757,10.090460000006715,10.833095000009052,11.6758850000042,12.489545000018552,13.271760000005088,14.104909999994561,14.891345000010915,15.786220000009052,16.61899000001722]",space,0.584045,0.0,9.0,9.0,1.0,1.0,,
,,,,,,,,,,,block_2/medium_n_119_4.wav,no,n,medium,119.0,1.918272059,10.22534689,,,,Yes,JBL E45BT,15 Years,No,f,25,Left,Yes,1,2020-09-21_10h01.20.704,kura-B2,2020.1.2,Win32,60,,,,,,,,,,,,,,"[""space"",""space"",""space"",""space"",""space"",""space"",""space"",""space"",""space"",""space"",""space"",""space"",""space"",""space"",""space"",""space"",""space"",""space""]","[1.8079449999786448,2.2151449999946635,2.614029999997001,2.9767699999792967,3.369024999994508,3.780830000003334,4.201744999998482,4.647629999992205,5.095039999985602,5.5465949999925215,6.01697499997681,6.476679999992484,6.960189999983413,7.38773499999661,7.8569900000002235,8.323405000004641,8.740554999996675,9.314909999986412]",space,1.243225,0.0,10.0,10.0,17.0,1.0,,
,,,,,,,,,,,block_2/none_n_81_4.wav,no,n,none,81.0,1.032736778,20.98466422,,,,Yes,JBL E45BT,15 Years,No,f,25,Left,Yes,1,2020-09-21_10h01.20.704,kura-B2,2020.1.2,Win32,60,,,,,,,,,,,,,,"[""space"",""space"",""space"",""space"",""space"",""space"",""space"",""space"",""space"",""space"",""space"",""space"",""space"",""space"",""space"",""space"",""space"",""space"",""space"",""space"",""space"",""space"",""space"",""space"",""space"",""space"",""space"",""space"",""space"",""space"",""space"",""space"",""space"",""space"",""space"",""space"",""space"",""space"",""space""]","[0.06641999998828396,0.7854699999734294,1.182329999981448,1.6756049999967217,2.0477149999933317,2.3973449999775767,2.74678999997559,3.595999999990454,4.1480299999821,4.800669999996899,5.444419999985257,6.011164999974426,6.5767049999849405,7.309399999998277,7.9429699999745935,8.441949999978533,8.93543499999214,9.490669999997408,9.939714999985881,10.411439999996219,10.89773499997682,11.429859999974724,11.926029999973252,12.425894999993034,12.937879999983124,13.404684999988604,13.8425049999787,14.36189000000013,14.872279999981401,15.352204999973765,15.797724999983984,16.317949999996927,16.804369999998016,17.369484999973793,18.122054999985266,18.640569999988656,19.198204999993322,19.614509999984875,20.14103499997873]",space,9.643025,0.0,11.0,11.0,26.0,1.0,,
,,,,,,,,,,,block_2/medium_n_105_4.wav,no,n,medium,105.0,2.115061775,16.52181914,,,,Yes,JBL E45BT,15 Years,No,f,25,Left,Yes,1,2020-09-21_10h01.20.704,kura-B2,2020.1.2,Win32,60,,,,,,,,,,,,,,"[""space"",""space"",""space"",""space"",""space"",""space"",""space"",""space"",""space"",""space"",""space"",""space"",""space"",""space"",""space"",""space"",""space"",""space"",""space"",""space"",""space""]","[0.4345200000097975,0.9534050000056595,1.5595550000143703,2.415245000009236,3.181110000004992,3.9212600000028033,4.779624999995576,5.545654999996259,6.313055000004169,7.111434999998892,7.845040000016525,8.59356999999909,9.358990000007907,10.044485000020359,10.741485000005923,11.42691000000923,12.141660000022966,12.84868500000448,13.621895000018412,14.343580000015208,16.34225499999775]",space,0.3845,0.0,12.0,12.0,12.0,1.0,,
,,,,,,,,,,,block_2/weak_n_72_4.wav,no,n,weak,72.0,1.671954957,17.64637673,,,,Yes,JBL E45BT,15 Years,No,f,25,Left,Yes,1,2020-09-21_10h01.20.704,kura-B2,2020.1.2,Win32,60,,,,,,,,,,,,,,"[""space"",""space"",""space"",""space"",""space"",""space"",""space"",""space"",""space"",""space"",""space"",""space"",""space"",""space"",""space"",""space"",""space"",""space"",""space"",""space""]","[0.44080000001122244,1.0234850000124425,1.6839249999902677,2.37397499999679,3.1644350000133272,4.09681499999715,4.995915000006789,5.811755000002449,6.623905000014929,7.430974999995669,8.260450000001583,9.050695000012638,9.8579000000027,10.66015999999945,11.464479999995092,12.273840000008931,13.173605000016323,14.046564999996917,14.877464999997756,15.804254999995464]",space,0.48768,0.0,13.0,13.0,4.0,1.0,,
,,,,,,,,,,,block_2/strong_n_81_3.wav,no,n,strong,81.0,2.384474622,16.38941793,,,,Yes,JBL E45BT,15 Years,No,f,25,Left,Yes,1,2020-09-21_10h01.20.704,kura-B2,2020.1.2,Win32,60,,,,,,,,,,,,,,"[""space"",""space"",""space"",""space"",""space"",""space"",""space"",""space"",""space"",""space"",""space"",""space"",""space"",""space"",""space"",""space"",""space"",""space"",""space"",""space"",""space""]","[0.5338300000003073,0.9801649999863002,1.7324199999839038,2.4536749999970198,3.1310949999897275,3.8638949999876786,4.587005000008503,5.256389999995008,5.9540799999958836,6.726744999992661,7.434444999989864,8.126450000010664,8.813850000007733,9.541235000011511,10.256664999993518,11.02312999998685,11.739079999999376,12.430625000009968,13.107645000010962,13.866089999995893,14.53701000000001]",space,0.49979,0.0,14.0,14.0,10.0,1.0,,
,,,,,,,,,,,block_2/medium_n_105_3.wav,no,n,medium,105.0,2.480661226,14.16274739,,,,Yes,JBL E45BT,15 Years,No,f,25,Left,Yes,1,2020-09-21_10h01.20.704,kura-B2,2020.1.2,Win32,60,,,,,,,,,,,,,,"[""space"",""space"",""space"",""space"",""space"",""space"",""space"",""space"",""space"",""space"",""space"",""space"",""space"",""space"",""space"",""space"",""space"",""space"",""space"",""space""]","[1.198949999992692,1.7214549999898736,2.29488499998115,2.7996149999962654,3.4114750000007916,3.991024999993897,4.527374999976018,5.126764999993611,5.740369999984978,6.298589999991236,6.917999999976018,7.523439999989932,8.110894999990705,8.68904999998631,9.304164999981367,9.842004999984056,10.453069999988656,10.993974999990314,11.56910500000231,12.155259999999544]",space,0.303075,0.0,15.0,15.0,0.0,1.0,,
,,,,,,,,,,,block_2/none_n_119_4.wav,no,n,none,119.0,1.538189981,14.89986799,,,,Yes,JBL E45BT,15 Years,No,f,25,Left,Yes,1,2020-09-21_10h01.20.704,kura-B2,2020.1.2,Win32,60,,,,,,,,,,,,,,"[""space"",""space"",""space"",""space"",""space"",""space"",""space"",""space"",""space"",""space"",""space"",""space"",""space"",""space"",""space"",""space"",""space"",""space"",""space"",""space"",""space""]","[0.4352749999961816,0.9474500000087573,1.5365049999963958,2.2638300000107847,3.0296650000091176,3.6811950000119396,4.289710000011837,4.928615000009813,5.609664999996312,6.292539999994915,6.88691000000108,7.559204999997746,8.19163000001572,8.82466499999282,9.49621000001207,10.155180000001565,10.861954999998488,11.522205000015674,12.24815500000841,12.894950000014433,13.553780000016559]",space,0.365865,0.0,16.0,16.0,20.0,1.0,,
,,,,,,,,,,,block_2/medium_n_92_4.wav,no,n,medium,92.0,1.021723279,13.61201806,,,,Yes,JBL E45BT,15 Years,No,f,25,Left,Yes,1,2020-09-21_10h01.20.704,kura-B2,2020.1.2,Win32,60,,,,,,,,,,,,,,"[""space"",""space"",""space"",""space"",""space"",""space"",""space"",""space"",""space"",""space"",""space"",""space"",""space"",""space"",""space"",""space"",""space"",""space"",""space"",""space"",""space""]","[0.4350949999934528,1.1160199999867473,1.6705450000008568,2.3943899999994755,3.0648399999772664,3.6631949999991775,4.295694999978878,4.912589999992633,5.501250000001164,6.151179999986198,6.7953099999867845,7.4642949999833945,8.10117999999784,8.734474999975646,9.361904999997932,10.008409999982177,10.574334999981147,11.223149999976158,11.906459999998333,12.45591499999864,13.108110000001034]",space,0.45594,0.0,17.0,17.0,11.0,1.0,,
,,,,,,,,,,,block_2/none_n_72_4.wav,no,n,none,72.0,1.743803892,24.48607147,,,,Yes,JBL E45BT,15 Years,No,f,25,Left,Yes,1,2020-09-21_10h01.20.704,kura-B2,2020.1.2,Win32,60,,,,,,,,,,,,,,"[""space"",""space"",""space"",""space"",""space"",""space"",""space"",""space"",""space"",""space"",""space"",""space"",""space"",""space"",""space"",""space"",""space"",""space"",""space"",""space"",""space"",""space"",""space"",""space"",""space"",""space"",""space"",""space"",""space"",""space"",""space"",""space"",""space"",""space"",""space"",""space"",""space""]","[0.45472500001778826,1.109985000017332,1.78210000000945,2.604409999999916,3.199045000015758,3.846675000007963,4.429715000005672,5.029275000008056,5.683065000019269,6.334770000015851,6.97926500000176,7.503280000004452,8.175820000004023,8.805045000015525,9.441259999992326,10.04279000000679,10.656860000017332,11.280310000001919,11.906034999992698,12.539380000001984,13.170689999999013,13.804535000002943,14.470705000014277,15.103020000009565,15.641334999992978,16.235375000018394,16.86765000000014,17.485639999998966,18.116055000020424,18.749800000019604,19.366735000017798,20.014985000016168,20.630620000009003,21.230375000013737,21.81346500001382,22.447864999994636,23.059275000006892]",space,0.872965,0.0,18.0,18.0,21.0,1.0,,
,,,,,,,,,,,block_2/weak_n_105_3.wav,no,n,weak,105.0,2.432347709,14.10785791,,,,Yes,JBL E45BT,15 Years,No,f,25,Left,Yes,1,2020-09-21_10h01.20.704,kura-B2,2020.1.2,Win32,60,,,,,,,,,,,,,,"[""space"",""space"",""space"",""space"",""space"",""space"",""space"",""space"",""space"",""space"",""space"",""space"",""space"",""space"",""space"",""space"",""space"",""space"",""space"",""space""]","[0.3947299999999814,1.0190700000093784,1.6661249999888241,2.504740000003949,3.115025000006426,3.6827050000138115,4.28005500000836,4.946809999994002,5.514250000007451,6.128215000004275,6.685480000012831,7.256545000011101,7.884575000003679,8.477959999989253,9.076174999994691,9.67670999999973,10.241754999995464,10.823044999995545,11.374335000000428,12.122514999995474]",space,4.17947,0.0,19.0,19.0,27.0,1.0,,
,,,,,,,,,,,block_2/strong_n_72_4.wav,no,n,strong,72.0,1.689031128,17.05764791,,,,Yes,JBL E45BT,15 Years,No,f,25,Left,Yes,1,2020-09-21_10h01.20.704,kura-B2,2020.1.2,Win32,60,,,,,,,,,,,,,,"[""space"",""space"",""space"",""space"",""space"",""space"",""space"",""space"",""space"",""space"",""space"",""space"",""space"",""space"",""space"",""space"",""space"",""space"",""space"",""space""]","[0.9212849999894388,1.5664899999956106,2.515574999997625,3.314829999988433,4.100094999999783,4.868984999979148,5.729149999999208,6.4496649999928195,7.279304999976375,8.051449999999022,8.810859999997774,9.609684999973979,10.410104999988107,11.15789499998209,11.96583499998087,12.755869999993593,13.55522499998915,14.343624999979511,15.13698999999906,15.951744999998482]",space,0.335055,0.0,20.0,20.0,35.0,1.0,,
,,,,,,,,,,,block_2/medium_n_92_3.wav,no,n,medium,92.0,2.163023573,13.84869251,,,,Yes,JBL E45BT,15 Years,No,f,25,Left,Yes,1,2020-09-21_10h01.20.704,kura-B2,2020.1.2,Win32,60,,,,,,,,,,,,,,"[""space"",""space"",""space"",""space"",""space"",""space"",""space"",""space"",""space"",""space"",""space"",""space"",""space"",""space"",""space"",""space"",""space"",""space"",""space"",""space""]","[1.3336200000194367,1.850025000023379,2.4402350000164006,2.995950000011362,3.6816950000047655,4.2587250000215136,4.898820000002161,5.551430000021355,6.164590000000317,6.753200000006473,7.361605000012787,7.958020000020042,8.610184999997728,9.188280000002123,9.762895000021672,10.375740000019505,10.942555000016,11.574445000005653,12.158770000009099,13.307304999992994]",space,0.483905,0.0,21.0,21.0,2.0,1.0,,
,,,,,,,,,,,block_2/medium_n_81_4.wav,no,n,medium,81.0,1.594727623,16.1032537,,,,Yes,JBL E45BT,15 Years,No,f,25,Left,Yes,1,2020-09-21_10h01.20.704,kura-B2,2020.1.2,Win32,60,,,,,,,,,,,,,,"[""space"",""space"",""space"",""space"",""space"",""space"",""space"",""space"",""space"",""space"",""space"",""space"",""space"",""space"",""space"",""space"",""space"",""space"",""space""]","[0.9103750000085711,1.7325800000126037,2.476485000022876,3.2495250000229134,3.9707950000029086,4.71560500000669,5.406670000027589,6.162315000025046,6.944890000015221,7.711105000025782,8.4601650000277,9.198615000002974,9.908770000010918,10.626800000029107,11.367260000000897,12.069455000020753,12.807950000018536,13.555450000016208,14.338755000006131]",space,0.268085,0.0,22.0,22.0,38.0,1.0,,
,,,,,,,,,,,block_2/weak_n_119_3.wav,no,n,weak,119.0,1.689359171,10.04573105,,,,Yes,JBL E45BT,15 Years,No,f,25,Left,Yes,1,2020-09-21_10h01.20.704,kura-B2,2020.1.2,Win32,60,,,,,,,,,,,,,,"[""space"",""space"",""space"",""space"",""space"",""space"",""space"",""space"",""space"",""space"",""space"",""space"",""space"",""space"",""space"",""space"",""space"",""space"",""space""]","[0.4521750000130851,1.1632450000033714,1.8785750000097323,2.326339999999618,2.718844999995781,3.1598550000053365,3.575814999989234,4.00894500000868,4.4415549999976065,4.847000000007029,5.277555000007851,5.709189999994123,6.1405049999884795,6.546189999993658,6.931725000002189,7.4069000000035885,7.871624999999767,8.296260000002803,8.736310000005687]",space,0.285685,0.0,23.0,23.0,37.0,1.0,,
,,,,,,,,,,,block_2/weak_n_92_3.wav,no,n,weak,92.0,2.16711471,14.91038002,,,,Yes,JBL E45BT,15 Years,No,f,25,Left,Yes,1,2020-09-21_10h01.20.704,kura-B2,2020.1.2,Win32,60,,,,,,,,,,,,,,"[""space"",""space"",""space"",""space"",""space"",""space"",""space"",""space"",""space"",""space"",""space"",""space"",""space"",""space"",""space"",""space"",""space"",""space"",""space"",""space""]","[0.4487399999925401,0.9147999999986496,1.565889999998035,2.1924049999797717,2.929644999998345,3.562309999979334,4.204914999980247,4.81917999999132,5.449804999982007,6.0600350000022445,6.699549999992087,7.354899999976624,8.077330000000075,8.732369999983348,9.407500000001164,10.064109999977518,10.722434999974212,11.372414999990724,12.024839999998221,12.63715999998385]",space,41.66425,0.0,24.0,24.0,5.0,1.0,,
,,,,,,,,,,,block_2/weak_n_119_4.wav,no,n,weak,119.0,1.653391966,12.42708811,,,,Yes,JBL E45BT,15 Years,No,f,25,Left,Yes,1,2020-09-21_10h01.20.704,kura-B2,2020.1.2,Win32,60,,,,,,,,,,,,,,"[""space"",""space"",""space"",""space"",""space"",""space"",""space"",""space"",""space"",""space"",""space"",""space"",""space"",""space"",""space"",""space"",""space"",""space""]","[1.3311199999880046,1.8472799999872223,2.415689999996175,2.9676199999812525,3.5804649999772664,4.161844999995083,4.745314999978291,5.327114999992773,5.909484999981942,6.386419999995269,6.941209999989951,7.5414099999761675,8.191124999983003,8.97689999997965,9.539394999999786,10.082454999996116,10.590754999982892,11.171749999979511]",space,0.451695,0.0,25.0,25.0,31.0,1.0,,
,,,,,,,,,,,block_2/strong_n_92_3.wav,no,n,strong,92.0,1.019287146,13.50967263,,,,Yes,JBL E45BT,15 Years,No,f,25,Left,Yes,1,2020-09-21_10h01.20.704,kura-B2,2020.1.2,Win32,60,,,,,,,,,,,,,,"[""space"",""space"",""space"",""space"",""space"",""space"",""space"",""space"",""space"",""space"",""space"",""space"",""space"",""space"",""space"",""space"",""space"",""space"",""space"",""space""]","[0.7992950000043493,1.5186049999902025,2.117369999992661,2.7986199999868404,3.481534999998985,4.096939999988535,4.732139999978244,5.379790000006324,5.995664999996734,6.594859999982873,7.2443249999778345,7.876705000002403,8.496769999997923,9.177649999997811,9.742014999996172,10.342089999991003,11.023084999993443,11.648749999993015,12.275785000003452,12.925354999984847]",space,0.691225,0.0,26.0,26.0,39.0,1.0,,
,,,,,,,,,,,block_2/strong_n_119_4.wav,no,n,strong,119.0,2.003027148,12.07137182,,,,Yes,JBL E45BT,15 Years,No,f,25,Left,Yes,1,2020-09-21_10h01.20.704,kura-B2,2020.1.2,Win32,60,,,,,,,,,,,,,,"[""space"",""space"",""space"",""space"",""space"",""space"",""space"",""space"",""space"",""space"",""space"",""space"",""space"",""space"",""space"",""space"",""space"",""space"",""space"",""space"",""space""]","[0.5192699999915931,0.9372549999970943,1.3208299999823794,1.831659999996191,2.3651299999892217,2.8302499999990687,3.346354999988762,3.8629650000075344,4.348059999989346,4.8402099999966595,5.344844999985071,5.844559999997728,6.367949999985285,6.8605399999942165,7.409649999985049,7.925510000000941,8.42381999999634,8.958729999983916,9.47420999998576,10.007385000004433,10.473224999994272]",space,0.551065,0.0,27.0,27.0,23.0,1.0,,
,,,,,,,,,,,block_2/none_n_72_3.wav,no,n,none,72.0,2.393872505,24.12062987,,,,Yes,JBL E45BT,15 Years,No,f,25,Left,Yes,1,2020-09-21_10h01.20.704,kura-B2,2020.1.2,Win32,60,,,,,,,,,,,,,,"[""space"",""space"",""space"",""space"",""space"",""space"",""space"",""space"",""space"",""space"",""space"",""space"",""space"",""space"",""space"",""space"",""space"",""space"",""space"",""space"",""space"",""space"",""space"",""space"",""space"",""space"",""space"",""space"",""space"",""space"",""space"",""space"",""space"",""space"",""space"",""space"",""space"",""space"",""space""]","[0.9506000000110362,1.450154999998631,2.016509999986738,2.582490000000689,3.3649999999906868,3.8169599999964703,4.413590000011027,5.063020000001416,5.655194999999367,6.197745000012219,6.760959999985062,7.260699999984354,7.747774999994363,8.608505000011064,9.091625000000931,9.674310000002151,10.190534999999727,10.75769999998738,11.32670499998494,11.874244999984512,12.362720000004629,12.930285000009462,13.505429999990156,14.061660000006668,14.63780999998562,15.237274999992223,15.699365000007674,16.25298499999917,16.758119999984046,17.318325000000186,17.83470999999554,18.400445000006584,18.90018999998574,19.448754999990342,19.999125000002095,20.516589999984717,21.014540000003763,21.510739999999714,22.05963000000338]",space,0.270645,0.0,28.0,28.0,18.0,1.0,,
,,,,,,,,,,,block_2/none_n_92_3.wav,no,n,none,92.0,2.008897919,17.90894327,,,,Yes,JBL E45BT,15 Years,No,f,25,Left,Yes,1,2020-09-21_10h01.20.704,kura-B2,2020.1.2,Win32,60,,,,,,,,,,,,,,"[""space"",""space"",""space"",""space"",""space"",""space"",""space"",""space"",""space"",""space"",""space"",""space"",""space"",""space"",""space"",""space"",""space"",""space"",""space"",""space"",""space"",""space"",""space"",""space"",""space"",""space"",""space"",""space"",""space"",""space"",""space""]","[0.40015499998298765,0.9112749999912921,1.465954999992391,1.9743449999950826,2.482220000005327,2.9489400000020396,3.474480000004405,3.997594999993453,4.79844499999308,5.431199999991804,5.7976699999999255,6.347229999984847,6.865564999985509,7.37153499998567,7.843939999991562,8.308854999981122,8.828324999980396,9.353234999987762,9.860835000001316,10.421824999997625,10.957575000007637,11.474119999998948,12.006694999989122,12.532970000000205,13.07274000000325,13.577679999987595,14.087934999988647,14.62155999999959,15.140530000004219,15.670255000004545,16.191149999998743]",space,0.28472,0.0,29.0,29.0,25.0,1.0,,
,,,,,,,,,,,block_2/weak_n_72_3.wav,no,n,weak,72.0,1.604938988,17.47283014,,,,Yes,JBL E45BT,15 Years,No,f,25,Left,Yes,1,2020-09-21_10h01.20.704,kura-B2,2020.1.2,Win32,60,,,,,,,,,,,,,,"[""space"",""space"",""space"",""space"",""space"",""space"",""space"",""space"",""space"",""space"",""space"",""space"",""space"",""space"",""space"",""space"",""space"",""space"",""space"",""space"",""space""]","[0.8311149999790359,1.4625649999943562,2.0987399999867193,2.767244999995455,3.5601849999784463,4.349599999985003,5.112389999994775,5.9916899999952875,6.847624999994878,7.558289999988119,8.332735000003595,9.086489999986952,9.838965000002645,10.603734999982407,11.403384999981427,12.210779999992155,13.03887500000019,13.90176499998961,14.694625000003725,15.516600000002654,16.29958500000066]",space,0.5342,0.0,30.0,30.0,8.0,1.0,,
,,,,,,,,,,,block_2/none_n_105_3.wav,no,n,none,105.0,1.200203838,13.86165508,,,,Yes,JBL E45BT,15 Years,No,f,25,Left,Yes,1,2020-09-21_10h01.20.704,kura-B2,2020.1.2,Win32,60,,,,,,,,,,,,,,"[""space"",""space"",""space"",""space"",""space"",""space"",""space"",""space"",""space"",""space"",""space"",""space"",""space"",""space"",""space"",""space"",""space"",""space""]","[0.38761999999405816,1.215555000002496,2.0039899999974295,2.84771499998169,3.6465749999915715,4.346514999982901,5.12916499999119,5.777889999997569,6.511364999983925,7.2657149999868125,7.925619999994524,8.675244999991264,9.408685000002151,10.117784999980358,10.823424999980489,11.459754999990764,12.140560000001642,12.887950000003912]",space,0.26795,0.0,31.0,31.0,6.0,1.0,,
,,,,,,,,,,,block_2/strong_n_72_3.wav,no,n,strong,72.0,2.337906276,17.4032124,,,,Yes,JBL E45BT,15 Years,No,f,25,Left,Yes,1,2020-09-21_10h01.20.704,kura-B2,2020.1.2,Win32,60,,,,,,,,,,,,,,"[""space"",""space"",""space"",""space"",""space"",""space"",""space"",""space"",""space"",""space"",""space"",""space"",""space"",""space"",""space"",""space"",""space"",""space"",""space"",""space"",""space""]","[0.3554700000076991,0.8503900000050635,1.6161899999988236,2.3617150000045513,3.1819700000032753,3.9266500000067026,4.693330000007336,5.461789999999382,6.310295000001133,7.0823249999939435,7.875854999987496,8.671254999992016,9.375599999997576,10.116574999990917,10.907369999998991,11.688289999989138,12.390030000007755,13.287830000013855,14.071274999994785,14.8432250000169,15.618625000000975]",space,0.997645,0.0,32.0,32.0,32.0,1.0,,
,,,,,,,,,,,block_2/medium_n_72_3.wav,no,n,medium,72.0,1.994146771,18.06802432,,,,Yes,JBL E45BT,15 Years,No,f,25,Left,Yes,1,2020-09-21_10h01.20.704,kura-B2,2020.1.2,Win32,60,,,,,,,,,,,,,,"[""space"",""space"",""space"",""space"",""space"",""space"",""space"",""space"",""space"",""space"",""space"",""space"",""space"",""space"",""space"",""space"",""space"",""space"",""space"",""space"",""space""]","[0.3823749999864958,0.8149399999820162,1.7144899999857444,2.5132049999956507,3.363679999980377,4.200169999996433,5.094889999978477,5.916529999987688,6.685429999983171,7.537729999981821,8.408089999982622,9.207199999975273,9.990539999998873,10.781084999995073,11.640549999981886,12.470864999981131,13.353644999995595,14.11976999999024,14.871004999993602,15.692499999975553,16.584109999997963]",space,0.384265,0.0,33.0,33.0,13.0,1.0,,
,,,,,,,,,,,block_2/none_n_105_4.wav,no,n,none,105.0,1.256367297,16.73296594,,,,Yes,JBL E45BT,15 Years,No,f,25,Left,Yes,1,2020-09-21_10h01.20.704,kura-B2,2020.1.2,Win32,60,,,,,,,,,,,,,,"[""space"",""space"",""space"",""space"",""space"",""space"",""space"",""space"",""space"",""space"",""space"",""space"",""space"",""space"",""space"",""space"",""space"",""space"",""space"",""space"",""space"",""space"",""space"",""space"",""space"",""space"",""space"",""space""]","[1.3709249999974418,2.090329999979076,2.646214999987933,3.2260799999949086,4.04679500000384,4.598134999980175,5.076969999996436,5.659394999996948,6.193539999980203,6.693669999980557,7.22811999998703,7.709774999997535,8.266974999978629,8.79415999999219,9.307704999986527,9.890560000001642,10.406449999982215,10.906114999992496,11.421974999977465,11.889014999995197,12.395099999996091,12.922590000003765,13.503469999997833,14.00306499999897,14.487349999983053,14.990454999993744,15.484604999977819,16.034159999982876]",space,0.33851,0.0,34.0,34.0,14.0,1.0,,
,,,,,,,,,,,block_2/weak_n_92_4.wav,no,n,weak,92.0,2.26710089,14.35326869,,,,Yes,JBL E45BT,15 Years,No,f,25,Left,Yes,1,2020-09-21_10h01.20.704,kura-B2,2020.1.2,Win32,60,,,,,,,,,,,,,,"[""space"",""space"",""space"",""space"",""space"",""space"",""space"",""space"",""space"",""space"",""space"",""space"",""space"",""space"",""space"",""space"",""space"",""space"",""space"",""space""]","[0.919995000003837,1.5495799999916926,2.166029999993043,2.7653299999947194,3.3836599999922328,3.984245000001465,4.563829999999143,5.162015000008978,5.768359999987297,6.4452950000122655,7.0944000000017695,7.710599999991246,8.310064999997849,8.926199999987148,9.49292499999865,10.091985000006389,10.682575000013458,11.280874999994921,11.89394499998889,12.491030000004685]",space,2.016735,0.0,35.0,35.0,15.0,1.0,,
,,,,,,,,,,,block_2/strong_n_92_4.wav,no,n,strong,92.0,1.480736093,15.18463632,,,,Yes,JBL E45BT,15 Years,No,f,25,Left,Yes,1,2020-09-21_10h01.20.704,kura-B2,2020.1.2,Win32,60,,,,,,,,,,,,,,"[""space"",""space"",""space"",""space"",""space"",""space"",""space"",""space"",""space"",""space"",""space"",""space"",""space"",""space"",""space"",""space"",""space"",""space"",""space"",""space""]","[0.8498649999964982,1.495664999994915,2.0985550000059447,2.7812900000135414,3.5144900000013877,4.213095000013709,5.012810000014724,5.712650000001304,6.394805000018096,7.112010000009832,7.883545000018785,8.559000000008382,9.270315000001574,9.941365000006044,10.725440000009257,11.385674999999537,12.106079999997746,12.69011500000488,13.354844999994384,14.088065000018105]",space,0.741165,0.0,36.0,36.0,34.0,1.0,,
,,,,,,,,,,,block_2/medium_n_119_3.wav,no,n,medium,119.0,2.317779723,12.17918562,,,,Yes,JBL E45BT,15 Years,No,f,25,Left,Yes,1,2020-09-21_10h01.20.704,kura-B2,2020.1.2,Win32,60,,,,,,,,,,,,,,"[""space"",""space"",""space"",""space"",""space"",""space"",""space"",""space"",""space"",""space"",""space"",""space"",""space"",""space"",""space"",""space""]","[0.8520799999841984,1.3555399999913789,2.2490899999993417,2.98167999999896,3.733184999991863,4.480340000012802,5.101750000003449,5.753960000003644,6.495129999997516,7.176754999994955,7.815910000006625,8.245454999998401,8.760030000004917,9.242410000008022,9.725474999988364,10.232419999987542]",space,0.435745,0.0,37.0,37.0,22.0,1.0,,
,,,,,,,,,,,block_2/weak_n_81_3.wav,no,n,weak,81.0,2.376095497,17.43405468,,,,Yes,JBL E45BT,15 Years,No,f,25,Left,Yes,1,2020-09-21_10h01.20.704,kura-B2,2020.1.2,Win32,60,,,,,,,,,,,,,,"[""space"",""space"",""space"",""space"",""space"",""space"",""space"",""space"",""space"",""space"",""space"",""space"",""space"",""space"",""space"",""space"",""space"",""space"",""space"",""space""]","[0.9599750000052154,1.4333000000060565,1.859519999998156,2.29931500001112,3.681620000015755,4.37121000001207,4.997080000001006,5.829714999999851,6.567500000004657,7.29513000001316,8.078260000009323,8.853600000002189,9.566240000014659,10.390285000001313,11.141150000010384,11.890574999997625,12.65629500002251,13.341035000019474,14.123465000011493,14.890490000019781]",space,0.550255,0.0,38.0,38.0,30.0,1.0,,
,,,,,,,,,,,block_2/weak_n_81_4.wav,no,n,weak,81.0,1.139338257,16.19847658,,,,Yes,JBL E45BT,15 Years,No,f,25,Left,Yes,1,2020-09-21_10h01.20.704,kura-B2,2020.1.2,Win32,60,,,,,,,,,,,,,,"[""space"",""space"",""space"",""space"",""space"",""space"",""space"",""space"",""space"",""space"",""space"",""space"",""space"",""space"",""space"",""space"",""space"",""space"",""space""]","[1.2238150000048336,2.04949000000488,2.8327850000059698,3.681624999997439,4.39723000000231,5.12983499999973,5.888975000008941,6.594555000019682,7.826835000014398,8.610525000025518,9.392814999999246,10.18418000001111,10.973425000003772,11.75739500002237,12.47341000000597,13.222340000007534,14.00550500000827,14.755065000004834,15.556185000023106]",space,0.40498,0.0,39.0,39.0,36.0,1.0,,
,,,,,,,,,,,,,,,,,,,,,Yes,JBL E45BT,15 Years,No,f,25,Left,Yes,1,2020-09-21_10h01.20.704,kura-B2,2020.1.2,Win32,60,,,,,,,,,,,,,,,,,,,,,,,space,35.24417
