key_resp.keys,key_resp.rt,practice_taps.keys,practice_taps.rt,keyresp.keys,keyresp.rt,practice_stims_loop.thisRepN,practice_stims_loop.thisTrialN,practice_stims_loop.thisN,practice_stims_loop.thisIndex,practice_stims_loop.ran,sndfile,type,tempo,cond,version,delay,dur,Participant Initials,"If you are a MTurk worker, what is your MTurk worker ID?","If you are not an MTurk worker, please provide your email address",Are you wearing headphones?,What are the headphone make and model?,"How many years of musical training, if any, do you have?",Do you have any hearing problems? Please describe,What is your sex (f/m/decline)?,What is your age?,What is your handedness (R/L/ambi)?,Are you currently in a secure and quiet room without a possible interruption?,session,date,expName,psychopyVersion,OS,frameRate,instructions_prompt.keys,instructions_prompt.rt,block1_taps.keys,block1_taps.rt,key_resp_2.keys,key_resp_2.rt,trials.thisRepN,trials.thisTrialN,trials.thisN,trials.thisIndex,trials.ran,key_resp2.keys,key_resp2.rt,block2_taps.keys,block2_taps.rt,key_resp_3.keys,key_resp_3.rt,trials_2.thisRepN,trials_2.thisTrialN,trials_2.thisN,trials_2.thisIndex,trials_2.ran,key_resp_4.keys,key_resp_4.rt
space,31.691005,"[""space"",""space"",""space"",""space"",""space"",""space"",""space"",""space"",""space"",""space"",""space"",""space"",""space"",""space"",""space"",""space"",""space"",""space"",""space""]","[1.891489999834448,2.6784549998119473,3.482814999995753,4.196909999940544,4.965970000019297,5.70265999995172,6.46730999997817,7.265959999989718,8.001089999917895,8.715684999944642,9.47738999989815,10.21595499990508,11.032469999976456,11.766309999860823,12.476009999867529,13.284184999996796,14.102094999980181,15.035470000002533,15.575534999836236]",space,2.110765,0.0,0.0,0.0,0.0,1.0,block_1/strong_n_81_2.wav,no,n,strong,81.0,1.560205308,16.72288105,,,,Yes,Skull Candy in-ears,6,no,M,26,L,Yes,1,2020-10-01_08h10.36.781,kura-A1,2020.1.2,Win32,60,,,,,,,,,,,,,,,,,,,,,,,,
,,"[""space"",""space"",""space"",""space"",""space"",""space"",""space"",""space"",""space"",""space"",""space""]","[0.5712150000035763,1.3294349999632686,2.2173150000162423,6.869094999972731,7.669035000028089,8.579249999951571,9.478189999936149,10.393600000068545,11.299935000017285,12.279009999940172,13.327730000019073]",space,3.483845,0.0,1.0,1.0,1.0,1.0,block_2/none_t_119_1.wav,timbre,t,none,119.0,1.172164666,14.53370662,,,,Yes,Skull Candy in-ears,6,no,M,26,L,Yes,1,2020-10-01_08h10.36.781,kura-A1,2020.1.2,Win32,60,,,,,,,,,,,,,,,,,,,,,,,,
,,"[""space"",""space"",""space"",""space"",""space"",""space"",""space"",""space"",""space"",""space"",""space"",""space"",""space""]","[3.2362049999646842,3.7970399998594075,4.345860000001267,4.960549999959767,5.5372999999672174,6.136290000053123,6.660854999907315,7.273065000073984,7.916999999899417,8.542124999919906,9.13319500000216,9.72776999999769,10.338274999987334]",space,5.4598,0.0,2.0,2.0,3.0,1.0,block_2/weak_t_119_2.wav,timbre,t,weak,119.0,2.180699762,12.4495433,,,,Yes,Skull Candy in-ears,6,no,M,26,L,Yes,1,2020-10-01_08h10.36.781,kura-A1,2020.1.2,Win32,60,,,,,,,,,,,,,,,,,,,,,,,,
,,"[""space"",""space"",""space"",""space"",""space"",""space"",""space"",""space"",""space"",""space"",""space"",""space"",""space"",""space"",""space"",""space"",""space"",""space""]","[1.3021150000859052,1.7435099999420345,2.306510000023991,2.808269999921322,3.3062599999830127,3.8504299998749048,4.34654500009492,4.800340000074357,5.311964999884367,5.783610000042245,6.251614999957383,6.69057000009343,7.166079999879003,7.666904999874532,8.178539999993518,8.682959999889135,9.162375000072643,9.701630000025034]",space,1.119135,0.0,3.0,3.0,2.0,1.0,block_1/weak_n_119_1.wav,no,n,weak,119.0,1.75153664,11.06591306,,,,Yes,Skull Candy in-ears,6,no,M,26,L,Yes,1,2020-10-01_08h10.36.781,kura-A1,2020.1.2,Win32,60,,,,,,,,,,,,,,,,,,,,,,,,
,,,,,,,,,,,block_1/none_n_105_1.wav,no,n,none,105.0,1.562974393,15.68542337,,,,Yes,Skull Candy in-ears,6,no,M,26,L,Yes,1,2020-10-01_08h10.36.781,kura-A1,2020.1.2,Win32,60,space,11.683335,"[""space"",""space"",""space"",""space"",""space"",""space"",""space"",""space"",""space"",""space"",""space"",""space"",""space"",""space"",""space"",""space"",""space"",""space"",""space"",""space"",""space"",""space"",""space"",""space"",""space"",""space"",""space"",""space"",""space"",""space"",""space"",""space""]","[0.5054399999789894,1.029785000020638,1.466980000026524,1.8341399999335408,2.301539999898523,2.7237149998545647,3.113764999900013,3.5833850000053644,4.011535000056028,4.488674999913201,4.911725000012666,5.341689999913797,5.789094999898225,6.233130000066012,6.678294999990612,7.088759999955073,7.516880000010133,8.0402499998454,8.477015000069514,8.912444999907166,9.351384999928996,9.816654999973252,10.251569999847561,10.727949999971315,11.199365000007674,11.624834999907762,11.990190000040457,12.44188499986194,12.916014999849722,13.306829999899492,13.779940000036731,14.25984499999322]",space,0.53388,0.0,0.0,0.0,0.0,1.0,,,,,,,,,,,,,
,,,,,,,,,,,block_1/weak_n_119_1.wav,no,n,weak,119.0,2.415285966,11.72966238,,,,Yes,Skull Candy in-ears,6,no,M,26,L,Yes,1,2020-10-01_08h10.36.781,kura-A1,2020.1.2,Win32,60,,,"[""space"",""space"",""space"",""space"",""space"",""space"",""space"",""space"",""space"",""space"",""space"",""space"",""space"",""space"",""space"",""space"",""space"",""space"",""space"",""space""]","[0.5617199998814613,1.0089149998966604,1.4287000000476837,1.8501699999906123,2.3492050000932068,2.8061450000386685,3.3055549999698997,3.778239999897778,4.27652999991551,4.742374999914318,5.283335000043735,5.734054999891669,6.20790999988094,6.632704999996349,7.136960000032559,7.61299500009045,8.148834999883547,8.601299999980256,9.106725000077859,9.599165000021458]",space,0.484035,0.0,1.0,1.0,38.0,1.0,,,,,,,,,,,,,
,,,,,,,,,,,block_1/medium_n_81_1.wav,no,n,medium,81.0,1.755173496,15.75716896,,,,Yes,Skull Candy in-ears,6,no,M,26,L,Yes,1,2020-10-01_08h10.36.781,kura-A1,2020.1.2,Win32,60,,,"[""space"",""space"",""space"",""space"",""space"",""space"",""space"",""space"",""space"",""space"",""space"",""space"",""space"",""space"",""space"",""space"",""space"",""space"",""space"",""space"",""space""]","[0.5841449999716133,1.0544000000227243,1.7084399999585003,2.4177649999037385,3.152029999997467,3.8725449999328703,4.5868599999230355,5.237650000024587,5.935719999950379,6.627875000005588,7.2410349999554455,7.94273000000976,8.722189999883994,9.423190000001341,10.10992499999702,10.823744999943301,11.500129999825731,12.180084999883547,12.87506500002928,13.516760000027716,14.25468000001274]",space,0.47631,0.0,2.0,2.0,31.0,1.0,,,,,,,,,,,,,
,,,,,,,,,,,block_1/medium_n_119_2.wav,no,n,medium,119.0,1.29591098,10.35291778,,,,Yes,Skull Candy in-ears,6,no,M,26,L,Yes,1,2020-10-01_08h10.36.781,kura-A1,2020.1.2,Win32,60,,,"[""space"",""space"",""space"",""space"",""space"",""space"",""space"",""space"",""space"",""space"",""space"",""space"",""space"",""space"",""space"",""space"",""space"",""space"",""space"",""space"",""space""]","[0.7836549999192357,1.117409999947995,1.46701499982737,1.9006649998482317,2.283754999982193,2.6925399999599904,3.1170699999202043,3.4548249999061227,3.8800049999263138,4.366939999861643,4.827009999891743,5.366924999980256,5.828114999923855,6.271449999883771,6.679474999895319,7.094429999822751,7.517280000029132,7.958169999998063,8.404709999915212,8.845269999932498,9.246344999875873]",space,0.717225,0.0,3.0,3.0,21.0,1.0,,,,,,,,,,,,,
,,,,,,,,,,,block_1/strong_n_119_2.wav,no,n,strong,119.0,2.088876798,11.35100832,,,,Yes,Skull Candy in-ears,6,no,M,26,L,Yes,1,2020-10-01_08h10.36.781,kura-A1,2020.1.2,Win32,60,,,"[""space"",""space"",""space"",""space"",""space"",""space"",""space"",""space"",""space"",""space"",""space"",""space"",""space"",""space"",""space"",""space"",""space"",""space"",""space"",""space"",""space""]","[0.3056400001514703,0.7669400000013411,1.1841000001877546,1.6062549999915063,2.092600000090897,2.5339500000700355,3.0000599999912083,3.4832500000484288,3.950279999990016,4.422075000125915,4.890610000118613,5.324424999998882,5.799790000077337,6.266509999986738,6.737309999996796,7.199285000097007,7.685770000098273,8.149585000006482,8.616220000199974,9.116950000170618,9.585750000085682]",space,0.551195,0.0,4.0,4.0,17.0,1.0,,,,,,,,,,,,,
,,,,,,,,,,,block_1/none_n_81_2.wav,no,n,none,81.0,1.043160571,20.19454379,,,,Yes,Skull Candy in-ears,6,no,M,26,L,Yes,1,2020-10-01_08h10.36.781,kura-A1,2020.1.2,Win32,60,,,"[""space"",""space"",""space"",""space"",""space"",""space"",""space"",""space"",""space"",""space"",""space"",""space"",""space"",""space"",""space"",""space"",""space"",""space"",""space"",""space"",""space"",""space"",""space"",""space"",""space"",""space"",""space"",""space"",""space"",""space"",""space"",""space"",""space"",""space"",""space"",""space"",""space"",""space"",""space"",""space""]","[0.5167999998666346,0.9332200000062585,1.4223849999252707,1.9225599998608232,2.436405000044033,2.8593699999619275,3.257095000008121,3.683255000039935,4.1551399999298155,4.645809999899939,5.15567999985069,5.700429999968037,6.203199999872595,6.673440000042319,7.172069999855012,7.618219999829307,8.299454999854788,8.532454999862239,8.943525000009686,9.393029999919236,9.903464999981225,10.36667999997735,10.84129499993287,11.284449999919161,11.786019999999553,12.300539999967441,12.768965000053868,13.212154999841005,13.6994649998378,14.199619999853894,14.682404999854043,15.126619999995455,15.582664999878034,16.057109999936074,16.557984999846667,17.057765000034124,17.541745000053197,18.057890000054613,18.571694999933243,19.016434999881312]",space,0.54748,0.0,5.0,5.0,28.0,1.0,,,,,,,,,,,,,
,,,,,,,,,,,block_1/strong_n_119_1.wav,no,n,strong,119.0,2.241065743,12.1104535,,,,Yes,Skull Candy in-ears,6,no,M,26,L,Yes,1,2020-10-01_08h10.36.781,kura-A1,2020.1.2,Win32,60,,,"[""space"",""space"",""space"",""space"",""space"",""space"",""space"",""space"",""space"",""space"",""space"",""space"",""space"",""space"",""space"",""space"",""space"",""space"",""space"",""space""]","[0.24209499987773597,0.8914649998769164,1.4438799999188632,1.9547649999149144,2.433364999946207,2.958515000063926,3.5185350000392646,4.0082600000314415,4.520185000030324,5.049854999873787,5.533384999958798,6.083224999951199,6.587044999934733,7.088135000085458,7.575449999887496,8.126644999952987,8.636849999893457,9.141924999887124,9.632969999918714,10.163524999981746]",space,0.222555,0.0,6.0,6.0,19.0,1.0,,,,,,,,,,,,,
,,,,,,,,,,,block_1/medium_n_119_1.wav,no,n,medium,119.0,1.649869951,11.21667267,,,,Yes,Skull Candy in-ears,6,no,M,26,L,Yes,1,2020-10-01_08h10.36.781,kura-A1,2020.1.2,Win32,60,,,"[""space"",""space"",""space"",""space"",""space"",""space"",""space"",""space"",""space"",""space"",""space"",""space"",""space"",""space"",""space"",""space"",""space"",""space"",""space"",""space""]","[0.25941499997861683,0.908060000045225,1.3670950001105666,1.870504999998957,2.35080000013113,2.862330000149086,3.350194999948144,3.867030000081286,4.336875000037253,4.817395000020042,5.350985000142828,5.843265000032261,6.336985000176355,6.824170000152662,7.3503350000828505,7.859350000042468,8.357860000105575,8.834005000069737,9.344784999964759,9.883845000062138]",space,8.45182,0.0,7.0,7.0,24.0,1.0,,,,,,,,,,,,,
,,,,,,,,,,,block_1/strong_n_81_1.wav,no,n,strong,81.0,1.003745174,15.96537783,,,,Yes,Skull Candy in-ears,6,no,M,26,L,Yes,1,2020-10-01_08h10.36.781,kura-A1,2020.1.2,Win32,60,,,"[""space"",""space"",""space"",""space"",""space"",""space"",""space"",""space"",""space"",""space"",""space"",""space"",""space"",""space"",""space"",""space"",""space"",""space"",""space"",""space""]","[0.7784599999431521,1.7788750000763685,2.576829999918118,3.2998399999924004,4.08960000006482,4.800044999923557,5.551449999911711,6.349794999929145,7.071784999920055,7.796014999970794,8.586314999964088,9.337839999934658,10.132830000016838,10.916315000038594,11.650390000082552,12.349584999959916,13.069489999907091,13.816399999894202,14.649299999931827,15.404355000006035]",space,0.59008,0.0,8.0,8.0,12.0,1.0,,,,,,,,,,,,,
,,,,,,,,,,,block_1/none_n_119_2.wav,no,n,none,119.0,2.128313718,13.68559263,,,,Yes,Skull Candy in-ears,6,no,M,26,L,Yes,1,2020-10-01_08h10.36.781,kura-A1,2020.1.2,Win32,60,,,"[""space"",""space"",""space"",""space"",""space"",""space"",""space"",""space"",""space"",""space"",""space"",""space"",""space"",""space"",""space"",""space"",""space"",""space"",""space"",""space"",""space"",""space"",""space""]","[0.47314000013284385,0.9870200001168996,1.412525000050664,1.8023750002030283,2.2832450000569224,2.7505700001493096,3.299800000153482,3.8382500000298023,4.377719999989495,4.875905000139028,5.33860500017181,5.816570000024512,6.349795000161976,6.8542200000956655,7.4048950001597404,7.878850000211969,8.366525000194088,8.878350000130013,9.3539550001733,9.85243000020273,10.342310000211,10.874600000213832,11.340295000001788]",space,0.276075,0.0,9.0,9.0,25.0,1.0,,,,,,,,,,,,,
,,,,,,,,,,,block_1/none_n_72_1.wav,no,n,none,72.0,1.339316998,21.90480453,,,,Yes,Skull Candy in-ears,6,no,M,26,L,Yes,1,2020-10-01_08h10.36.781,kura-A1,2020.1.2,Win32,60,,,"[""space"",""space"",""space"",""space"",""space"",""space"",""space"",""space"",""space"",""space"",""space"",""space"",""space"",""space"",""space"",""space"",""space"",""space"",""space"",""space"",""space"",""space"",""space"",""space"",""space"",""space"",""space"",""space"",""space"",""space"",""space"",""space"",""space""]","[0.7173699999693781,1.3888749999459833,2.1223149998113513,2.9412449998781085,3.5776699997950345,4.221149999881163,4.901279999874532,5.474094999954104,6.170699999900535,6.811659999890253,7.445499999914318,8.062619999982417,8.700179999927059,9.316979999886826,9.94465499999933,10.533369999844581,11.120079999789596,11.733749999897555,12.309824999887496,12.846389999845996,13.467464999994263,14.046334999846295,14.710434999782592,15.258709999965504,15.855314999818802,16.470324999885634,17.10848999978043,17.733469999860972,18.345494999783114,18.93499999982305,19.47781499987468,20.095964999869466,20.682984999846667]",space,0.297335,0.0,10.0,10.0,18.0,1.0,,,,,,,,,,,,,
,,,,,,,,,,,block_1/medium_n_92_2.wav,no,n,medium,92.0,1.321097132,12.85819464,,,,Yes,Skull Candy in-ears,6,no,M,26,L,Yes,1,2020-10-01_08h10.36.781,kura-A1,2020.1.2,Win32,60,,,"[""space"",""space"",""space"",""space"",""space"",""space"",""space"",""space"",""space"",""space"",""space"",""space"",""space"",""space"",""space"",""space"",""space"",""space""]","[0.8622849998064339,1.383634999860078,1.9934049998410046,2.730439999839291,3.399629999883473,3.988924999954179,4.5628449998330325,5.129054999910295,5.716514999978244,6.316704999888316,6.916534999851137,7.466524999821559,8.089489999925718,8.711634999839589,9.37817499996163,10.050444999942556,10.666229999857023,11.316029999870807]",space,0.21806,0.0,11.0,11.0,1.0,1.0,,,,,,,,,,,,,
,,,,,,,,,,,block_1/strong_n_72_2.wav,no,n,strong,72.0,1.592838259,18.92930084,,,,Yes,Skull Candy in-ears,6,no,M,26,L,Yes,1,2020-10-01_08h10.36.781,kura-A1,2020.1.2,Win32,60,,,"[""space"",""space"",""space"",""space"",""space"",""space"",""space"",""space"",""space"",""space"",""space"",""space"",""space"",""space"",""space"",""space"",""space"",""space"",""space"",""space""]","[0.6077749999240041,1.5726550000254065,2.6655000001192093,3.566150000086054,4.439745000097901,5.334830000065267,6.199079999933019,7.044560000067577,8.032734999898821,8.903315000003204,9.753144999966025,10.64172499999404,11.58887999993749,12.47757999994792,13.411164999939501,14.215499999932945,15.087515000021085,16.021729999920353,16.915125000057742,17.786240000044927]",space,0.227865,0.0,12.0,12.0,30.0,1.0,,,,,,,,,,,,,
,,,,,,,,,,,block_1/weak_n_92_2.wav,no,n,weak,92.0,1.763778337,14.00087584,,,,Yes,Skull Candy in-ears,6,no,M,26,L,Yes,1,2020-10-01_08h10.36.781,kura-A1,2020.1.2,Win32,60,,,"[""space"",""space"",""space"",""space"",""space"",""space"",""space"",""space"",""space"",""space"",""space"",""space"",""space"",""space"",""space"",""space"",""space"",""space"",""space"",""space"",""space""]","[0.4371550001669675,0.9927950000856072,1.6522150000091642,2.277849999954924,2.8909350000321865,3.5267450001556426,4.075955000007525,4.690700000151992,5.332919999957085,5.9368500001728535,6.533305000048131,7.1386400000192225,7.683919999981299,8.30936500011012,8.90642000013031,9.520140000153333,10.112730000168085,10.685375000117347,11.300075000151992,11.900030000135303,12.589245000155643]",space,0.19099,0.0,13.0,13.0,6.0,1.0,,,,,,,,,,,,,
,,,,,,,,,,,block_1/none_n_119_1.wav,no,n,none,119.0,2.383659144,14.54474758,,,,Yes,Skull Candy in-ears,6,no,M,26,L,Yes,1,2020-10-01_08h10.36.781,kura-A1,2020.1.2,Win32,60,,,"[""space"",""space"",""space"",""space"",""space"",""space"",""space"",""space"",""space"",""space"",""space"",""space"",""space"",""space"",""space"",""space"",""space"",""space"",""space"",""space"",""space"",""space"",""space"",""space"",""space""]","[0.5330050000920892,1.1335549999494106,1.6181300000753254,2.0774799999780953,2.616945000132546,3.0764999999664724,3.5791700000409037,4.083405000157654,4.585459999972954,5.117010000161827,5.602815000107512,6.120160000165924,6.551815000129864,7.104190000100061,7.594354999950156,8.093400000128895,8.649759999942034,9.133695000084117,9.65446999995038,10.133060000138357,10.65893999999389,11.166565000079572,11.694009999977425,12.228820000076666,13.433119999943301]",space,0.504465,0.0,14.0,14.0,22.0,1.0,,,,,,,,,,,,,
,,,,,,,,,,,block_1/strong_n_105_2.wav,no,n,strong,105.0,2.465472491,15.61086932,,,,Yes,Skull Candy in-ears,6,no,M,26,L,Yes,1,2020-10-01_08h10.36.781,kura-A1,2020.1.2,Win32,60,,,"[""space"",""space"",""space"",""space"",""space"",""space"",""space"",""space"",""space"",""space"",""space"",""space"",""space"",""space"",""space"",""space"",""space"",""space"",""space"",""space""]","[0.8141699999105185,1.6612599999643862,2.323104999959469,2.9503500000573695,3.620839999988675,4.283760000020266,4.933685000054538,5.5855000000447035,6.250044999876991,6.903819999890402,7.55608500004746,8.243920000037178,8.844800000078976,9.550129999872297,10.183634999906644,10.767920000012964,11.51867499994114,12.199925000080839,12.849815000081435,13.506760000018403]",space,0.285155,0.0,15.0,15.0,9.0,1.0,,,,,,,,,,,,,
,,,,,,,,,,,block_1/medium_n_92_1.wav,no,n,medium,92.0,2.383742627,17.50115759,,,,Yes,Skull Candy in-ears,6,no,M,26,L,Yes,1,2020-10-01_08h10.36.781,kura-A1,2020.1.2,Win32,60,,,"[""space"",""space"",""space"",""space"",""space"",""space"",""space"",""space"",""space"",""space"",""space"",""space"",""space"",""space"",""space"",""space"",""space"",""space"",""space"",""space""]","[0.24046500003896654,0.5848099999129772,1.1331650000065565,2.1001899999100715,2.932909999974072,3.8375949999317527,4.587850000010803,5.37309499992989,6.133584999945015,6.910570000065491,7.615955000044778,8.475154999876395,9.265954999951646,10.032679999945685,10.779249999905005,11.516009999904782,12.440200000070035,13.199754999950528,13.851654999889433,14.815715000033379]",space,0.423525,0.0,16.0,16.0,5.0,1.0,,,,,,,,,,,,,
,,,,,,,,,,,block_1/none_n_92_1.wav,no,n,none,92.0,1.720415177,18.30862379,,,,Yes,Skull Candy in-ears,6,no,M,26,L,Yes,1,2020-10-01_08h10.36.781,kura-A1,2020.1.2,Win32,60,,,"[""space"",""space"",""space"",""space"",""space"",""space"",""space"",""space"",""space"",""space"",""space"",""space"",""space"",""space"",""space"",""space"",""space"",""space"",""space"",""space"",""space"",""space"",""space"",""space"",""space"",""space"",""space"",""space"",""space"",""space"",""space"",""space"",""space"",""space"",""space""]","[0.27629999979399145,0.7445399998687208,1.2502199998125434,1.7008799999020994,2.177119999891147,2.633284999988973,3.1048500000033528,3.5634849998168647,4.03935999982059,4.517314999829978,4.967074999818578,5.43341499986127,5.9006449999287724,6.377614999888465,6.842054999899119,7.3248049998655915,7.783899999922141,8.233184999786317,8.703449999913573,9.186724999919534,9.683294999878854,10.152569999918342,10.651589999906719,11.138534999918193,11.596350000007078,12.044894999824464,12.563510000007227,13.016369999852031,13.549899999983609,13.994609999936074,14.495234999805689,14.980269999941811,15.482739999890327,15.960164999822155,16.399089999962598]",space,0.303275,0.0,17.0,17.0,20.0,1.0,,,,,,,,,,,,,
,,,,,,,,,,,block_1/none_n_81_1.wav,no,n,none,81.0,1.16825706,17.43084209,,,,Yes,Skull Candy in-ears,6,no,M,26,L,Yes,1,2020-10-01_08h10.36.781,kura-A1,2020.1.2,Win32,60,,,"[""space"",""space"",""space"",""space"",""space"",""space"",""space"",""space"",""space"",""space"",""space"",""space"",""space"",""space"",""space"",""space"",""space"",""space"",""space"",""space"",""space"",""space"",""space"",""space"",""space"",""space"",""space""]","[0.5003400000277907,1.1503699999302626,1.7864999999292195,2.350319999968633,2.966959999874234,3.5442849998362362,4.110379999969155,4.749899999937043,5.457154999952763,6.083444999996573,6.75089000002481,7.387819999828935,8.032974999863654,8.618629999924451,9.244380000047386,9.87294499995187,10.436860000016168,11.099754999857396,11.692954999860376,12.261129999998957,12.760159999830648,13.345714999828488,13.958194999955595,14.528749999823049,15.116669999901205,15.733035000041127,16.382909999927506]",space,0.380345,0.0,18.0,18.0,29.0,1.0,,,,,,,,,,,,,
,,,,,,,,,,,block_1/strong_n_72_1.wav,no,n,strong,72.0,1.207870441,16.92877747,,,,Yes,Skull Candy in-ears,6,no,M,26,L,Yes,1,2020-10-01_08h10.36.781,kura-A1,2020.1.2,Win32,60,,,"[""space"",""space"",""space"",""space"",""space"",""space"",""space"",""space"",""space"",""space"",""space"",""space"",""space"",""space"",""space"",""space"",""space"",""space"",""space"",""space""]","[0.6454399998765439,1.7000649999827147,2.5262249999213964,3.266730000032112,4.049929999979213,4.859475000062957,5.652384999906644,6.516330000013113,7.349960000021383,8.120179999852553,8.918539999984205,9.71714000008069,10.558320000069216,11.333129999926314,12.149860000004992,12.952959999907762,13.815925000002608,14.599089999916032,15.365650000050664,16.249039999907836]",space,0.63381,0.0,19.0,19.0,33.0,1.0,,,,,,,,,,,,,
,,,,,,,,,,,block_1/none_n_105_2.wav,no,n,none,105.0,1.949697166,16.59064955,,,,Yes,Skull Candy in-ears,6,no,M,26,L,Yes,1,2020-10-01_08h10.36.781,kura-A1,2020.1.2,Win32,60,,,"[""space"",""space"",""space"",""space"",""space"",""space"",""space"",""space"",""space"",""space"",""space"",""space"",""space"",""space"",""space"",""space"",""space"",""space"",""space"",""space"",""space""]","[0.35792999994009733,0.9100799998268485,1.704844999825582,2.3934649999719113,3.119829999981448,3.886854999931529,4.618789999978617,5.3665199999231845,6.083224999951199,6.791474999859929,7.583089999854565,8.335859999991953,9.049720000009984,9.80690999981016,10.594139999942854,11.332989999791607,12.06637499993667,12.735144999809563,13.460574999917299,14.199909999966621,14.96639999980107]",space,2.467415,0.0,20.0,20.0,4.0,1.0,,,,,,,,,,,,,
,,,,,,,,,,,block_1/weak_n_105_1.wav,no,n,weak,105.0,1.735757625,11.75240162,,,,Yes,Skull Candy in-ears,6,no,M,26,L,Yes,1,2020-10-01_08h10.36.781,kura-A1,2020.1.2,Win32,60,,,"[""space"",""space"",""space"",""space"",""space"",""space"",""space"",""space"",""space"",""space"",""space"",""space"",""space"",""space"",""space"",""space"",""space"",""space"",""space"",""space"",""space""]","[0.605235000140965,1.235890000127256,1.5834150000009686,2.000480000162497,2.4924749999772757,3.01753000007011,3.566660000011325,4.010765000013635,4.500935000134632,4.9110149999614805,5.405750000150874,5.891605000011623,6.399915000190958,6.859010000014678,7.3121550001669675,7.802360000088811,8.307909999974072,8.785200000042096,9.283000000054017,9.783784999977797,10.249539999989793]",space,0.32633,0.0,21.0,21.0,27.0,1.0,,,,,,,,,,,,,
,,,,,,,,,,,block_1/weak_n_72_2.wav,no,n,weak,72.0,2.426446225,22.38744396,,,,Yes,Skull Candy in-ears,6,no,M,26,L,Yes,1,2020-10-01_08h10.36.781,kura-A1,2020.1.2,Win32,60,,,"[""space"",""space"",""space"",""space"",""space"",""space"",""space"",""space"",""space"",""space"",""space"",""space"",""space"",""space"",""space"",""space"",""space"",""space"",""space"",""space"",""space""]","[0.2737749998923391,0.7777150000911206,1.5114899999462068,2.0750049999915063,3.1916650000493973,4.241815000073984,5.144175000023097,6.151480000000447,7.121640000026673,8.14172499999404,9.154360000044107,10.208369999891147,11.235360000049695,12.24985000002198,13.232769999885932,14.278514999896288,15.295949999941513,16.3959399999585,17.416509999893606,18.46821999992244,19.4665049999021]",space,0.38391,0.0,22.0,22.0,11.0,1.0,,,,,,,,,,,,,
,,,,,,,,,,,block_1/strong_n_105_1.wav,no,n,strong,105.0,1.182925411,14.58124741,,,,Yes,Skull Candy in-ears,6,no,M,26,L,Yes,1,2020-10-01_08h10.36.781,kura-A1,2020.1.2,Win32,60,,,"[""space"",""space"",""space"",""space"",""space"",""space"",""space"",""space"",""space"",""space"",""space"",""space"",""space"",""space"",""space"",""space"",""space"",""space"",""space"",""space""]","[0.8645849998574704,1.7147099999710917,2.3897450000513345,3.0704749999567866,3.7248449998442084,4.4140999999362975,5.06410999991931,5.756894999882206,6.447584999958053,7.131234999978915,7.747609999962151,8.425774999894202,9.066464999923483,9.783194999909028,10.471584999933839,11.147454999852926,11.847640000050887,12.481949999928474,13.147889999905601,13.847259999951348]",space,0.60171,0.0,23.0,23.0,13.0,1.0,,,,,,,,,,,,,
,,,,,,,,,,,block_1/medium_n_81_2.wav,no,n,medium,81.0,2.424750646,16.12729033,,,,Yes,Skull Candy in-ears,6,no,M,26,L,Yes,1,2020-10-01_08h10.36.781,kura-A1,2020.1.2,Win32,60,,,"[""space"",""space"",""space"",""space"",""space"",""space"",""space"",""space"",""space"",""space"",""space"",""space"",""space"",""space"",""space"",""space"",""space"",""space"",""space"",""space""]","[0.3511500000022352,0.8173849999438971,1.4921699999831617,2.2210099999792874,2.863029999891296,3.5808299998752773,4.2662849999032915,5.024109999882057,5.750349999871105,6.41664499999024,7.133584999945015,7.861829999834299,8.549974999856204,9.216584999812767,9.904570000013337,10.617939999792725,11.322374999988824,12.028969999868423,12.728944999864325,13.423479999881238]",space,0.350525,0.0,24.0,24.0,34.0,1.0,,,,,,,,,,,,,
,,,,,,,,,,,block_1/none_n_92_2.wav,no,n,none,92.0,1.514588051,14.14982615,,,,Yes,Skull Candy in-ears,6,no,M,26,L,Yes,1,2020-10-01_08h10.36.781,kura-A1,2020.1.2,Win32,60,,,"[""space"",""space"",""space"",""space"",""space"",""space"",""space"",""space"",""space"",""space"",""space"",""space"",""space"",""space"",""space"",""space"",""space"",""space"",""space"",""space"",""space"",""space"",""space""]","[0.65038500004448,1.133424999890849,1.6666249998379499,2.212309999857098,2.753855000017211,3.3229399998672307,3.8855149999726564,4.435945000033826,5.054005000041798,5.59969999990426,6.149609999964014,6.678994999965653,7.226814999943599,7.791429999982938,8.257629999890924,8.849535000044852,9.317169999936596,9.818234999896958,10.39265999989584,10.993784999940544,11.577889999840409,12.124545000027865,12.678264999995008]",space,0.42783,0.0,25.0,25.0,23.0,1.0,,,,,,,,,,,,,
,,,,,,,,,,,block_1/weak_n_105_2.wav,no,n,weak,105.0,1.25756433,14.19910628,,,,Yes,Skull Candy in-ears,6,no,M,26,L,Yes,1,2020-10-01_08h10.36.781,kura-A1,2020.1.2,Win32,60,,,"[""space"",""space"",""space"",""space"",""space"",""space"",""space"",""space"",""space"",""space"",""space"",""space"",""space"",""space"",""space"",""space"",""space"",""space"",""space"",""space""]","[0.5248799999244511,1.0368149999994785,1.6462349998764694,2.633709999965504,3.0492749998811632,3.733229999896139,4.376864999998361,4.983130000066012,5.733109999913722,6.349864999996498,7.049184999894351,7.67928500007838,8.333110000006855,9.01335999998264,9.655199999921024,10.317959999898449,10.974750000052154,11.609979999950156,12.286504999967292,12.865729999961331]",space,0.317975,0.0,26.0,26.0,26.0,1.0,,,,,,,,,,,,,
,,,,,,,,,,,block_1/medium_n_72_2.wav,no,n,medium,72.0,1.502389402,18.53467965,,,,Yes,Skull Candy in-ears,6,no,M,26,L,Yes,1,2020-10-01_08h10.36.781,kura-A1,2020.1.2,Win32,60,,,"[""space"",""space"",""space"",""space"",""space"",""space"",""space"",""space"",""space"",""space"",""space"",""space"",""space"",""space"",""space"",""space"",""space"",""space"",""space"",""space""]","[0.5499350000172853,1.649944999953732,2.516869999933988,3.516395000042394,4.4079700000584126,5.253819999983534,6.133309999946505,6.939509999938309,7.821720000123605,8.733015000121668,9.632815000135452,10.510329999960959,11.360000000102445,12.182855000020936,13.046525000128895,13.934630000032485,14.815925000002608,15.605475000105798,16.62906499998644,17.448964999988675]",space,0.84171,0.0,27.0,27.0,14.0,1.0,,,,,,,,,,,,,
,,,,,,,,,,,block_1/strong_n_92_2.wav,no,n,strong,92.0,2.185421936,15.68737205,,,,Yes,Skull Candy in-ears,6,no,M,26,L,Yes,1,2020-10-01_08h10.36.781,kura-A1,2020.1.2,Win32,60,,,"[""space"",""space"",""space"",""space"",""space"",""space"",""space"",""space"",""space"",""space"",""space"",""space"",""space"",""space"",""space"",""space"",""space"",""space"",""space"",""space""]","[0.7974050000775605,1.3794150000903755,2.0214649999979883,2.664305000100285,3.4205300000030547,4.018030000152066,4.783760000020266,5.533760000020266,6.233685000101104,6.88078000000678,7.647300000069663,8.350295000011101,9.034075000090525,9.739870000164956,10.400085000088438,11.044985000044107,11.833320000208914,12.510370000032708,13.16643500002101,13.89418000006117]",space,0.517625,0.0,28.0,28.0,39.0,1.0,,,,,,,,,,,,,
,,,,,,,,,,,block_1/weak_n_81_1.wav,no,n,weak,81.0,1.583230306,14.42368382,,,,Yes,Skull Candy in-ears,6,no,M,26,L,Yes,1,2020-10-01_08h10.36.781,kura-A1,2020.1.2,Win32,60,,,"[""space"",""space"",""space"",""space"",""space"",""space"",""space"",""space"",""space"",""space"",""space"",""space"",""space"",""space"",""space"",""space"",""space"",""space"",""space"",""space"",""space""]","[0.25543999997898936,0.766814999980852,1.263455000007525,1.7497549999970943,2.419010000070557,3.0495500001125038,3.700544999912381,4.332979999948293,4.933674999978393,5.5748149999417365,6.200715000042692,6.837215000065044,7.466174999950454,8.125895000062883,8.7057700001169,9.377125000115484,10.050359999993816,10.666234999895096,11.309015000006184,11.932520000031218,12.599140000063926]",space,1.06028,0.0,29.0,29.0,35.0,1.0,,,,,,,,,,,,,
,,,,,,,,,,,block_1/none_n_72_2.wav,no,n,none,72.0,1.052198767,23.70630308,,,,Yes,Skull Candy in-ears,6,no,M,26,L,Yes,1,2020-10-01_08h10.36.781,kura-A1,2020.1.2,Win32,60,,,"[""space"",""space"",""space"",""space"",""space"",""space"",""space"",""space"",""space"",""space"",""space"",""space"",""space"",""space"",""space"",""space"",""space"",""space"",""space"",""space"",""space"",""space"",""space"",""space"",""space"",""space"",""space"",""space"",""space"",""space"",""space"",""space"",""space"",""space"",""space"",""space"",""space"",""space"",""space"",""space"",""space""]","[0.5837000000756234,1.1007000000681728,1.6465750001370907,2.161005000118166,2.673960000043735,3.233750000130385,3.7668900000862777,4.267210000194609,4.7455400000326335,5.3104450001847,5.870425000088289,6.44717500009574,6.999995000194758,7.383625000016764,7.962470000144094,8.504145000129938,9.07973500015214,9.672550000017509,10.237215000204742,10.833410000195727,11.383330000098795,11.99051500018686,12.54969000001438,13.144640000071377,13.716855000006035,14.24487500009127,14.873800000175834,15.416605000151321,15.939530000090599,16.58297500014305,17.135699999984354,17.73507500020787,18.226895000087097,18.86729000019841,19.491095000179484,20.08291000011377,20.61619500000961,21.199645000044256,21.78277000016533,22.334915000014007,22.966265000170097]",space,0.90711,0.0,30.0,30.0,16.0,1.0,,,,,,,,,,,,,
,,,,,,,,,,,block_1/medium_n_72_1.wav,no,n,medium,72.0,1.188923945,17.15940014,,,,Yes,Skull Candy in-ears,6,no,M,26,L,Yes,1,2020-10-01_08h10.36.781,kura-A1,2020.1.2,Win32,60,,,"[""space"",""space"",""space"",""space"",""space"",""space"",""space"",""space"",""space"",""space"",""space"",""space"",""space"",""space"",""space"",""space"",""space"",""space"",""space"",""space""]","[0.40570000000298023,1.0618650000542402,1.9665700001642108,2.7626600000075996,3.5497000000905246,4.316605000058189,5.066660000011325,5.899800000013784,6.7117749999742955,7.549300000071526,8.343520000111312,9.154955000150949,9.995475000003353,10.899345000041649,11.682724999962375,12.318625000072643,13.1705400000792,13.999335000058636,14.938400000100955,15.710570000112057]",space,1.62205,0.0,31.0,31.0,10.0,1.0,,,,,,,,,,,,,
,,,,,,,,,,,block_1/medium_n_105_1.wav,no,n,medium,105.0,2.470231961,15.66819115,,,,Yes,Skull Candy in-ears,6,no,M,26,L,Yes,1,2020-10-01_08h10.36.781,kura-A1,2020.1.2,Win32,60,,,"[""space"",""space"",""space"",""space"",""space"",""space"",""space"",""space"",""space"",""space"",""space"",""space"",""space"",""space"",""space"",""space"",""space"",""space"",""space"",""space""]","[0.8421400000806898,1.3668599999509752,1.9164700000546873,2.4674050000030547,3.007620000047609,3.6088300000410527,4.13332000002265,4.7667249999940395,5.338539999909699,5.93332999991253,6.604834999889135,7.217995000071824,7.855890000006184,8.495729999849573,9.349630000069737,10.075960000045598,10.799785000039265,11.45079499995336,12.177394999889657,12.913204999873415]",space,0.42991,0.0,32.0,32.0,7.0,1.0,,,,,,,,,,,,,
,,,,,,,,,,,block_1/strong_n_92_1.wav,no,n,strong,92.0,1.355123487,13.84328675,,,,Yes,Skull Candy in-ears,6,no,M,26,L,Yes,1,2020-10-01_08h10.36.781,kura-A1,2020.1.2,Win32,60,,,"[""space"",""space"",""space"",""space"",""space"",""space"",""space"",""space"",""space"",""space"",""space"",""space"",""space"",""space"",""space"",""space"",""space"",""space"",""space"",""space"",""space""]","[0.605574999935925,1.05093999998644,1.7144949999637902,2.333894999930635,2.9398149999324232,3.6053799998480827,4.217004999984056,4.8273300000000745,5.420839999802411,6.066554999910295,6.633479999843985,7.283869999926537,7.833434999920428,8.833304999861866,9.136364999925718,9.724159999983385,10.360364999854937,10.983449999941513,11.666749999858439,12.253044999903068,12.862324999878183]",space,0.600705,0.0,33.0,33.0,37.0,1.0,,,,,,,,,,,,,
,,,,,,,,,,,block_1/weak_n_72_1.wav,no,n,weak,72.0,1.347131367,16.2574715,,,,Yes,Skull Candy in-ears,6,no,M,26,L,Yes,1,2020-10-01_08h10.36.781,kura-A1,2020.1.2,Win32,60,,,"[""space"",""space"",""space"",""space"",""space"",""space"",""space"",""space"",""space"",""space"",""space"",""space"",""space"",""space"",""space"",""space"",""space"",""space"",""space"",""space"",""space""]","[0.583295000018552,1.040210000006482,1.9663499998860061,2.773825000040233,3.499589999904856,4.2333599999547005,4.966624999884516,5.766610000049695,6.484070000005886,7.249950000084937,7.984954999992624,8.76649499987252,9.499975000042468,10.27548999991268,11.016439999919385,11.832965000066906,12.516390000004321,13.116189999971539,13.78269000002183,14.483890000032261,15.213384999893606]",space,0.933565,0.0,34.0,34.0,15.0,1.0,,,,,,,,,,,,,
,,,,,,,,,,,block_1/medium_n_105_2.wav,no,n,medium,105.0,2.100494097,12.22140113,,,,Yes,Skull Candy in-ears,6,no,M,26,L,Yes,1,2020-10-01_08h10.36.781,kura-A1,2020.1.2,Win32,60,,,"[""space"",""space"",""space"",""space"",""space"",""space"",""space"",""space"",""space"",""space"",""space"",""space"",""space"",""space"",""space"",""space"",""space"",""space"",""space"",""space""]","[0.25022000004537404,1.050844999961555,1.7357250000350177,2.1509050000458956,2.666854999959469,3.0793200000189245,3.5796250000130385,4.0903449999168515,4.60450499993749,5.090940000023693,5.633570000063628,6.157490000128746,6.649620000040159,7.145174999954179,7.710570000112057,8.22506000008434,8.716520000016317,9.39189500012435,9.902130000060424,10.42172500002198]",space,0.70923,0.0,35.0,35.0,3.0,1.0,,,,,,,,,,,,,
,,,,,,,,,,,block_1/weak_n_81_2.wav,no,n,weak,81.0,1.567957537,13.4515403,,,,Yes,Skull Candy in-ears,6,no,M,26,L,Yes,1,2020-10-01_08h10.36.781,kura-A1,2020.1.2,Win32,60,,,"[""space"",""space"",""space"",""space"",""space"",""space"",""space"",""space"",""space"",""space"",""space"",""space"",""space"",""space"",""space"",""space"",""space"",""space"",""space"",""space"",""space""]","[0.5834800000302494,1.0086000000592321,1.6168549999129027,2.273975000018254,2.875474999891594,3.4285150000359863,4.03285999991931,4.586949999909848,5.226564999902621,5.832965000066906,6.392199999885634,7.099609999917448,7.466194999869913,8.044040000066161,8.65650499984622,9.233024999964982,9.8620449998416,10.416319999843836,11.01640999992378,11.579410000005737,12.183209999930114]",space,2.65232,0.0,36.0,36.0,32.0,1.0,,,,,,,,,,,,,
,,,,,,,,,,,block_1/weak_n_92_1.wav,no,n,weak,92.0,2.164314711,15.90903126,,,,Yes,Skull Candy in-ears,6,no,M,26,L,Yes,1,2020-10-01_08h10.36.781,kura-A1,2020.1.2,Win32,60,,,"[""space"",""space"",""space"",""space"",""space"",""space"",""space"",""space"",""space"",""space"",""space"",""space"",""space"",""space"",""space"",""space"",""space"",""space"",""space"",""space"",""space"",""space"",""space""]","[0.28425000002607703,0.8840050001163036,1.1799850000534207,1.6584799999836832,2.220390000147745,2.857480000006035,3.496355000184849,4.136430000187829,4.766950000077486,5.450440000044182,6.076985000167042,6.694630000041798,7.350414999993518,8.044065000023693,8.723525000037625,9.364410000154749,10.001125000184402,10.753735000034794,11.36674000020139,11.995770000154153,12.7001600000076,13.320895000128075,13.996535000158474]",space,0.48469,0.0,37.0,37.0,2.0,1.0,,,,,,,,,,,,,
,,,,,,,,,,,block_1/weak_n_119_2.wav,no,n,weak,119.0,2.480463378,12.4427763,,,,Yes,Skull Candy in-ears,6,no,M,26,L,Yes,1,2020-10-01_08h10.36.781,kura-A1,2020.1.2,Win32,60,,,"[""space"",""space"",""space"",""space"",""space"",""space"",""space"",""space"",""space"",""space"",""space"",""space"",""space"",""space"",""space"",""space"",""space"",""space"",""space"",""space"",""space"",""space""]","[0.30273999995552003,0.8878650001715869,1.2643300001509488,1.6909450001548976,2.142549999989569,2.542714999988675,3.046845000004396,3.6504000001586974,4.099950000178069,4.576130000175908,5.000260000117123,5.533880000002682,6.033590000122786,6.516444999957457,6.966495000058785,7.45257500000298,7.891575000016019,8.367005000123754,8.81641500000842,9.302860000170767,9.746255000121891,10.199974999995902]",space,0.35089,0.0,38.0,38.0,36.0,1.0,,,,,,,,,,,,,
,,,,,,,,,,,block_1/strong_n_81_2.wav,no,n,strong,81.0,1.452361164,16.6150369,,,,Yes,Skull Candy in-ears,6,no,M,26,L,Yes,1,2020-10-01_08h10.36.781,kura-A1,2020.1.2,Win32,60,,,"[""space"",""space"",""space"",""space"",""space"",""space"",""space"",""space"",""space"",""space"",""space"",""space"",""space"",""space"",""space"",""space"",""space"",""space"",""space"",""space"",""space""]","[0.5375350001268089,1.0239000001456589,1.9667150001041591,2.7002250000368804,3.4050000000279397,4.19308999995701,4.949939999962226,5.700494999997318,6.499869999941438,7.255945000099018,8.016550000058487,8.732530000153929,9.53262499999255,10.28273000009358,10.999805000144988,11.733050000155345,12.558905000099912,13.524119999958202,14.048960000043735,14.815945000154898,15.575115000130609]",space,0.36739,0.0,39.0,39.0,8.0,1.0,,,,,,,,,,,,,
,,,,,,,,,,,block_2/none_t_105_2.wav,timbre,t,none,105.0,1.468449628,14.54844963,,,,Yes,Skull Candy in-ears,6,no,M,26,L,Yes,1,2020-10-01_08h10.36.781,kura-A1,2020.1.2,Win32,60,,,,,,,,,,,,space,7.013295,"[""space"",""space"",""space"",""space"",""space"",""space"",""space"",""space"",""space"",""space"",""space"",""space"",""space"",""space"",""space"",""space"",""space"",""space"",""space"",""space"",""space"",""space"",""space"",""space"",""space"",""space"",""space"",""space"",""space"",""space""]","[0.4592499998398125,0.8089699998963624,1.2502049999311566,2.016544999787584,2.111554999835789,2.5663799999747425,3.0169349999632686,3.450304999947548,3.8678799998015165,4.31656499998644,4.776354999979958,5.211574999848381,5.766594999935478,6.225815000012517,6.699945000000298,7.1499799999874085,7.578044999856502,8.030544999986887,8.477624999824911,8.91844499995932,9.416079999879003,10.136544999899343,10.240999999921769,10.669134999858215,11.115984999807552,11.532949999906123,11.983324999921024,12.449479999952018,12.932640000013635,13.372264999896288]",space,0.300445,0.0,0.0,0.0,14.0,1.0,,
,,,,,,,,,,,block_2/medium_t_72_2.wav,timbre,t,medium,72.0,1.613581299,18.7474135,,,,Yes,Skull Candy in-ears,6,no,M,26,L,Yes,1,2020-10-01_08h10.36.781,kura-A1,2020.1.2,Win32,60,,,,,,,,,,,,,,"[""space"",""space"",""space"",""space"",""space"",""space"",""space"",""space"",""space"",""space"",""space"",""space"",""space"",""space"",""space"",""space"",""space"",""space"",""space"",""space"",""space""]","[0.24128499999642372,0.7658349999692291,1.6647049998864532,2.5313099999912083,3.4313050000928342,4.281449999893084,5.181014999980107,6.042050000047311,6.94772500009276,7.797939999960363,8.730835000053048,9.564275000011548,10.533384999958798,11.364479999989271,12.164240000071004,13.014174999902025,13.917519999900833,14.930510000092909,15.79761500004679,16.63058999995701,17.480239999946207]",space,0.25393,0.0,1.0,1.0,28.0,1.0,,
,,,,,,,,,,,block_2/none_t_119_1.wav,timbre,t,none,119.0,1.241510023,14.60305197,,,,Yes,Skull Candy in-ears,6,no,M,26,L,Yes,1,2020-10-01_08h10.36.781,kura-A1,2020.1.2,Win32,60,,,,,,,,,,,,,,"[""space"",""space"",""space"",""space"",""space"",""space"",""space"",""space"",""space"",""space"",""space"",""space"",""space"",""space"",""space"",""space"",""space"",""space"",""space"",""space"",""space"",""space"",""space"",""space"",""space"",""space""]","[0.23034500004723668,0.7666150000877678,1.3065899999346584,1.8529799999669194,2.43343500001356,2.95473499991931,3.483280000044033,4.016869999933988,4.549750000005588,5.092634999891743,5.667794999899343,6.161615000106394,6.73340000002645,7.233259999891743,7.766624999931082,8.306834999937564,9.183764999965206,9.315859999973327,9.819320000009611,10.315609999932349,10.866290000034496,11.343210000079125,11.882465000031516,12.373859999934211,12.886084999889135,13.415934999939054]",space,0.350635,0.0,2.0,2.0,39.0,1.0,,
,,,,,,,,,,,block_2/weak_t_81_1.wav,timbre,t,weak,81.0,1.591601339,16.65690746,,,,Yes,Skull Candy in-ears,6,no,M,26,L,Yes,1,2020-10-01_08h10.36.781,kura-A1,2020.1.2,Win32,60,,,,,,,,,,,,,,"[""space"",""space"",""space"",""space"",""space"",""space"",""space"",""space"",""space"",""space"",""space"",""space"",""space"",""space"",""space"",""space"",""space"",""space"",""space"",""space""]","[0.2380349999293685,0.8895099998917431,1.5307950000278652,2.2808250000234693,3.014754999894649,3.715030000079423,4.497724999906495,5.2124199999962,6.103055000072345,6.937559999991208,7.647619999945164,8.42223499994725,9.131065000081435,9.88583999988623,10.736670000012964,11.498374999966472,12.330829999875277,13.213874999899417,13.980715000070632,14.823570000007749]",space,0.60074,0.0,3.0,3.0,8.0,1.0,,
,,,,,,,,,,,block_2/strong_t_119_1.wav,timbre,t,strong,119.0,1.599889289,11.56710017,,,,Yes,Skull Candy in-ears,6,no,M,26,L,Yes,1,2020-10-01_08h10.36.781,kura-A1,2020.1.2,Win32,60,,,,,,,,,,,,,,"[""space"",""space"",""space"",""space"",""space"",""space"",""space"",""space"",""space"",""space"",""space"",""space"",""space"",""space"",""space"",""space"",""space"",""space"",""space"",""space"",""space""]","[0.4496100000105798,1.1541200000792742,1.2293450001161546,1.7661699999589473,2.2998099999967963,2.7842699999455363,3.2882900000549853,3.8167050001211464,4.259390000021085,4.750560000073165,5.271440000040457,5.749765000073239,6.225744999945164,6.712509999983013,7.266580000054091,7.713095000013709,8.261315000010654,8.749754999997094,9.24955500010401,9.73992000008002,10.229074999922886]",space,0.31738,0.0,4.0,4.0,27.0,1.0,,
,,,,,,,,,,,block_2/strong_t_92_2.wav,timbre,t,strong,92.0,2.142189268,15.39026183,,,,Yes,Skull Candy in-ears,6,no,M,26,L,Yes,1,2020-10-01_08h10.36.781,kura-A1,2020.1.2,Win32,60,,,,,,,,,,,,,,"[""space"",""space"",""space"",""space"",""space"",""space"",""space"",""space"",""space"",""space"",""space"",""space"",""space"",""space"",""space"",""space"",""space"",""space"",""space"",""space"",""space""]","[0.2942600001115352,0.9652550001628697,1.564930000109598,2.1621400001458824,2.784080000128597,3.4313450001645833,4.159120000200346,4.864580000052229,5.52862500003539,6.231385000050068,6.905299999983981,7.567080000182614,8.202750000171363,8.878179999999702,9.531290000071749,10.247660000110045,10.947445000056177,11.564035000046715,12.264135000063106,12.924560000188649,13.612355000106618]",space,0.33536,0.0,5.0,5.0,3.0,1.0,,
,,,,,,,,,,,block_2/strong_t_105_1.wav,timbre,t,strong,105.0,2.348438476,14.79111421,,,,Yes,Skull Candy in-ears,6,no,M,26,L,Yes,1,2020-10-01_08h10.36.781,kura-A1,2020.1.2,Win32,60,,,,,,,,,,,,,,"[""space"",""space"",""space"",""space"",""space"",""space"",""space"",""space"",""space"",""space"",""space"",""space"",""space"",""space"",""space"",""space"",""space"",""space"",""space"",""space""]","[0.49459500005468726,1.5771000001113862,1.8609949999954551,2.4669749999884516,3.0841100001707673,3.733985000057146,4.374390000011772,5.000484999967739,5.884105000179261,6.275230000028387,6.978120000101626,7.634090000065044,8.277665000176057,8.924030000111088,9.584060000022873,10.216710000066087,10.866950000170618,11.5196050000377,12.166700000176206,12.794740000041202]",space,0.38916,0.0,6.0,6.0,20.0,1.0,,
,,,,,,,,,,,block_2/strong_t_72_1.wav,timbre,t,strong,72.0,1.104397067,17.67881884,,,,Yes,Skull Candy in-ears,6,no,M,26,L,Yes,1,2020-10-01_08h10.36.781,kura-A1,2020.1.2,Win32,60,,,,,,,,,,,,,,"[""space"",""space"",""space"",""space"",""space"",""space"",""space"",""space"",""space"",""space"",""space"",""space"",""space"",""space"",""space"",""space"",""space"",""space"",""space"",""space"",""space"",""space""]","[0.6838200001511723,1.2123000000137836,1.466580000007525,2.233089999994263,3.0694099999964237,3.9005599999800324,4.692359999986365,5.499670000048354,6.249670000048354,7.101960000116378,7.982945000054315,8.716299999970943,9.599850000115111,10.582855000160635,11.249354999978095,12.199435000075027,12.98310500010848,13.783010000130162,14.582975000143051,15.416925000026822,16.244080000091344,17.090485000051558]",space,0.8592,0.0,7.0,7.0,9.0,1.0,,
,,,,,,,,,,,block_2/weak_t_105_1.wav,timbre,t,weak,105.0,2.340100097,14.83112051,,,,Yes,Skull Candy in-ears,6,no,M,26,L,Yes,1,2020-10-01_08h10.36.781,kura-A1,2020.1.2,Win32,60,,,,,,,,,,,,,,"[""space"",""space"",""space"",""space"",""space"",""space"",""space"",""space"",""space"",""space"",""space"",""space"",""space"",""space"",""space"",""space"",""space"",""space"",""space"",""space""]","[0.36160499998368323,0.8334099999628961,1.4463849999010563,2.037735000019893,2.6571849999018013,3.2639649999327958,3.9431300000287592,4.599864999996498,5.216509999940172,5.860910000046715,6.533724999986589,7.150124999927357,7.7829199999105185,8.421504999976605,9.033095000078902,9.675869999919087,10.26632499997504,10.982885000063106,11.642204999923706,12.25552499992773]",space,0.404545,0.0,8.0,8.0,0.0,1.0,,
,,,,,,,,,,,block_2/none_t_105_1.wav,timbre,t,none,105.0,2.049885048,16.17201657,,,,Yes,Skull Candy in-ears,6,no,M,26,L,Yes,1,2020-10-01_08h10.36.781,kura-A1,2020.1.2,Win32,60,,,,,,,,,,,,,,"[""space"",""space"",""space"",""space"",""space"",""space"",""space"",""space"",""space"",""space"",""space"",""space"",""space"",""space"",""space"",""space"",""space"",""space"",""space"",""space"",""space"",""space"",""space"",""space"",""space""]","[0.2336600001435727,0.8005850000772625,1.583464999916032,1.9262800000142306,2.4832500000484288,3.0531300001312047,3.6506650000810623,4.200235000113025,4.783675000071526,5.350265000015497,5.900219999952242,6.438265000004321,6.983195000095293,7.541415000101551,8.10660000005737,8.699874999932945,9.244815000100061,9.866459999931976,10.375780000118539,11.016645000083372,11.617409999947995,12.183785000117496,12.835755000123754,13.399609999964014,13.949670000001788]",space,0.234105,0.0,9.0,9.0,17.0,1.0,,
,,,,,,,,,,,block_2/none_t_92_1.wav,timbre,t,none,92.0,2.07216362,14.90350149,,,,Yes,Skull Candy in-ears,6,no,M,26,L,Yes,1,2020-10-01_08h10.36.781,kura-A1,2020.1.2,Win32,60,,,,,,,,,,,,,,"[""space"",""space"",""space"",""space"",""space"",""space"",""space"",""space"",""space"",""space"",""space"",""space"",""space"",""space"",""space"",""space"",""space"",""space"",""space"",""space"",""space"",""space"",""space"",""space"",""space""]","[0.20729500008746982,0.7361700001638383,1.3183600001502782,1.8834100000094622,2.442290000151843,2.9679750001523644,3.533419999992475,4.066845000023022,4.6001049999613315,5.133330000098795,5.683674999978393,6.2873500001151115,6.8170000000391155,7.300060000037774,7.860335000092164,8.416680000023916,8.94192500016652,9.566540000028908,10.150170000037178,10.716465000063181,11.216574999969453,11.799765000119805,12.349715000018477,12.866355000063777,14.45604500011541]",space,0.25084,0.0,10.0,10.0,15.0,1.0,,
,,,,,,,,,,,block_2/strong_t_72_2.wav,timbre,t,strong,72.0,2.404328943,17.8229684,,,,Yes,Skull Candy in-ears,6,no,M,26,L,Yes,1,2020-10-01_08h10.36.781,kura-A1,2020.1.2,Win32,60,,,,,,,,,,,,,,"[""space"",""space"",""space"",""space"",""space"",""space"",""space"",""space"",""space"",""space"",""space"",""space"",""space"",""space"",""space"",""space"",""space"",""space"",""space"",""space"",""space""]","[0.3996500000357628,0.7559399998281151,1.5979899999219924,2.41274999990128,3.197819999884814,3.964655000017956,4.747759999940172,5.547964999917895,6.314589999848977,7.081009999848902,7.91473999992013,8.714094999944791,9.564245000015944,10.308444999856874,11.035529999993742,11.797559999860823,12.678349999943748,13.472769999876618,14.241745000006631,15.097109999973327,15.917204999830574]",space,0.26895,0.0,11.0,11.0,6.0,1.0,,
,,,,,,,,,,,block_2/strong_t_105_2.wav,timbre,t,strong,105.0,1.902812304,12.72943362,,,,Yes,Skull Candy in-ears,6,no,M,26,L,Yes,1,2020-10-01_08h10.36.781,kura-A1,2020.1.2,Win32,60,,,,,,,,,,,,,,"[""space"",""space"",""space"",""space"",""space"",""space"",""space"",""space"",""space"",""space"",""space"",""space"",""space"",""space"",""space"",""space"",""space"",""space"",""space"",""space"",""space""]","[0.4004249998833984,0.8007249999791384,1.1776300000492483,1.7662949999794364,2.332829999970272,2.8829749999567866,3.41601000004448,3.9661250000353903,4.5148300000000745,5.094079999951646,5.632599999895319,6.135435000061989,6.716179999988526,7.299885000102222,7.876979999942705,8.350809999974445,8.949395000003278,9.515840000007302,10.049339999910444,10.598955000052229,11.132130000041798]",space,0.300775,0.0,12.0,12.0,22.0,1.0,,
,,,,,,,,,,,block_2/weak_t_119_2.wav,timbre,t,weak,119.0,2.381776461,12.65062,,,,Yes,Skull Candy in-ears,6,no,M,26,L,Yes,1,2020-10-01_08h10.36.781,kura-A1,2020.1.2,Win32,60,,,,,,,,,,,,,,"[""space"",""space"",""space"",""space"",""space"",""space"",""space"",""space"",""space"",""space"",""space"",""space"",""space"",""space"",""space"",""space"",""space"",""space"",""space"",""space"",""space""]","[0.2910899999551475,0.8170949998311698,1.3669549999758601,1.9340399999637157,2.4507299999240786,3.0172099999617785,3.5507349998224527,4.183784999884665,4.683650000020862,5.183599999872968,5.566704999888316,6.025524999946356,6.517109999898821,7.00008499994874,7.450264999875799,7.933259999845177,8.404265000019222,8.899704999988899,9.383324999827892,9.866609999909997,10.369775000028312]",space,0.38518,0.0,13.0,13.0,13.0,1.0,,
,,,,,,,,,,,block_2/weak_t_72_1.wav,timbre,t,weak,72.0,1.161723604,18.236871,,,,Yes,Skull Candy in-ears,6,no,M,26,L,Yes,1,2020-10-01_08h10.36.781,kura-A1,2020.1.2,Win32,60,,,,,,,,,,,,,,"[""space"",""space"",""space"",""space"",""space"",""space"",""space"",""space"",""space"",""space"",""space"",""space"",""space"",""space"",""space"",""space"",""space"",""space"",""space"",""space"",""space""]","[0.5014400000218302,1.1250550001859665,2.233625000109896,3.0669550001621246,3.8350800001062453,4.750875000143424,5.738145000068471,6.51681000017561,7.266780000180006,8.150210000108927,8.993280000053346,9.799989999970421,10.70003499998711,11.533320000162348,12.56910500000231,13.383630000054836,14.099645000183955,14.885149999987334,15.650085000088438,16.37218000018038,17.366159999975935]",space,0.33362,0.0,14.0,14.0,29.0,1.0,,
,,,,,,,,,,,block_2/none_t_81_2.wav,timbre,t,none,81.0,2.376288721,21.12975811,,,,Yes,Skull Candy in-ears,6,no,M,26,L,Yes,1,2020-10-01_08h10.36.781,kura-A1,2020.1.2,Win32,60,,,,,,,,,,,,,,"[""space"",""space"",""space"",""space"",""space"",""space"",""space"",""space"",""space"",""space"",""space"",""space"",""space"",""space"",""space"",""space"",""space"",""space"",""space"",""space"",""space"",""space"",""space"",""space""]","[0.36327000008895993,0.8860450000502169,1.5170700000599027,2.2007800000719726,2.802940000081435,3.8835450001060963,4.68360499991104,5.450179999927059,6.216879999963567,7.033975000027567,7.899960000067949,8.766969999996945,9.69977999990806,10.600074999965727,11.468244999879971,12.334040000103414,13.186389999929816,14.016675000078976,14.828699999954551,15.682700000004843,16.5830399999395,17.382669999962673,18.249330000020564,19.073629999998957]",space,0.23443,0.0,15.0,15.0,10.0,1.0,,
,,,,,,,,,,,block_2/strong_t_119_2.wav,timbre,t,strong,119.0,1.752168489,11.36699842,,,,Yes,Skull Candy in-ears,6,no,M,26,L,Yes,1,2020-10-01_08h10.36.781,kura-A1,2020.1.2,Win32,60,,,,,,,,,,,,,,"[""space"",""space"",""space"",""space"",""space"",""space"",""space"",""space"",""space"",""space"",""space"",""space"",""space"",""space"",""space"",""space"",""space"",""space"",""space"",""space""]","[0.4091800001915544,0.9671400000806898,1.633834999985993,2.183885000180453,2.633735000155866,3.1584799999836832,3.6337700001895428,4.0737499999813735,4.5501449999865144,5.100135000189766,5.580010000150651,6.050245000049472,6.519860000116751,7.017095000017434,7.449895000085235,7.9905600000638515,8.467235000105575,8.972345000132918,9.400160000193864,9.938055000035092]",space,0.55039,0.0,16.0,16.0,31.0,1.0,,
,,,,,,,,,,,block_2/medium_t_92_2.wav,timbre,t,medium,92.0,2.383848972,15.42820271,,,,Yes,Skull Candy in-ears,6,no,M,26,L,Yes,1,2020-10-01_08h10.36.781,kura-A1,2020.1.2,Win32,60,,,,,,,,,,,,,,"[""space"",""space"",""space"",""space"",""space"",""space"",""space"",""space"",""space"",""space"",""space"",""space"",""space"",""space"",""space"",""space"",""space"",""space"",""space"",""space"",""space"",""space""]","[0.3911299998871982,0.9503599999006838,1.5341649998445064,2.103564999997616,2.800709999864921,3.4948650000151247,4.143639999907464,4.7791199998464435,5.483460000017658,6.167569999815896,6.911629999987781,7.567309999838471,8.18371000001207,8.850450000027195,9.517104999860749,10.094114999985322,10.789439999964088,11.43381499988027,12.066794999875128,12.70030999998562,13.350205000024289,15.03379000001587]",space,0.218775,0.0,17.0,17.0,32.0,1.0,,
,,,,,,,,,,,block_2/weak_t_81_2.wav,timbre,t,weak,81.0,1.659662472,15.06274637,,,,Yes,Skull Candy in-ears,6,no,M,26,L,Yes,1,2020-10-01_08h10.36.781,kura-A1,2020.1.2,Win32,60,,,,,,,,,,,,,,"[""space"",""space"",""space"",""space"",""space"",""space"",""space"",""space"",""space"",""space"",""space"",""space"",""space"",""space"",""space"",""space"",""space"",""space"",""space"",""space"",""space"",""space""]","[0.23365000006742775,0.7838550000451505,1.2341249999590218,1.7675999999046326,2.567100000102073,3.2174700000323355,3.875685000093654,4.517185000004247,5.183715000050142,5.841490000020713,6.533645000075921,7.13556499988772,7.783654999919236,8.396505000069737,9.010779999895021,9.667150000110269,10.267139999894425,10.926419999916106,11.64191500004381,12.300270000007004,12.933124999981374,13.566785000031814]",space,0.250875,0.0,18.0,18.0,5.0,1.0,,
,,,,,,,,,,,block_2/weak_t_119_1.wav,timbre,t,weak,119.0,2.44047477,12.74986253,,,,Yes,Skull Candy in-ears,6,no,M,26,L,Yes,1,2020-10-01_08h10.36.781,kura-A1,2020.1.2,Win32,60,,,,,,,,,,,,,,"[""space"",""space"",""space"",""space"",""space"",""space"",""space"",""space"",""space"",""space"",""space"",""space"",""space"",""space"",""space"",""space"",""space"",""space"",""space"",""space"",""space"",""space"",""space""]","[0.6172400000505149,1.2838450002018362,1.941995000001043,2.433235000120476,2.850275000091642,3.3001749999821186,3.750010000076145,4.283715000143275,4.799970000050962,5.266825000056997,5.710085000144318,6.166620000032708,6.611765000037849,7.129120000172406,7.616830000188202,8.060215000063181,8.519150000065565,8.98513500019908,9.499550000065938,9.950155000202358,10.466310000047088,11.982965000206605,12.5661600001622]",space,0.350365,0.0,19.0,19.0,12.0,1.0,,
,,,,,,,,,,,block_2/medium_t_119_1.wav,timbre,t,medium,119.0,2.133191859,13.15799912,,,,Yes,Skull Candy in-ears,6,no,M,26,L,Yes,1,2020-10-01_08h10.36.781,kura-A1,2020.1.2,Win32,60,,,,,,,,,,,,,,"[""space"",""space"",""space"",""space"",""space"",""space"",""space"",""space"",""space"",""space"",""space"",""space"",""space"",""space"",""space"",""space"",""space"",""space"",""space"",""space""]","[0.8142649999354035,1.418559999903664,2.0142900000791997,2.5980700000654906,3.131315000122413,3.6644049999304116,4.264089999953285,4.880755000049248,5.39742000005208,5.964034999953583,6.503289999905974,7.0803400001022965,7.580180000048131,8.143570000072941,8.69736499991268,9.22307000006549,9.764119999948889,10.296970000024885,10.880815000040457,11.380235000047833]",space,0.237095,0.0,20.0,20.0,34.0,1.0,,
,,,,,,,,,,,block_2/medium_t_92_1.wav,timbre,t,medium,92.0,1.649670592,15.35429644,,,,Yes,Skull Candy in-ears,6,no,M,26,L,Yes,1,2020-10-01_08h10.36.781,kura-A1,2020.1.2,Win32,60,,,,,,,,,,,,,,"[""space"",""space"",""space"",""space"",""space"",""space"",""space"",""space"",""space"",""space"",""space"",""space"",""space"",""space"",""space"",""space"",""space"",""space"",""space"",""space"",""space""]","[0.24410999985411763,0.8537749999668449,1.2336649999488145,1.7838899998459965,2.4962899999227375,3.4002749999053776,4.133589999983087,4.900519999908283,5.601469999877736,6.3340799999423325,7.0672149998135865,7.743379999883473,8.457429999951273,9.15021499991417,9.900154999922961,10.566949999891222,11.316939999815077,11.973759999964386,12.73355000000447,13.433554999995977,15.249764999840409]",space,0.45097,0.0,21.0,21.0,36.0,1.0,,
,,,,,,,,,,,block_2/medium_t_105_2.wav,timbre,t,medium,105.0,1.583239388,12.36101717,,,,Yes,Skull Candy in-ears,6,no,M,26,L,Yes,1,2020-10-01_08h10.36.781,kura-A1,2020.1.2,Win32,60,,,,,,,,,,,,,,"[""space"",""space"",""space"",""space"",""space"",""space"",""space"",""space"",""space"",""space"",""space"",""space"",""space"",""space"",""space"",""space"",""space"",""space"",""space"",""space"",""space""]","[0.2670899999793619,0.7387599998619407,1.1565799999516457,1.6045349999330938,2.100309999892488,2.712309999857098,3.2501049998681992,3.800234999973327,4.349949999945238,4.966329999966547,5.540174999972805,6.166844999883324,6.6459399999585,7.187184999929741,7.7106699999421835,8.2998399999924,8.850050000008196,9.383374999975786,9.983229999896139,10.549864999949932,11.110489999875426]",space,0.270235,0.0,22.0,22.0,19.0,1.0,,
,,,,,,,,,,,block_2/none_t_72_1.wav,timbre,t,none,72.0,1.393664986,20.37801873,,,,Yes,Skull Candy in-ears,6,no,M,26,L,Yes,1,2020-10-01_08h10.36.781,kura-A1,2020.1.2,Win32,60,,,,,,,,,,,,,,"[""space"",""space"",""space"",""space"",""space"",""space"",""space"",""space"",""space"",""space"",""space"",""space"",""space"",""space"",""space"",""space"",""space"",""space"",""space"",""space"",""space"",""space"",""space"",""space"",""space"",""space"",""space"",""space"",""space"",""space"",""space"",""space"",""space"",""space"",""space"",""space"",""space"",""space"",""space""]","[0.2953799997922033,0.9000150000210851,1.3331749998033047,1.7791399999987334,2.171309999888763,2.594760000007227,3.0501549998298287,3.750319999875501,4.254814999876544,4.816259999992326,5.299609999870881,5.849489999935031,6.3445799998007715,6.849379999795929,7.28275499981828,7.792029999895021,8.249399999855086,8.749584999866784,9.232844999991357,9.749579999828711,10.266085000010207,10.732904999982566,11.199624999891967,11.736774999881163,12.184774999972433,12.682640000013635,13.215719999978319,13.699289999902248,14.149189999792725,14.682274999795482,15.149374999804422,15.643530000001192,16.115849999943748,16.649319999851286,17.085969999898225,17.548999999882653,18.01791499997489,18.482359999790788,18.9989849999547]",space,0.25057,0.0,23.0,23.0,23.0,1.0,,
,,,,,,,,,,,block_2/weak_t_92_1.wav,timbre,t,weak,92.0,1.077881565,14.47407204,,,,Yes,Skull Candy in-ears,6,no,M,26,L,Yes,1,2020-10-01_08h10.36.781,kura-A1,2020.1.2,Win32,60,,,,,,,,,,,,,,"[""space"",""space"",""space"",""space"",""space"",""space"",""space"",""space"",""space"",""space"",""space"",""space"",""space"",""space"",""space"",""space"",""space"",""space"",""space"",""space"",""space"",""space"",""space"",""space""]","[0.28478500014171004,1.1667100000195205,1.316255000187084,1.751600000075996,2.305800000205636,2.8501150000374764,3.433170000091195,4.0004450001288205,4.512445000000298,5.03315500007011,5.5830350001342595,6.224430000176653,6.866220000199974,7.388935000170022,7.950260000070557,8.53279500012286,9.083165000192821,9.627340000122786,10.211379999993369,10.933275000192225,11.499360000016168,12.106910000089556,12.649375000037253,13.266380000161007]",space,0.434225,0.0,24.0,24.0,33.0,1.0,,
,,,,,,,,,,,block_2/medium_t_105_1.wav,timbre,t,medium,105.0,1.073604292,13.26340021,,,,Yes,Skull Candy in-ears,6,no,M,26,L,Yes,1,2020-10-01_08h10.36.781,kura-A1,2020.1.2,Win32,60,,,,,,,,,,,,,,"[""space"",""space"",""space"",""space"",""space"",""space"",""space"",""space"",""space"",""space"",""space"",""space"",""space"",""space"",""space"",""space"",""space"",""space"",""space"",""space"",""space""]","[0.3367250000592321,0.8664550001267344,1.4998999999370426,2.0494999999646097,2.6163500000257045,3.1669449999462813,3.7056750000920147,4.246479999972507,4.7995750000700355,5.427254999987781,5.965844999998808,6.530495000071824,7.119859999977052,7.782765000127256,8.39941000007093,9.06594999996014,9.649054999928921,10.299279999919236,11.032640000106767,11.665525000076741,12.369554999982938]",space,0.517205,0.0,25.0,25.0,16.0,1.0,,
,,,,,,,,,,,block_2/none_t_81_1.wav,timbre,t,none,81.0,1.797175978,16.13359321,,,,Yes,Skull Candy in-ears,6,no,M,26,L,Yes,1,2020-10-01_08h10.36.781,kura-A1,2020.1.2,Win32,60,,,,,,,,,,,,,,"[""space"",""space"",""space"",""space"",""space"",""space"",""space"",""space"",""space"",""space"",""space"",""space"",""space"",""space"",""space"",""space"",""space"",""space"",""space"",""space"",""space"",""space"",""space"",""space"",""space"",""space"",""space""]","[0.40586999990046024,1.0668349999468774,1.6168399997986853,2.116779999807477,2.6334199998527765,3.200074999826029,3.71703499997966,4.312769999960437,4.850109999999404,5.385779999895021,5.899964999873191,6.44994999980554,6.968819999834523,7.508629999822006,8.066684999968857,8.583219999913126,9.116369999945164,9.6496249998454,10.216414999915287,10.733519999776036,11.266439999919385,11.76621999987401,12.332894999999553,12.767134999856353,13.4000249998644,13.949659999925643,14.532919999910519]",space,0.134275,0.0,26.0,26.0,11.0,1.0,,
,,,,,,,,,,,block_2/none_t_119_2.wav,timbre,t,none,119.0,1.129624063,11.70173291,,,,Yes,Skull Candy in-ears,6,no,M,26,L,Yes,1,2020-10-01_08h10.36.781,kura-A1,2020.1.2,Win32,60,,,,,,,,,,,,,,"[""space"",""space"",""space"",""space"",""space"",""space"",""space"",""space"",""space"",""space"",""space"",""space"",""space"",""space"",""space"",""space"",""space"",""space"",""space"",""space"",""space"",""space""]","[0.7505600000731647,1.2672449999954551,1.7028050001244992,2.184415000025183,2.6911550001241267,3.1503999999258667,3.650455000111833,4.100550000090152,4.543370000086725,5.017160000046715,5.500294999917969,6.009735000086948,6.467025000136346,6.917134999996051,7.435885000042617,7.8880700001027435,8.383815000066534,8.850074999965727,9.271080000093207,9.761935000075027,10.216384999919683,10.683190000010654]",space,0.283655,0.0,27.0,27.0,35.0,1.0,,
,,,,,,,,,,,block_2/weak_t_72_2.wav,timbre,t,weak,72.0,2.280914128,17.55202524,,,,Yes,Skull Candy in-ears,6,no,M,26,L,Yes,1,2020-10-01_08h10.36.781,kura-A1,2020.1.2,Win32,60,,,,,,,,,,,,,,"[""space"",""space"",""space"",""space"",""space"",""space"",""space"",""space"",""space"",""space"",""space"",""space"",""space"",""space"",""space"",""space"",""space"",""space"",""space"",""space"",""space"",""space"",""space"",""space"",""space"",""space"",""space"",""space"",""space"",""space"",""space"",""space"",""space"",""space"",""space"",""space"",""space"",""space""]","[0.22229999979026616,0.8142999999690801,1.2809049999341369,1.8143649999983609,2.2311599999666214,2.664149999851361,3.0972449998371303,3.5222349998075515,3.9472599998116493,4.352224999805912,4.814424999989569,5.247639999957755,5.6469299998134375,6.054389999946579,6.463854999979958,6.836369999917224,7.23047999991104,7.637359999818727,8.030414999928325,8.413859999971464,8.814694999950007,9.230424999957904,9.630374999949709,10.035899999784306,10.413634999888018,10.78730499977246,11.180294999852777,11.565539999864995,11.997619999805465,12.38672999991104,12.76329499995336,13.196714999852702,13.564124999800697,13.930269999895245,14.379904999863356,14.749464999884367,15.161059999838471,15.546464999904856]",space,0.235485,0.0,28.0,28.0,25.0,1.0,,
,,,,,,,,,,,block_2/medium_t_81_1.wav,timbre,t,medium,81.0,1.868021577,16.02697849,,,,Yes,Skull Candy in-ears,6,no,M,26,L,Yes,1,2020-10-01_08h10.36.781,kura-A1,2020.1.2,Win32,60,,,,,,,,,,,,,,"[""space"",""space"",""space"",""space"",""space"",""space"",""space"",""space"",""space"",""space"",""space"",""space"",""space"",""space"",""space"",""space"",""space"",""space"",""space"",""space""]","[0.25578000000678003,1.0340249999426305,2.11742000002414,2.90030000009574,3.633655000012368,4.366649999981746,5.011020000092685,5.811354999896139,6.505665000062436,7.2165449999738485,8.049519999884069,8.78300500009209,9.482954999897629,10.233375000068918,10.933165000053123,11.650304999900982,12.416544999927282,13.11263499991037,13.899800000013784,14.583104999968782]",space,0.284355,0.0,29.0,29.0,4.0,1.0,,
,,,,,,,,,,,block_2/strong_t_81_2.wav,timbre,t,strong,81.0,1.682183604,15.83846478,,,,Yes,Skull Candy in-ears,6,no,M,26,L,Yes,1,2020-10-01_08h10.36.781,kura-A1,2020.1.2,Win32,60,,,,,,,,,,,,,,"[""space"",""space"",""space"",""space"",""space"",""space"",""space"",""space"",""space"",""space"",""space"",""space"",""space"",""space"",""space"",""space"",""space"",""space"",""space"",""space"",""space""]","[0.2482800001744181,0.8756950001697987,1.5252500001806766,2.247850000159815,2.9230900001712143,3.6478750000242144,4.397850000066683,5.214625000022352,5.897920000134036,6.614750000182539,7.3642750000581145,8.081035000039265,8.81451000017114,9.497635000152513,10.214400000171736,10.930700000142679,11.630700000096112,12.381090000038967,13.0142900000792,14.021030000178143,14.600070000160486]",space,0.55107,0.0,30.0,30.0,26.0,1.0,,
,,,,,,,,,,,block_2/none_t_92_2.wav,timbre,t,none,92.0,1.981316359,18.5242642,,,,Yes,Skull Candy in-ears,6,no,M,26,L,Yes,1,2020-10-01_08h10.36.781,kura-A1,2020.1.2,Win32,60,,,,,,,,,,,,,,"[""space"",""space"",""space"",""space"",""space"",""space"",""space"",""space"",""space"",""space"",""space"",""space"",""space"",""space"",""space"",""space"",""space"",""space"",""space"",""space"",""space"",""space"",""space"",""space"",""space"",""space"",""space"",""space"",""space"",""space"",""space"",""space"",""space"",""space"",""space"",""space"",""space"",""space"",""space""]","[0.4218949999194592,0.8173050000332296,1.2628549998626113,1.7171050000470132,2.133990000002086,2.550404999870807,2.9673200000543147,3.417244999902323,3.8172100000083447,4.250800000037998,4.680974999908358,5.133884999901056,5.53368499991484,5.933590000029653,6.400535000022501,6.833549999864772,7.233449999941513,7.68360499991104,8.133529999991879,8.550090000033379,9.033504999941215,9.483925000065938,9.916874999878928,10.350159999914467,10.767029999988154,11.212869999930263,11.633080000057817,12.050249999854714,12.50035999994725,12.899969999911264,13.316424999851733,13.750049999915063,14.18332999991253,14.600029999855906,15.0498399999924,15.483299999963492,15.876174999866635,16.279119999846444,16.73304499988444]",space,0.226415,0.0,31.0,31.0,18.0,1.0,,
,,,,,,,,,,,block_2/weak_t_105_2.wav,timbre,t,weak,105.0,2.1216156,16.06451809,,,,Yes,Skull Candy in-ears,6,no,M,26,L,Yes,1,2020-10-01_08h10.36.781,kura-A1,2020.1.2,Win32,60,,,,,,,,,,,,,,"[""space"",""space"",""space"",""space"",""space"",""space"",""space"",""space"",""space"",""space"",""space"",""space"",""space"",""space"",""space"",""space"",""space"",""space"",""space"",""space"",""space"",""space"",""space"",""space"",""space"",""space"",""space"",""space"",""space"",""space"",""space"",""space""]","[0.30114999995566905,0.7849400001578033,1.234165000030771,1.7003949999343604,2.186995000112802,2.616894999984652,3.059760000091046,3.507295000134036,3.9834300000220537,4.478605000069365,4.916695000138134,5.383335000136867,5.775265000062063,6.226775000104681,6.683799999998882,7.117275000084192,7.539385000010952,8.00006500002928,8.416669999947771,8.850055000046268,9.245205000042915,9.708975000074133,10.116755000082776,10.583090000087395,11.000174999935552,11.40515000000596,11.84972000005655,12.316635000053793,12.69313000002876,13.150080000050366,13.583000000100583,14.016509999986738]",space,0.302275,0.0,32.0,32.0,2.0,1.0,,
,,,,,,,,,,,block_2/weak_t_92_2.wav,timbre,t,weak,92.0,1.897128492,17.06302418,,,,Yes,Skull Candy in-ears,6,no,M,26,L,Yes,1,2020-10-01_08h10.36.781,kura-A1,2020.1.2,Win32,60,,,,,,,,,,,,,,"[""space"",""space"",""space"",""space"",""space"",""space"",""space"",""space"",""space"",""space"",""space"",""space"",""space"",""space"",""space"",""space"",""space"",""space"",""space""]","[0.7998350001871586,1.4496999999973923,2.1333850000519305,2.9497150001116097,3.7497400001157075,4.449625000124797,5.24966000020504,6.164080000016838,6.966295000165701,7.783030000049621,8.59934000018984,9.38262000004761,10.199405000079423,10.932935000164434,11.652540000155568,12.41628500004299,13.149585000006482,13.948950000107288,14.798895000014454]",space,0.28423,0.0,33.0,33.0,37.0,1.0,,
,,,,,,,,,,,block_2/strong_t_81_1.wav,timbre,t,strong,81.0,1.294160312,15.54953446,,,,Yes,Skull Candy in-ears,6,no,M,26,L,Yes,1,2020-10-01_08h10.36.781,kura-A1,2020.1.2,Win32,60,,,,,,,,,,,,,,"[""space"",""space"",""space"",""space"",""space"",""space"",""space"",""space"",""space"",""space"",""space"",""space"",""space"",""space"",""space"",""space"",""space"",""space"",""space"",""space""]","[0.9504650000017136,1.8337350001093,2.4862100000027567,3.1837250001262873,3.9168750001117587,4.66706999996677,5.433720000088215,6.117044999962673,6.796605000039563,7.500040000071749,8.233639999991283,8.884215000085533,9.649865000043064,10.399805000051856,11.09457499999553,11.799439999973401,12.516920000081882,13.233119999989867,13.933034999994561,14.702370000071824]",space,0.350555,0.0,34.0,34.0,30.0,1.0,,
,,,,,,,,,,,block_2/strong_t_92_1.wav,timbre,t,strong,92.0,2.398655974,13.52958568,,,,Yes,Skull Candy in-ears,6,no,M,26,L,Yes,1,2020-10-01_08h10.36.781,kura-A1,2020.1.2,Win32,60,,,,,,,,,,,,,,"[""space"",""space"",""space"",""space"",""space"",""space"",""space"",""space"",""space"",""space"",""space"",""space"",""space"",""space"",""space"",""space"",""space"",""space"",""space"",""space""]","[0.7199649999383837,1.1672399998642504,1.6929399999789894,2.1803799998015165,2.770354999927804,3.350554999895394,3.9508149998728186,4.5309399999678135,5.133909999858588,5.667164999991655,6.245114999823272,6.867175000021234,7.408079999964684,8.017019999912009,8.533605000004172,9.150369999930263,9.733629999915138,10.333634999813512,10.900249999947846,11.466789999976754]",space,0.899915,0.0,35.0,35.0,1.0,1.0,,
,,,,,,,,,,,block_2/medium_t_72_1.wav,timbre,t,medium,72.0,1.800053144,19.08504181,,,,Yes,Skull Candy in-ears,6,no,M,26,L,Yes,1,2020-10-01_08h10.36.781,kura-A1,2020.1.2,Win32,60,,,,,,,,,,,,,,"[""space"",""space"",""space"",""space"",""space"",""space"",""space"",""space"",""space"",""space"",""space"",""space"",""space"",""space"",""space"",""space"",""space"",""space"",""space"",""space""]","[0.27121499995701015,0.7101600000169128,1.6505050000268966,2.6170149999670684,3.483815000159666,4.383380000013858,5.383485000114888,6.250285000074655,7.166875000111759,8.066795000107959,8.93339000013657,9.716974999988452,10.700050000101328,11.549925000173971,12.433325000107288,13.383180000120774,14.243789999978617,15.168015000177547,15.982785000000149,16.883165000006557]",space,0.51747,0.0,36.0,36.0,24.0,1.0,,
,,,,,,,,,,,block_2/medium_t_119_2.wav,timbre,t,medium,119.0,1.931946566,12.84791029,,,,Yes,Skull Candy in-ears,6,no,M,26,L,Yes,1,2020-10-01_08h10.36.781,kura-A1,2020.1.2,Win32,60,,,,,,,,,,,,,,"[""space"",""space"",""space"",""space"",""space"",""space"",""space"",""space"",""space"",""space"",""space"",""space"",""space"",""space"",""space"",""space"",""space"",""space"",""space"",""space"",""space"",""space"",""space"",""space"",""space"",""space""]","[0.34461999987252057,0.7507149998564273,1.2004249999299645,1.6838749998714775,2.167414999799803,2.5671599998604506,2.983774999855086,3.4291349998675287,3.8503399998880923,4.266799999866635,4.716904999921098,5.11693499982357,5.566954999929294,5.98390999995172,6.433749999850988,6.8174850000068545,7.216944999992847,7.643554999958724,8.000539999920875,8.383329999865964,8.833415000000969,9.250014999881387,9.683344999793917,10.083199999993667,10.499949999852106,10.933114999905229]",space,0.41732,0.0,37.0,37.0,38.0,1.0,,
,,,,,,,,,,,block_2/none_t_72_2.wav,timbre,t,none,72.0,2.345629585,20.60318061,,,,Yes,Skull Candy in-ears,6,no,M,26,L,Yes,1,2020-10-01_08h10.36.781,kura-A1,2020.1.2,Win32,60,,,,,,,,,,,,,,"[""space"",""space"",""space"",""space"",""space"",""space"",""space"",""space"",""space"",""space"",""space"",""space"",""space"",""space"",""space"",""space"",""space"",""space"",""space"",""space"",""space"",""space"",""space"",""space"",""space"",""space"",""space"",""space"",""space"",""space"",""space"",""space"",""space"",""space"",""space"",""space"",""space"",""space"",""space""]","[0.35129000013694167,0.9005800001323223,1.350815000012517,1.8169800001196563,2.250454999972135,2.767140000127256,3.217210000148043,3.704965000040829,4.167094999924302,4.683805000036955,5.16700499993749,5.583804999943823,6.083404999924824,6.519120000069961,7.050250000087544,7.500255000079051,7.9670800000894815,8.450130000011995,8.867005000123754,9.367115000030026,9.783860000083223,10.266835000133142,10.716690000146627,11.199985000072047,11.663755000103265,12.133249999955297,12.616605000104755,13.13330000010319,13.570495000109076,14.033185000065714,14.49983000010252,14.950100000016391,15.433140000095591,15.899949999991804,16.36994000012055,16.899695000145584,17.310710000107065,17.816510000033304,18.282980000134557]",space,0.45518,0.0,38.0,38.0,21.0,1.0,,
,,,,,,,,,,,block_2/medium_t_81_2.wav,timbre,t,medium,81.0,1.338539444,16.50597709,,,,Yes,Skull Candy in-ears,6,no,M,26,L,Yes,1,2020-10-01_08h10.36.781,kura-A1,2020.1.2,Win32,60,,,,,,,,,,,,,,"[""space"",""space"",""space"",""space"",""space"",""space"",""space"",""space"",""space"",""space"",""space"",""space"",""space"",""space"",""space"",""space"",""space"",""space"",""space"",""space""]","[0.370545000070706,1.2168600000441074,2.0833349998574704,3.050169999944046,3.833970000036061,4.6502950000576675,5.433444999856874,6.216620000079274,6.933484999928623,7.700004999991506,8.483215000014752,9.283335000043735,10.016605000011623,10.850199999986216,11.633069999981672,12.466114999959245,13.24965999997221,13.999580000061542,14.819110000040382,15.66624499997124]",space,0.450085,0.0,39.0,39.0,7.0,1.0,,
,,,,,,,,,,,,,,,,,,,,,Yes,Skull Candy in-ears,6,no,M,26,L,Yes,1,2020-10-01_08h10.36.781,kura-A1,2020.1.2,Win32,60,,,,,,,,,,,,,,,,,,,,,,,space,19.22526
