sndfile,tempo,cond,delay,trials_practice.thisRepN,trials_practice.thisTrialN,trials_practice.thisN,trials_practice.thisIndex,trials.thisRepN,trials.thisTrialN,trials.thisN,trials.thisIndex,trials_2.thisRepN,trials_2.thisTrialN,trials_2.thisN,trials_2.thisIndex,key_resp_2.keys,key_resp_2.rt,key_resp_4.keys,key_resp_4.rt,key_resp_3.keys,key_resp_3.rt,key_resp_7.keys,key_resp_7.rt,key_resp_9.keys,key_resp_9.rt,key_resp_5.keys,key_resp_5.rt,key_resp_8.keys,key_resp_8.rt,key_resp_10.keys,key_resp_10.rt,key_resp_6.keys,key_resp_6.rt,participant,session,date,expName,psychopyVersion,frameRate,
,,,,,,,,,,,,,,,,space,18.112750107073225,,,,,,,,,,,,,,,,,AA,001,2019_Jul_19_1554,rev-kura_tap_2blocks,3.0.6,60.036084967130684,
./stimuli_1/tmp/strong_90_1.wav,90,strong,1.013023596,0,0,0,1,,,,,,,,,,,"['space', 'space', 'space', 'space', 'space', 'space', 'space', 'space', 'space', 'space', 'space', 'space', 'space', 'space', 'space']","[1.4366268679732457, 1.886114947963506, 2.3696377739543095, 2.503452413948253, 2.969485701993108, 3.6535401940345764, 4.3859927270095795, 5.054765715030953, 5.770166045986116, 6.486475792014971, 7.218415524926968, 7.960578004946001, 8.621041698963381, 9.309784578974359, 10.05370267399121]",space,1.3204354640329257,,,,,,,,,,,,,AA,001,2019_Jul_19_1554,rev-kura_tap_2blocks,3.0.6,60.036084967130684,
./stimuli_1/tmp/medium_110_1.wav,110,medium,0.970866786,0,1,1,2,,,,,,,,,,,"['space', 'space', 'space', 'space', 'space', 'space', 'space', 'space', 'space', 'space', 'space', 'space', 'space', 'space', 'space', 'space', 'space', 'space', 'space', 'space', 'space', 'space', 'space', 'space', 'space', 'space', 'space', 'space', 'space', 'space', 'space', 'space', 'space', 'space', 'space', 'space', 'space', 'space', 'space', 'space', 'space', 'space', 'space', 'space', 'space', 'space', 'space', 'space', 'space', 'space', 'space', 'space', 'space', 'space', 'space']","[0.25309491506777704, 0.6697074361145496, 1.067456551012583, 1.457666059024632, 1.6018052030121908, 1.7352990570943803, 1.868904402013868, 1.9865199510240927, 2.1530272050295025, 2.2856243420392275, 2.4343038400402293, 2.5691970380721614, 2.7195704201003537, 2.8869765400886536, 3.0525308831129223, 3.2194779301062226, 3.3701777290552855, 3.540757481008768, 3.6764408780727535, 3.8452668010722846, 4.153082411037758, 4.3033495710697025, 4.469486249028705, 4.636565505061299, 4.804023656062782, 4.9425523050595075, 5.119652597000822, 5.286763935000636, 5.452617210103199, 5.619174730032682, 5.803531070007011, 5.969926604069769, 6.120332882041112, 6.2866937790531665, 6.453609962016344, 6.6028346930397674, 6.753240323043428, 6.9040710281115025, 7.076167786028236, 7.217856397037394, 7.3702906320104375, 7.51994154707063, 7.6867902730591595, 7.978412974043749, 8.157158168032765, 8.319647061056457, 8.47017573507037, 9.086584015050903, 9.23520263901446, 9.386378252063878, 9.574951560003683, 9.704364018049091, 9.853558779112063, 10.020254606031813, 10.204152778023854]",space,0.7078846220392734,,,,,,,,,,,,,AA,001,2019_Jul_19_1554,rev-kura_tap_2blocks,3.0.6,60.036084967130684,
./stimuli_1/tmp/medium_100_1.wav,100,medium,1.797198505,0,2,2,0,,,,,,,,,,,"['space', 'space', 'space', 'space', 'space', 'space', 'space', 'space', 'space', 'space', 'space', 'space', 'space', 'space', 'space', 'space', 'space', 'space', 'space', 'space', 'space', 'space', 'space', 'space', 'space', 'space', 'space', 'space', 'space', 'space', 'space', 'space', 'space', 'space', 'space', 'space', 'space', 'space', 'space', 'space', 'space', 'space', 'space', 'space', 'space', 'space', 'space', 'space', 'space', 'space', 'space', 'space', 'space', 'space', 'space', 'space', 'space']","[0.2353510840330273, 0.36905704997479916, 0.6855233040405437, 0.819070411962457, 0.9736969049554318, 1.2842201279709116, 1.602747841970995, 1.7684903900371864, 1.9356720290379599, 2.0856289219809696, 2.2346549150533974, 2.369334232993424, 2.573168342001736, 2.7360899810446426, 2.885479897959158, 3.0692496340489015, 3.219259449047968, 3.3862973590148613, 3.5622341480338946, 3.70266436599195, 3.88582966895774, 4.070071293972433, 4.236505693057552, 4.402426974964328, 4.569097750005312, 4.752984322025441, 4.952246702974662, 5.126581765012816, 5.3074693330563605, 5.484278229996562, 5.63554007303901, 5.802537951036356, 5.985685253050178, 6.154801313998178, 6.336584724020213, 6.529118458973244, 6.693765338044614, 6.893599333008751, 7.071284058038145, 7.235495861037634, 7.419581006048247, 7.586943950969726, 7.770370041020215, 7.95339147397317, 8.127321877982467, 8.322455671965145, 8.478345507057384, 8.672069430002011, 8.845710756024346, 9.003907751990482, 9.202996309031732, 9.387179463985376, 9.553844826063141, 9.720812806976028, 9.91985021205619, 10.110722903977148, 10.286921459017321]",space,0.8336088960058987,,,,,,,,,,,,,AA,001,2019_Jul_19_1554,rev-kura_tap_2blocks,3.0.6,60.036084967130684,
./stimuli_1/tmp/vweak_105_1.wav,105,veryweak,1.91267155,0,3,3,3,,,,,,,,,,,"['space', 'space', 'space', 'space', 'space', 'space', 'space', 'space', 'space', 'space', 'space', 'space', 'space', 'space', 'space', 'space', 'space', 'space']","[0.2356225779512897, 0.6023088590009138, 1.1028449569130316, 1.73472458391916, 2.41888866701629, 3.01948385394644, 3.535276275011711, 4.136497362982482, 4.7026155919302255, 5.269528997945599, 5.85365196398925, 6.436805824982002, 6.989387374953367, 7.570365067920648, 8.086953594000079, 8.603876631939784, 9.202977597946301, 9.853879869915545]",space,1.0191761500900611,,,,,,,,,,,,,AA,001,2019_Jul_19_1554,rev-kura_tap_2blocks,3.0.6,60.036084967130684,
./stimuli_1/tmp/medium_110_1.wav,110,medium,1.222685394,0,4,4,4,,,,,,,,,,,"['space', 'space', 'space', 'space', 'space', 'space', 'space', 'space', 'space', 'space', 'space', 'space', 'space', 'space', 'space', 'space', 'space', 'space', 'space', 'space', 'space']","[0.21759203099645674, 0.5537515670293942, 1.0035953380865976, 1.4032405050238594, 1.886873546987772, 2.303913112031296, 2.7538641199935228, 3.320224973023869, 3.9038233530009165, 4.487492295098491, 5.054059376008809, 5.608226033044048, 6.1035916151013225, 6.654222295037471, 7.229711008025333, 7.6038889940828085, 8.03727815207094, 8.471670424100012, 8.936860053101555, 9.521288949996233, 9.952783624990843]",space,0.3031065809773281,,,,,,,,,,,,,AA,001,2019_Jul_19_1554,rev-kura_tap_2blocks,3.0.6,60.036084967130684,
,,,,,,,,,,,,,,,,,,,,,,space,3.1862535779364407,,,,,,,,,,,AA,001,2019_Jul_19_1554,rev-kura_tap_2blocks,3.0.6,60.036084967130684,
./stimuli_1/tmp/strong_95_2.wav,95,strong,1.9247114173871775,,,,,0,0,0,23,,,,,,,,,,,,,"['space', 'space', 'space', 'space', 'space', 'space', 'space', 'space', 'space', 'space', 'space', 'space', 'space', 'space', 'space', 'space', 'space', 'space', 'space', 'space', 'space', 'space', 'space', 'space', 'space', 'space', 'space', 'space', 'space', 'space', 'space', 'space', 'space', 'space', 'space', 'space', 'space', 'space', 'space', 'space']","[0.3227607349399477, 0.6033030939288437, 0.7700360548915341, 1.0533450819784775, 1.2358120379503816, 1.619301789905876, 1.7931415509665385, 2.203101651975885, 2.370497847907245, 2.52000009897165, 2.8698077579028904, 3.0358637719182298, 3.203751017921604, 3.520006504957564, 3.6866028709337115, 3.8675116789527237, 4.170357669936493, 4.341109751956537, 4.512640252942219, 4.820336019969545, 5.0035446368856356, 5.387401603977196, 5.570179396891035, 5.737492383923382, 6.053765488904901, 6.2756890369346365, 6.6710242399713024, 6.853831895976327, 7.104341621976346, 7.354237908963114, 7.703403984894976, 7.878927571000531, 8.27132228098344, 8.454088479978964, 8.652550627943128, 9.121587442001328, 9.310278187971562, 9.688082177890465, 9.937732121907175, 10.275605502887629]",space,0.685035169008188,,,,,,,AA,001,2019_Jul_19_1554,rev-kura_tap_2blocks,3.0.6,60.036084967130684,
./stimuli_1/tmp/medium_110_1.wav,110,medium,2.329121662856069,,,,,0,1,1,9,,,,,,,,,,,,,"['space', 'space', 'space', 'space', 'space', 'space', 'space', 'space', 'space', 'space', 'space', 'space', 'space', 'space', 'space', 'space', 'space', 'space', 'space', 'space', 'space', 'space', 'space', 'space', 'space', 'space', 'space', 'space', 'space', 'space', 'space', 'space', 'space', 'space', 'space', 'space', 'space', 'space', 'space', 'space', 'space', 'space', 'space', 'space', 'space', 'space', 'space', 'space', 'space']","[0.20241201808676124, 0.42499446403235197, 0.6078260130016133, 0.7684560040943325, 0.9694712040945888, 1.152841926086694, 1.3522682930342853, 1.535701698041521, 1.7197202970273793, 1.8941287430934608, 2.2526831730501726, 2.4368090690113604, 2.619796909042634, 2.8033592579886317, 3.0008286830270663, 3.2013091020053253, 3.3948935969965532, 3.6039244800340384, 3.786272004013881, 3.986656486056745, 4.2014874670421705, 4.3914783030049875, 4.558079773094505, 4.740953614003956, 4.953961717081256, 5.1364150900626555, 5.319689491996542, 5.520298212999478, 5.720135753042996, 5.929134089034051, 6.129055625991896, 6.320370467030443, 6.519749285071157, 6.737269710050896, 6.9368337920168415, 7.153423165087588, 7.353946371003985, 7.554039160022512, 7.754455395042896, 7.942510190070607, 8.161393758025952, 8.363228333066218, 8.754261405090801, 8.953173829009756, 9.170856685028411, 9.387161861057393, 9.620752902003005, 9.843349763075821, 10.075209611095488]",space,0.549156671972014,,,,,,,AA,001,2019_Jul_19_1554,rev-kura_tap_2blocks,3.0.6,60.036084967130684,
./stimuli_1/tmp/vweak_95_2.wav,95,veryweak,0.8931159092753796,,,,,0,2,2,26,,,,,,,,,,,,,"['space', 'space', 'space', 'space', 'space', 'space', 'space', 'space', 'space', 'space', 'space', 'space', 'space', 'space', 'space', 'space', 'space']","[0.19829030602704734, 0.6641552509972826, 1.1475257819984108, 1.7807951640570536, 2.3469065960962325, 2.921599114080891, 3.5484299761010334, 4.165513543062843, 4.765936930081807, 5.473387425998226, 6.082275638007559, 6.682250976096839, 7.332356641069055, 7.91584245103877, 8.553817549021915, 9.132230443065055, 9.748339486075565]",space,0.7357091789599508,,,,,,,AA,001,2019_Jul_19_1554,rev-kura_tap_2blocks,3.0.6,60.036084967130684,
./stimuli_1/tmp/vweak_95_1.wav,95,veryweak,2.3062765849957056,,,,,0,3,3,20,,,,,,,,,,,,,"['space', 'space', 'space', 'space', 'space', 'space', 'space', 'space', 'space', 'space', 'space', 'space', 'space', 'space', 'space', 'space', 'space', 'space']","[0.0003418320557102561, 0.44380434008780867, 0.836812135996297, 1.353476709104143, 1.9606512190075591, 2.536861766013317, 3.0035227730404586, 3.59241787600331, 4.187235251069069, 4.837859585066326, 5.488046040059999, 6.152171088033356, 6.787652506027371, 7.487597155035473, 8.077063149074093, 8.704351454041898, 9.388872561044991, 9.978254149085842]",space,0.8903757520020008,,,,,,,AA,001,2019_Jul_19_1554,rev-kura_tap_2blocks,3.0.6,60.036084967130684,
./stimuli_1/tmp/perfect_110_0.wav,110,perfect,1.6084356450849469,,,,,0,4,4,14,,,,,,,,,,,,,"['space', 'space', 'space', 'space', 'space', 'space', 'space', 'space', 'space', 'space', 'space', 'space', 'space', 'space', 'space', 'space']","[0.5025573709281161, 0.9694975819438696, 1.4338616679888219, 1.9851238889386877, 2.4732701249886304, 2.9361045230180025, 3.4858572999946773, 4.026097586029209, 4.568932581925765, 5.086000012001023, 5.607648156001233, 6.218846829026006, 6.704065648955293, 7.320144366007298, 7.8864804659970105, 8.369525620015338]",space,0.9608790469355881,,,,,,,AA,001,2019_Jul_19_1554,rev-kura_tap_2blocks,3.0.6,60.036084967130684,
./stimuli_1/tmp/medium_100_2.wav,100,medium,2.04527340540007,,,,,0,5,5,39,,,,,,,,,,,,,"['space', 'space', 'space', 'space', 'space', 'space', 'space', 'space', 'space', 'space', 'space', 'space', 'space', 'space', 'space', 'space', 'space', 'space', 'space', 'space', 'space', 'space', 'space', 'space', 'space', 'space', 'space', 'space', 'space', 'space', 'space', 'space', 'space', 'space', 'space', 'space', 'space', 'space', 'space', 'space', 'space', 'space', 'space', 'space', 'space', 'space', 'space', 'space', 'space', 'space', 'space', 'space', 'space', 'space']","[0.3353324730414897, 0.6100291900802404, 0.7761793960817158, 0.9354732159990817, 1.0856035749893636, 1.2194037830922753, 1.3853604040341452, 1.5351755149895325, 1.7191338670672849, 1.8694361560046673, 2.0416254330193624, 2.2112338760634884, 2.385042456095107, 2.583446881035343, 2.751774701057002, 2.93560518999584, 3.1198588020633906, 3.2861834130017087, 3.4862863190937787, 3.67538096208591, 3.8527591690653935, 4.036232840036973, 4.219322654069401, 4.419754050089978, 4.621422599069774, 4.793041911092587, 4.986467660986818, 5.168897302006371, 5.370323492097668, 5.5527996100718156, 5.736270931083709, 6.058729625074193, 6.252784748096019, 6.436368865077384, 6.603936590021476, 6.786371388006955, 6.970078877988271, 7.15840040508192, 7.341629446018487, 7.51195771608036, 7.7202456060331315, 7.903202960034832, 8.0699337819824, 8.270411116071045, 8.453425195068121, 8.64172391104512, 8.825623583048582, 9.020097205066122, 9.220923394081183, 9.387394156074151, 9.570240152999759, 9.75330970005598, 9.953392734052613, 10.145129379001446]",space,0.656753048999235,,,,,,,AA,001,2019_Jul_19_1554,rev-kura_tap_2blocks,3.0.6,60.036084967130684,
./stimuli_1/tmp/weak_90_1.wav,90,weak,0.9859983787901264,,,,,0,6,6,25,,,,,,,,,,,,,"['space', 'space', 'space', 'space', 'space', 'space', 'space', 'space', 'space', 'space', 'space', 'space', 'space', 'space', 'space', 'space', 'space', 'space', 'space', 'space', 'space', 'space', 'space', 'space', 'space', 'space', 'space', 'space', 'space', 'space', 'space', 'space', 'space', 'space', 'space', 'space', 'space', 'space', 'space', 'space', 'space', 'space', 'space', 'space', 'space', 'space', 'space', 'space', 'space', 'space', 'space', 'space']","[0.18622714094817638, 0.36797717201989144, 0.5405444740317762, 0.835059700999409, 1.0191391919506714, 1.202305078972131, 1.3854801580309868, 1.5682730210246518, 1.768230098998174, 1.9746472720289603, 2.157056145952083, 2.357981567038223, 2.536247984971851, 2.7195181839633733, 2.9191051489906386, 3.119317227974534, 3.3030654130270705, 3.5062900859629735, 3.6779757329495624, 3.8912500309525058, 4.068780172965489, 4.252621768973768, 4.469130242941901, 4.653079145005904, 4.8500667460029945, 5.0363441039808095, 5.219276983989403, 5.439958865987137, 5.628208503942005, 5.818902092985809, 6.018857473973185, 6.219891841989011, 6.41886070696637, 6.62620874599088, 6.8252261319430545, 7.018855759990402, 7.203186138998717, 7.401183097972535, 7.603098426014185, 7.819383012945764, 8.009538969025016, 8.209284182987176, 8.403346739942208, 8.602962773991749, 8.80312341102399, 9.020056420005858, 9.170008177985437, 9.369743073009886, 9.56146938900929, 9.81914269796107, 10.019291323027574, 10.20298268692568]",space,0.43358776695095,,,,,,,AA,001,2019_Jul_19_1554,rev-kura_tap_2blocks,3.0.6,60.036084967130684,
./stimuli_1/tmp/strong_105_1.wav,105,strong,1.0147545796955912,,,,,0,7,7,21,,,,,,,,,,,,,"['space', 'space', 'space', 'space', 'space', 'space', 'space', 'space', 'space', 'space', 'space', 'space', 'space', 'space', 'space', 'space', 'space', 'space', 'space', 'space', 'space', 'space']","[0.0023609159979969263, 0.334864663076587, 0.902650517062284, 1.4195790820522234, 2.0023470839951187, 2.519070944050327, 3.074150367989205, 3.6192535280715674, 4.1696926220320165, 4.726200826000422, 4.986801274004392, 5.436726812040433, 5.852460551075637, 6.2704387221019715, 6.785029920050874, 7.334980296087451, 7.870148845016956, 8.403628690051846, 8.719995134044439, 9.161496449029073, 9.604616013006307, 10.136222310015]",space,0.8530282900901511,,,,,,,AA,001,2019_Jul_19_1554,rev-kura_tap_2blocks,3.0.6,60.036084967130684,
./stimuli_1/tmp/weak_110_1.wav,110,weak,2.0149083604897,,,,,0,8,8,2,,,,,,,,,,,,,"['space', 'space', 'space', 'space', 'space', 'space', 'space', 'space', 'space', 'space', 'space', 'space', 'space', 'space', 'space', 'space', 'space', 'space', 'space', 'space', 'space', 'space', 'space', 'space', 'space', 'space', 'space', 'space', 'space', 'space', 'space', 'space', 'space', 'space', 'space', 'space', 'space', 'space', 'space', 'space', 'space', 'space', 'space', 'space', 'space', 'space', 'space', 'space', 'space', 'space', 'space', 'space', 'space', 'space', 'space', 'space']","[0.22427468397654593, 0.40694983396679163, 0.5772074350388721, 0.7529597149696201, 0.9193893870105967, 1.0858070340473205, 1.2362996239680797, 1.3860984130296856, 1.5534897620091215, 1.723214896977879, 1.9099449940258637, 2.0599999909754843, 2.251658756053075, 2.436589580029249, 2.636103124008514, 2.836097015067935, 3.020401032990776, 3.225552560063079, 3.407846115063876, 3.61971789796371, 3.817080043023452, 4.017948745051399, 4.202119085006416, 4.39124204905238, 4.587190738064237, 4.770368475001305, 4.969722934067249, 5.170278341975063, 5.370196948060766, 5.5699467330705374, 5.770612952997908, 5.937232251046225, 6.120792463072576, 6.312284387066029, 6.493008029065095, 6.654810389038175, 6.837200780049898, 7.018500723061152, 7.2040128640364856, 7.3865703620249406, 7.571321483002976, 7.80405860603787, 7.985760733019561, 8.154147229972295, 8.3279853570275, 8.509386013029143, 8.704552809009328, 8.887229633051902, 9.070900153019466, 9.270707768038847, 9.454539105994627, 9.638043317012489, 9.841814327053726, 10.041712142061442, 10.221126125077717, 10.904421780025586]",space,2.569138825056143,,,,,,,AA,001,2019_Jul_19_1554,rev-kura_tap_2blocks,3.0.6,60.036084967130684,
./stimuli_1/tmp/medium_105_2.wav,105,medium,1.0084971164384815,,,,,0,9,9,15,,,,,,,,,,,,,"['space', 'space', 'space', 'space', 'space', 'space', 'space', 'space', 'space', 'space', 'space', 'space', 'space', 'space', 'space', 'space', 'space', 'space', 'space', 'space', 'space', 'space', 'space', 'space', 'space', 'space', 'space', 'space', 'space', 'space', 'space', 'space', 'space', 'space', 'space', 'space', 'space', 'space', 'space', 'space', 'space', 'space', 'space', 'space', 'space', 'space', 'space', 'space', 'space', 'space', 'space', 'space', 'space']","[0.18570941302459687, 0.6185715519823134, 0.7939765789778903, 0.9729548830073327, 1.1182467939797789, 1.26880391407758, 1.435031985049136, 1.5851409620372579, 1.7683838210068643, 1.9191156290471554, 2.1856440670089796, 2.392232395010069, 2.583379951072857, 2.752153894980438, 2.9358025670517236, 3.0862722010351717, 3.2571052559651434, 3.4517670350614935, 3.6180718400282785, 3.78532909497153, 3.969094663974829, 4.202675897045992, 4.368937649996951, 4.535416853032075, 4.718360519036651, 4.902927579008974, 5.0857306140242144, 5.257657365989871, 5.435818028985523, 5.619490553042851, 5.802779028075747, 5.985667836968787, 6.151959090027958, 6.323135446989909, 6.486135703977197, 6.6357707739807665, 6.902880312060006, 7.052488664048724, 7.235996781964786, 7.43567699205596, 7.63686582702212, 7.8265790360746905, 8.002593902987428, 8.185895311064087, 8.386237255996093, 8.566856335033663, 8.775154320057482, 9.010631041019224, 9.1754249939695, 9.356963391066529, 9.586411952972412, 9.986025460995734, 10.170183510053903]",space,0.4696953089442104,,,,,,,AA,001,2019_Jul_19_1554,rev-kura_tap_2blocks,3.0.6,60.036084967130684,
./stimuli_1/tmp/medium_110_2.wav,110,medium,1.2230002870033518,,,,,0,10,10,11,,,,,,,,,,,,,"['space', 'space', 'space', 'space', 'space', 'space', 'space', 'space', 'space', 'space', 'space', 'space', 'space', 'space', 'space', 'space', 'space', 'space', 'space', 'space', 'space', 'space', 'space', 'space', 'space', 'space', 'space', 'space', 'space', 'space', 'space', 'space', 'space', 'space', 'space', 'space', 'space', 'space', 'space', 'space', 'space', 'space', 'space', 'space', 'space', 'space', 'space', 'space', 'space', 'space']","[0.00043383101001381874, 0.45195420493837446, 0.6183551099384204, 0.8021588890114799, 1.0022856330033392, 1.1905642650090158, 1.3685172370169312, 1.5528569939779118, 1.7361728439573199, 1.919253094936721, 2.119344117003493, 2.2863992359489202, 2.4859957799781114, 2.6758095319382846, 2.857102804002352, 3.0333622259786353, 3.2196249660337344, 3.402806894038804, 3.5864143329672515, 3.7862755809910595, 3.98600983095821, 4.169944521039724, 4.351775798946619, 4.519831868004985, 4.740325880935416, 4.936522850999609, 5.169974492979236, 5.369882769999094, 5.553174786968157, 5.759201262029819, 6.0359686920419335, 6.185986708966084, 6.337066250038333, 6.552872010041028, 6.753120261942968, 7.002325142966583, 7.177171643008478, 7.395422389963642, 7.602425434975885, 7.8024402930168435, 8.019604827975854, 8.220015277038328, 8.437416383996606, 8.655562705011107, 8.855223270948045, 9.020148426992819, 9.220161276985891, 9.669420992024243, 9.870587292010896, 10.087087798980065]",space,0.6197812090395018,,,,,,,AA,001,2019_Jul_19_1554,rev-kura_tap_2blocks,3.0.6,60.036084967130684,
./stimuli_1/tmp/perfect_95_0.wav,95,perfect,0.9040880170397579,,,,,0,11,11,22,,,,,,,,,,,,,"['space', 'space', 'space', 'space', 'space', 'space', 'space', 'space', 'space', 'space', 'space', 'space', 'space', 'space', 'space', 'space', 'space']","[0.6239458259660751, 1.085582504980266, 1.602548569906503, 2.1772538719233125, 2.719502521911636, 3.3198448159964755, 3.936080273007974, 4.50341653090436, 5.17603665497154, 5.720033467980102, 6.353529738960788, 6.953882631962188, 7.6034201179863885, 8.1206302709179, 8.619268995942548, 9.053578745923005, 9.634068632964045]",space,0.5532501449342817,,,,,,,AA,001,2019_Jul_19_1554,rev-kura_tap_2blocks,3.0.6,60.036084967130684,
./stimuli_1/tmp/weak_105_1.wav,105,weak,1.836206824337069,,,,,0,12,12,40,,,,,,,,,,,,,"['space', 'space', 'space', 'space', 'space', 'space', 'space', 'space', 'space', 'space', 'space', 'space', 'space', 'space', 'space', 'space', 'space', 'space', 'space', 'space', 'space', 'space', 'space', 'space', 'space', 'space', 'space', 'space', 'space', 'space', 'space', 'space', 'space', 'space', 'space', 'space', 'space', 'space', 'space', 'space', 'space', 'space', 'space', 'space', 'space', 'space', 'space', 'space', 'space', 'space', 'space', 'space', 'space', 'space', 'space', 'space', 'space']","[0.23530496598687023, 0.4074906409950927, 0.5733921029604971, 0.7189162379363552, 0.8856791110010818, 1.018962160916999, 1.1857324799057096, 1.3193594029871747, 1.469580249977298, 1.6195149339037016, 1.7925942399306223, 1.940932041965425, 2.1120205209590495, 2.2860103569692, 2.468861051951535, 2.65296524297446, 2.8170464179711416, 2.98537431191653, 3.1694129878887907, 3.34250207291916, 3.5572881218977273, 3.7198989659082144, 3.902984612970613, 4.086238830932416, 4.269929436966777, 4.4862905679037794, 4.669753002934158, 4.843433444970287, 5.008848992991261, 5.208686037920415, 5.38857960794121, 5.5704126979690045, 5.736907885991968, 5.9363490579416975, 6.136918701929972, 6.3076756849186495, 6.4774932289728895, 6.659567825961858, 6.85330618894659, 7.054076257976703, 7.237113153911196, 7.437063033925369, 7.670450808946043, 7.826625979971141, 8.027375036966987, 8.192694912897423, 8.392406525905244, 8.575496419914998, 8.776119018904865, 8.985559069900773, 9.170783724985085, 9.336951506906189, 9.569204877945594, 9.73749206296634, 9.908895310945809, 10.105537262978032, 10.287209863890894]",space,0.40740614698734134,,,,,,,AA,001,2019_Jul_19_1554,rev-kura_tap_2blocks,3.0.6,60.036084967130684,
./stimuli_1/tmp/strong_110_2.wav,110,strong,2.207655803028663,,,,,0,13,13,5,,,,,,,,,,,,,"['space', 'space', 'space', 'space', 'space', 'space', 'space', 'space', 'space', 'space', 'space', 'space', 'space', 'space', 'space', 'space', 'space', 'space', 'space', 'space', 'space', 'space', 'space', 'space', 'space', 'space', 'space', 'space', 'space', 'space', 'space', 'space', 'space', 'space', 'space', 'space', 'space', 'space', 'space', 'space', 'space', 'space', 'space', 'space', 'space', 'space', 'space', 'space', 'space', 'space', 'space', 'space']","[0.00035775790456682444, 0.35472439392469823, 0.5184715769719332, 0.7022197819314897, 0.8849681379506364, 1.0693249569740146, 1.26977622800041, 1.4524380880175158, 1.669072177959606, 1.8526876280084252, 2.069643409922719, 2.256948158959858, 2.4689537360100076, 2.7015907539753243, 2.9199482980184257, 3.11703161499463, 3.317344772978686, 3.5360557549865916, 3.791983946925029, 3.9922878589713946, 4.20877201994881, 4.403835548902862, 4.6036153809400275, 4.820333082927391, 5.0198936379747465, 5.2199019429972395, 5.426289010909386, 5.641241702949628, 5.819505037972704, 6.003075712942518, 6.2197061779443175, 6.453967429930344, 6.65385612193495, 6.857711624004878, 7.040633330005221, 7.255111175007187, 7.486286739003845, 7.720008966978639, 7.919841966941021, 8.120127526926808, 8.343107827939093, 8.603529350017197, 8.836968550924212, 9.019355452968739, 9.270728167961352, 9.46982570993714, 9.720116762910038, 9.958411974948831, 10.170436289976351]",space,0.7365885260514915,,,,,,,AA,001,2019_Jul_19_1554,rev-kura_tap_2blocks,3.0.6,60.036084967130684,
./stimuli_1/tmp/weak_90_2.wav,90,weak,2.0550535874665283,,,,,0,14,14,19,,,,,,,,,,,,,"['space', 'space', 'space', 'space', 'space', 'space', 'space', 'space', 'space', 'space', 'space', 'space', 'space', 'space', 'space', 'space', 'space', 'space', 'space', 'space', 'space', 'space', 'space', 'space', 'space', 'space', 'space', 'space', 'space', 'space', 'space', 'space', 'space', 'space', 'space', 'space', 'space', 'space', 'space', 'space', 'space', 'space', 'space', 'space', 'space', 'space', 'space']","[0.2784181321039796, 0.7780017830664292, 0.977714509004727, 1.1783226050902158, 1.3773651720257476, 1.5949116620467976, 1.7788535370491445, 1.982325547025539, 2.195245714043267, 2.4128956090426072, 2.6434749430045485, 2.828132617054507, 3.0178551600547507, 3.1837655850686133, 3.3958180610788986, 3.5954335830174387, 3.7960203120019287, 4.013238568091765, 4.21183500206098, 4.4288175670662895, 4.633140217047185, 4.843441246077418, 5.043881331104785, 5.26249968400225, 5.462321976083331, 5.685819298028946, 5.878941775066778, 6.163247901014984, 6.362455720081925, 6.571473342017271, 6.786169526050799, 6.962659745011479, 7.179447044036351, 7.378323679091409, 7.596084240009077, 7.796176021103747, 8.034028877038509, 8.233669756096788, 8.44609829201363, 8.646173832006752, 8.86270878603682, 9.09636968106497, 9.296479898039252, 9.780017021112144, 9.9799510310404, 10.16326027305331, 10.379093100083992]",space,0.5406143950531259,,,,,,,AA,001,2019_Jul_19_1554,rev-kura_tap_2blocks,3.0.6,60.036084967130684,
./stimuli_1/tmp/vweak_105_1.wav,105,veryweak,1.5865792935710243,,,,,0,15,15,6,,,,,,,,,,,,,"['space', 'space', 'space', 'space', 'space', 'space', 'space', 'space', 'space', 'space', 'space', 'space', 'space', 'space', 'space', 'space', 'space', 'space', 'space', 'space', 'space', 'space', 'space', 'space', 'space', 'space', 'space', 'space', 'space', 'space', 'space', 'space', 'space', 'space', 'space', 'space', 'space', 'space', 'space', 'space', 'space', 'space', 'space', 'space', 'space', 'space', 'space', 'space', 'space', 'space']","[0.3166595819639042, 0.492886665975675, 0.7078216889640316, 0.9176301099359989, 1.1181027520215139, 1.2999708179850131, 1.4835290659684688, 1.6667116549797356, 1.8354763489915058, 2.0238827869761735, 2.1905588880181313, 2.377482572919689, 2.5530753809725866, 2.7356408709893003, 2.9013759839581326, 3.0669205469312146, 3.252698655007407, 3.4396850309567526, 3.6277104769833386, 3.8229394759982824, 4.0197106609120965, 4.202390521997586, 4.402894604951143, 4.5863482939312235, 4.803451812942512, 5.041091123013757, 5.227705522906035, 5.569485209998675, 5.78649145795498, 6.003229631925933, 6.203195550944656, 6.402869003009982, 6.608546543982811, 6.8197356360033154, 7.0032841169741005, 7.219769810908474, 7.403227104921825, 7.591345365974121, 7.803473984939046, 7.986492379917763, 8.170341901946813, 8.386945405974984, 8.58678128698375, 8.7873958889395, 8.953780116979033, 9.354333826922812, 9.52591200300958, 9.725876107928343, 9.90299676801078, 10.153723464929499]",space,0.5121614169329405,,,,,,,AA,001,2019_Jul_19_1554,rev-kura_tap_2blocks,3.0.6,60.036084967130684,
./stimuli_1/tmp/strong_90_1.wav,90,strong,1.0164309465650456,,,,,0,16,16,36,,,,,,,,,,,,,"['space', 'space', 'space', 'space', 'space', 'space', 'space', 'space', 'space', 'space', 'space', 'space', 'space', 'space', 'space', 'space', 'space', 'space', 'space', 'space', 'space', 'space', 'space', 'space', 'space', 'space', 'space', 'space', 'space', 'space', 'space', 'space']","[0.46244327805470675, 0.6125757499830797, 0.7960109299747273, 0.9848996970104054, 1.462854881072417, 1.6297472510486841, 1.779694003984332, 2.346333872061223, 2.502857733052224, 3.079089481034316, 3.2457078580046073, 3.7793648110236973, 3.967646555043757, 4.463488924084231, 4.613757390063256, 5.296728873974644, 5.830527262063697, 5.996887817047536, 6.546851412975229, 6.697499752976, 6.846737895044498, 7.263655401067808, 7.43046222999692, 7.963947031996213, 8.118800612981431, 8.647610019077547, 8.81442228204105, 9.331015630043112, 9.501505739986897, 9.668163084075786, 10.130850946996361, 10.297043899074197]",space,0.5452950280159712,,,,,,,AA,001,2019_Jul_19_1554,rev-kura_tap_2blocks,3.0.6,60.036084967130684,
./stimuli_1/tmp/weak_105_2.wav,105,weak,1.001835683313388,,,,,0,17,17,43,,,,,,,,,,,,,"['space', 'space', 'space', 'space', 'space', 'space', 'space', 'space', 'space', 'space', 'space', 'space', 'space', 'space', 'space', 'space', 'space', 'space', 'space', 'space', 'space', 'space', 'space', 'space', 'space', 'space', 'space', 'space', 'space', 'space', 'space', 'space', 'space', 'space', 'space', 'space', 'space', 'space', 'space', 'space', 'space', 'space', 'space', 'space', 'space', 'space', 'space', 'space', 'space', 'space', 'space', 'space', 'space', 'space', 'space', 'space']","[0.2928193419938907, 0.6456990160513669, 0.8463822420453653, 1.020253417082131, 1.200093183084391, 1.3996632990892977, 1.5794328540796414, 1.7455838089808822, 1.945459080976434, 2.111615663045086, 2.2948315939866006, 2.483417398063466, 2.661394788068719, 2.8615708630532026, 3.0465629630489275, 3.2291884290752932, 3.3793629209976643, 3.545697720022872, 3.7121643730206415, 3.8791407420067117, 4.029398969025351, 4.195667059044354, 4.3465615280438215, 4.502177383983508, 4.665306218084879, 4.846357834991068, 4.995579419075511, 5.162539661047049, 5.3291841060854495, 5.512832214008085, 5.696676045074128, 5.863128837081604, 6.036044173059054, 6.200695906067267, 6.384264138992876, 6.555170029983856, 6.746771463076584, 6.947002754081041, 7.146763417054899, 7.346676298067905, 7.513277066056617, 7.696376724052243, 7.8633737050695345, 8.038854683050886, 8.221324310055934, 8.413036988000385, 8.580425668042153, 8.763537881080993, 8.9467142050853, 9.130173076991923, 9.330342438071966, 9.49755749606993, 9.69666622101795, 9.880033186986111, 10.036191164050251, 10.21811364707537]",space,0.8018220179947093,,,,,,,AA,001,2019_Jul_19_1554,rev-kura_tap_2blocks,3.0.6,60.036084967130684,
./stimuli_1/tmp/strong_100_1.wav,100,strong,0.9342312220686824,,,,,0,18,18,33,,,,,,,,,,,,,"['space', 'space', 'space', 'space', 'space', 'space', 'space', 'space', 'space', 'space', 'space', 'space', 'space', 'space', 'space', 'space', 'space', 'space', 'space']","[0.0003254460170865059, 0.2700269389897585, 0.6860923239728436, 1.3028396760346368, 2.1864643630106, 2.703399337013252, 3.2910066209733486, 3.886580583988689, 4.4867440609959885, 4.719132939004339, 5.254053837037645, 6.0034152190200984, 6.536989695974626, 7.088118258980103, 7.75470209994819, 8.354429716942832, 9.038059229962528, 9.687483994057402, 10.254164083045907]",space,0.5908076369669288,,,,,,,AA,001,2019_Jul_19_1554,rev-kura_tap_2blocks,3.0.6,60.036084967130684,
./stimuli_1/tmp/vweak_110_2.wav,110,veryweak,2.387367571314827,,,,,0,19,19,24,,,,,,,,,,,,,"['space', 'space', 'space', 'space', 'space', 'space', 'space', 'space', 'space', 'space', 'space', 'space', 'space', 'space', 'space', 'space', 'space', 'space', 'space', 'space', 'space', 'space', 'space', 'space', 'space', 'space', 'space', 'space', 'space', 'space', 'space', 'space', 'space', 'space', 'space', 'space', 'space', 'space', 'space', 'space', 'space', 'space', 'space', 'space', 'space', 'space', 'space', 'space', 'space', 'space', 'space', 'space', 'space']","[0.26385193201713264, 0.5961043779971078, 0.7804031519917771, 0.9631749839754775, 1.1302342190174386, 1.4447205839678645, 1.6274266350083053, 1.8277408910216764, 1.9966373660136014, 2.1805969580309466, 2.369783752015792, 2.5522895619506016, 2.7468717539450154, 2.913838563952595, 3.080469937995076, 3.2472239999333397, 3.445374276023358, 3.6134775809478015, 3.7806147049413994, 3.954714234918356, 4.0977894709212705, 4.28083093801979, 4.447508755023591, 4.630401268019341, 4.797570488997735, 4.955545646022074, 5.153473790967837, 5.330348765011877, 5.5307643950218335, 5.6974280149443075, 5.881564351962879, 6.079976381966844, 6.264693239936605, 6.4479353739880025, 6.64579820795916, 6.9731039790203795, 7.118923294940032, 7.298200958990492, 7.481771840015426, 7.647759955027141, 7.8323395169572905, 8.03164697799366, 8.21455370192416, 8.421299707959406, 8.604077133000828, 8.814626806997694, 8.998794439947233, 9.19846491701901, 9.380996496998705, 9.581774655962363, 9.76529719796963, 9.96529575495515, 10.131024200003594]",space,0.460177191067487,,,,,,,AA,001,2019_Jul_19_1554,rev-kura_tap_2blocks,3.0.6,60.036084967130684,
./stimuli_1/tmp/weak_100_2.wav,100,weak,1.1760706735702942,,,,,0,20,20,17,,,,,,,,,,,,,"['space', 'space', 'space', 'space', 'space', 'space', 'space', 'space', 'space', 'space', 'space', 'space', 'space', 'space', 'space', 'space', 'space', 'space', 'space', 'space', 'space', 'space', 'space', 'space', 'space', 'space', 'space', 'space', 'space', 'space', 'space', 'space', 'space', 'space', 'space', 'space', 'space', 'space', 'space', 'space', 'space', 'space', 'space', 'space', 'space', 'space', 'space', 'space', 'space']","[0.26890296896453947, 0.585377000970766, 0.7728638099506497, 0.944023975986056, 1.1356382550438866, 1.3356909420108423, 1.5188334890408441, 1.7019848820054904, 1.8902301139896736, 2.0613802860025316, 2.2699318300001323, 2.469469364034012, 2.635589609039016, 2.819069957942702, 3.0018988880328834, 3.20244692300912, 3.3904807049548253, 3.6026989340316504, 3.785518183023669, 4.019541527028196, 4.168772049015388, 4.386473163962364, 4.585986905964091, 4.771432292996906, 4.957982723950408, 5.135583068942651, 5.333655016031116, 5.5201492719352245, 5.720113163930364, 5.924696592963301, 6.117268995963968, 6.302093722042628, 6.670085430960171, 6.88579398393631, 7.085845276946202, 7.2700287429615855, 7.602751564932987, 7.788882380933501, 7.989924042019993, 8.220372866024263, 8.603381205000915, 8.769086434971541, 9.187387865036726, 9.336611284990795, 9.620483948965557, 9.837413823930547, 10.020113456994295, 10.203767598955892, 10.39147229399532]",space,0.4682905690278858,,,,,,,AA,001,2019_Jul_19_1554,rev-kura_tap_2blocks,3.0.6,60.036084967130684,
./stimuli_1/tmp/strong_110_1.wav,110,strong,1.5289804703184482,,,,,0,21,21,7,,,,,,,,,,,,,"['space', 'space', 'space', 'space', 'space', 'space', 'space', 'space', 'space', 'space', 'space', 'space', 'space', 'space', 'space', 'space', 'space', 'space', 'space', 'space', 'space', 'space', 'space', 'space', 'space', 'space', 'space', 'space', 'space', 'space', 'space', 'space', 'space', 'space', 'space', 'space', 'space', 'space', 'space', 'space', 'space']","[0.2643097339896485, 0.3964571679243818, 0.714133913978003, 0.8707243929384276, 1.0697665149345994, 1.2787266299128532, 1.6648774578934535, 2.0475183438975364, 2.264332939987071, 2.422340778983198, 2.7311088419519365, 2.9143534569302574, 3.264794632908888, 3.448280450887978, 3.6315909369150177, 3.903884989907965, 4.069654839928262, 4.285440903971903, 4.462403836892918, 4.645563252968714, 4.83218353393022, 5.081533471937291, 5.265447720885277, 5.549468438955955, 5.681848674896173, 5.931558312964626, 6.181613046908751, 6.3863988989032805, 6.898160754935816, 7.082215170958079, 7.432029748917557, 7.7657588929869235, 8.019681439967826, 8.190971025964245, 8.53239002393093, 8.73167816188652, 8.93307992699556, 9.332576184999198, 9.737515234970488, 9.915812153951265, 10.149050162988715]",space,0.43690006306860596,,,,,,,AA,001,2019_Jul_19_1554,rev-kura_tap_2blocks,3.0.6,60.036084967130684,
./stimuli_1/tmp/strong_95_1.wav,95,strong,1.1505934633844526,,,,,0,22,22,29,,,,,,,,,,,,,"['space', 'space', 'space', 'space', 'space', 'space', 'space', 'space', 'space', 'space', 'space', 'space', 'space', 'space', 'space', 'space', 'space', 'space', 'space']","[0.2315065689617768, 0.38156592997256666, 0.7478702679509297, 1.2150846779113635, 1.8307500379160047, 2.385796880000271, 3.1807924119057134, 3.6148204839555547, 4.2320220050169155, 4.782092839945108, 5.390074371942319, 6.0151440990157425, 6.598905446007848, 7.2319255819311365, 7.848775663995184, 8.407160511938855, 9.048619368928485, 9.666126659954898, 10.282589153968729]",space,0.5024002399295568,,,,,,,AA,001,2019_Jul_19_1554,rev-kura_tap_2blocks,3.0.6,60.036084967130684,
./stimuli_1/tmp/perfect_100_0.wav,100,perfect,0.9387216258197292,,,,,0,23,23,1,,,,,,,,,,,,,"['space', 'space', 'space', 'space', 'space', 'space', 'space', 'space', 'space', 'space', 'space', 'space', 'space', 'space', 'space', 'space']","[0.734230060945265, 1.117263418971561, 1.4527660789899528, 2.0576301149558276, 2.60332789295353, 3.220009696902707, 3.8200030679581687, 4.370090187992901, 5.053622651961632, 5.6114435700001195, 6.203669969923794, 6.803751284955069, 7.43685508496128, 8.037699205917306, 8.60911265492905, 9.18715902196709]",space,0.5789450040319934,,,,,,,AA,001,2019_Jul_19_1554,rev-kura_tap_2blocks,3.0.6,60.036084967130684,
./stimuli_1/tmp/weak_95_1.wav,95,weak,1.7341185709044675,,,,,0,24,24,38,,,,,,,,,,,,,"['space', 'space', 'space', 'space', 'space', 'space', 'space', 'space', 'space', 'space', 'space', 'space', 'space', 'space', 'space', 'space', 'space', 'space', 'space', 'space', 'space', 'space', 'space', 'space', 'space', 'space', 'space', 'space', 'space', 'space', 'space', 'space', 'space', 'space', 'space', 'space', 'space', 'space', 'space', 'space', 'space', 'space', 'space', 'space', 'space', 'space', 'space', 'space', 'space', 'space', 'space', 'space']","[0.4524574870010838, 0.6400618669576943, 0.8233445510268211, 0.9859028540086001, 1.1522440739208832, 1.2858099299483001, 1.435860977973789, 1.6027454460272565, 1.7757453989470378, 2.1027776550035924, 2.269459225004539, 2.4366702790139243, 2.6199322319589555, 2.802835547947325, 2.9700311350170523, 3.136208471027203, 3.519698982941918, 3.692376783932559, 3.8698305959114805, 4.053169199964032, 4.219912308966741, 4.436753129004501, 4.602720028022304, 4.790556692983955, 4.969573108945042, 5.136461233953014, 5.334426098968834, 5.553651888971217, 5.771863697911613, 5.943681404925883, 6.120248652994633, 6.3031500480137765, 6.5034953489666805, 6.703897548955865, 6.886528320959769, 7.086958657950163, 7.278775261016563, 7.487541873008013, 7.6703821800183505, 7.8709155599353835, 8.054380828980356, 8.270721711916849, 8.470413970993832, 8.673156049917452, 8.860496827983297, 9.054390300996602, 9.254117811913602, 9.436289436998777, 9.620749793946743, 9.825751940952614, 10.003935748012736, 10.204277999931946]",space,0.6358858559979126,,,,,,,AA,001,2019_Jul_19_1554,rev-kura_tap_2blocks,3.0.6,60.036084967130684,
./stimuli_1/tmp/vweak_110_1.wav,110,veryweak,1.960910260734648,,,,,0,25,25,28,,,,,,,,,,,,,"['space', 'space', 'space', 'space', 'space', 'space', 'space', 'space', 'space', 'space', 'space', 'space', 'space', 'space', 'space', 'space', 'space', 'space', 'space', 'space', 'space', 'space', 'space', 'space', 'space', 'space', 'space', 'space', 'space', 'space', 'space', 'space', 'space', 'space', 'space', 'space', 'space', 'space', 'space', 'space', 'space', 'space', 'space', 'space', 'space', 'space', 'space', 'space', 'space', 'space', 'space', 'space']","[0.29294593702070415, 0.41899293300230056, 0.6363743770634755, 0.8037128739524633, 0.9530392020242289, 1.1409228950506076, 1.436173713998869, 1.603174946969375, 1.7861099609872326, 1.953180882963352, 2.123876180034131, 2.307174609042704, 2.4870986939640716, 2.670103308977559, 2.8363010470056906, 3.0203475169837475, 3.2243184839608148, 3.3921926480252296, 3.5699461130425334, 3.7525801779702306, 3.936888330965303, 4.136968679027632, 4.337008384056389, 4.520361272036098, 4.742114247987047, 4.942335944972001, 5.170245883055031, 5.370676424005069, 5.569566649035551, 5.769984598970041, 5.970766830025241, 6.158378981053829, 6.410841427044943, 6.587459541973658, 6.804079873953015, 6.98764468904119, 7.203820117982104, 7.387350467965007, 7.587263843975961, 7.792201858013868, 7.986355665954761, 8.204208926996216, 8.38628833706025, 8.620387069997378, 8.807816034997813, 9.020734361023642, 9.23808217199985, 9.43673848605249, 9.65465220704209, 9.868820004048757, 10.070484675001353, 10.288127718959004]",space,0.45078170695342124,,,,,,,AA,001,2019_Jul_19_1554,rev-kura_tap_2blocks,3.0.6,60.036084967130684,
./stimuli_1/tmp/vweak_100_1.wav,100,veryweak,1.033127247767209,,,,,0,26,26,3,,,,,,,,,,,,,"['space', 'space', 'space', 'space', 'space', 'space', 'space', 'space', 'space', 'space', 'space', 'space', 'space', 'space', 'space', 'space', 'space', 'space', 'space', 'space', 'space', 'space', 'space', 'space', 'space', 'space', 'space', 'space', 'space', 'space', 'space', 'space', 'space', 'space', 'space', 'space', 'space', 'space', 'space', 'space', 'space', 'space', 'space', 'space', 'space', 'space', 'space', 'space']","[0.5352113220142201, 0.7064709309488535, 0.9104324920335785, 1.1191100570140406, 1.319304778939113, 1.51947250100784, 1.7024652409600094, 1.9024096940411255, 2.0852274890057743, 2.295131118968129, 2.486105822958052, 2.6695338030112907, 2.8867023029597476, 3.1023852169746533, 3.307201434043236, 3.517057813005522, 3.7193056229734793, 3.9021785180084407, 4.086678838939406, 4.473872874979861, 4.702554067014717, 4.903368019033223, 5.103182454942726, 5.286638031946495, 5.486714642960578, 5.687201482942328, 5.8757373850094154, 6.053491962025873, 6.253407391952351, 6.453382998006418, 6.653121760929935, 6.842677404987626, 7.05367372604087, 7.269977311952971, 7.504655848955736, 7.70378742495086, 7.886743349954486, 8.102797886007465, 8.327673370018601, 8.517989665037021, 8.718482680036686, 8.9032063849736, 9.087152799940668, 9.286532605998218, 9.503211403032765, 9.687066255952232, 9.912417395971715, 10.137597666005604]",space,0.19853716297075152,,,,,,,AA,001,2019_Jul_19_1554,rev-kura_tap_2blocks,3.0.6,60.036084967130684,
./stimuli_1/tmp/weak_95_2.wav,95,weak,1.8208379789801632,,,,,0,27,27,34,,,,,,,,,,,,,"['space', 'space', 'space', 'space', 'space', 'space', 'space', 'space', 'space', 'space', 'space', 'space', 'space', 'space', 'space', 'space', 'space', 'space', 'space', 'space', 'space', 'space', 'space', 'space', 'space', 'space', 'space', 'space', 'space', 'space', 'space', 'space', 'space', 'space', 'space', 'space', 'space', 'space', 'space', 'space', 'space', 'space', 'space', 'space', 'space', 'space', 'space', 'space', 'space', 'space']","[0.20648752094712108, 0.36086432193405926, 0.5532678839517757, 0.7359634509775788, 0.9188200959470123, 1.0861053050030023, 1.2857696869177744, 1.4853339459514245, 1.7190595020074397, 2.068894309923053, 2.223587595974095, 2.6689911070279777, 2.8358074859716, 3.0193173619918525, 3.3103405019501224, 3.667535369982943, 3.8505538019817322, 4.03561294300016, 4.219792581978254, 4.40309428202454, 4.569920989917591, 4.7589009390212595, 4.940923654008657, 5.103437045938335, 5.286320916027762, 5.469748270930722, 5.703332158969715, 5.936253019026481, 6.103397706989199, 6.3250780559610575, 6.508349128998816, 6.736698681022972, 6.93665416399017, 7.136359764030203, 7.337641180958599, 7.5374301000265405, 7.704123334959149, 7.907311899005435, 8.052251901011914, 8.27045770001132, 8.487653627991676, 8.653133237967268, 8.910783683997579, 9.038672039983794, 9.236960200942121, 9.403189550968818, 9.65147561894264, 9.78693639591802, 10.137196135008708, 10.337462089024484]",space,0.6523736240342259,,,,,,,AA,001,2019_Jul_19_1554,rev-kura_tap_2blocks,3.0.6,60.036084967130684,
./stimuli_1/tmp/perfect_90_0.wav,90,perfect,1.832844667079334,,,,,0,28,28,31,,,,,,,,,,,,,"['space', 'space', 'space', 'space', 'space', 'space', 'space', 'space', 'space', 'space', 'space', 'space', 'space', 'space', 'space', 'space', 'space']","[0.686124971951358, 0.8256345989648253, 1.2199206580407917, 1.7359013269888237, 2.36002456699498, 2.9864773609442636, 3.6692580620292574, 4.302800597972237, 4.969900605035946, 5.6527064490364864, 6.269578831968829, 6.870497860014439, 7.520064127980731, 8.219981107045896, 8.919729780987836, 9.5373130539665, 10.204202178982086]",space,0.47880161099601537,,,,,,,AA,001,2019_Jul_19_1554,rev-kura_tap_2blocks,3.0.6,60.036084967130684,
./stimuli_1/tmp/medium_95_1.wav,95,medium,1.0117256779490966,,,,,0,29,29,16,,,,,,,,,,,,,"['space', 'space', 'space', 'space', 'space', 'space', 'space', 'space', 'space', 'space', 'space', 'space', 'space', 'space', 'space', 'space', 'space', 'space', 'space', 'space', 'space', 'space', 'space', 'space', 'space', 'space', 'space', 'space', 'space', 'space', 'space', 'space', 'space', 'space', 'space', 'space', 'space', 'space', 'space', 'space', 'space', 'space', 'space', 'space', 'space', 'space', 'space', 'space', 'space', 'space', 'space', 'space', 'space', 'space', 'space', 'space']","[0.0006841979920864105, 0.3855807309737429, 0.551649573026225, 0.7026217500679195, 0.8745913190068677, 1.0097831439925358, 1.126301478012465, 1.3092717650579289, 1.469312716042623, 1.6522612409899011, 1.8026147129712626, 1.969223482068628, 2.1190855749882758, 2.2858762410469353, 2.444167518056929, 2.6021595330676064, 2.769183848053217, 2.9504901920445263, 3.1188807210419327, 3.2862789910286665, 3.4746136020403355, 3.6545349820517004, 3.835561683983542, 4.020480567007326, 4.202922857017256, 4.403389640036039, 4.602970820968039, 4.803370474022813, 4.995717365993187, 5.185801365994848, 5.369889319059439, 5.568154364009388, 5.751074056024663, 5.936780059011653, 6.13619968900457, 6.319020997034386, 6.519167087972164, 6.70332013303414, 6.89063671301119, 7.1031348380493, 7.3033327689627185, 7.48700554005336, 7.720203454024158, 7.908200492034666, 8.103736503981054, 8.303693286026828, 8.518247272004373, 8.704325782018714, 8.90392186306417, 9.104099548072554, 9.302661356050521, 9.487123396014795, 9.686701874015853, 9.890878246049397, 10.089327794965357, 10.303402189980261]",space,0.6982714700279757,,,,,,,AA,001,2019_Jul_19_1554,rev-kura_tap_2blocks,3.0.6,60.036084967130684,
./stimuli_1/tmp/strong_105_2.wav,105,strong,1.1778605446380568,,,,,0,30,30,27,,,,,,,,,,,,,"['space', 'space', 'space', 'space', 'space', 'space', 'space', 'space', 'space', 'space', 'space', 'space', 'space', 'space', 'space', 'space', 'space', 'space', 'space', 'space', 'space', 'space', 'space', 'space', 'space', 'space', 'space', 'space', 'space', 'space', 'space', 'space', 'space', 'space', 'space', 'space', 'space', 'space', 'space', 'space', 'space']","[0.28767818107735366, 0.6474354279926047, 0.9962644370971248, 1.1639437261037529, 1.5529568890342489, 1.7180965080624446, 1.8974068290553987, 2.2642250140197575, 2.430641754064709, 2.8970074669923633, 3.03629981901031, 3.2015709379920736, 3.5957475800532848, 3.730393490055576, 4.047994537046179, 4.2477749061072245, 4.4140920410864055, 4.813758783042431, 4.980924039031379, 5.148017105064355, 5.496921312063932, 5.668809746042825, 5.9313906989991665, 6.1789962380426005, 6.347896157996729, 6.6988134200219065, 6.881293949089013, 7.031093102996238, 7.431160025065765, 7.604930995032191, 7.7874864970799536, 8.147779609076679, 8.331718401052058, 8.59815515903756, 8.815232276101597, 9.215272561996244, 9.396453764056787, 9.621344491024502, 9.839605082059279, 10.031141904066317, 10.331290661008097]",space,0.5250109119806439,,,,,,,AA,001,2019_Jul_19_1554,rev-kura_tap_2blocks,3.0.6,60.036084967130684,
./stimuli_1/tmp/medium_105_1.wav,105,medium,0.9226282058670175,,,,,0,31,31,18,,,,,,,,,,,,,"['space', 'space', 'space', 'space', 'space', 'space', 'space', 'space', 'space', 'space', 'space', 'space', 'space', 'space', 'space', 'space', 'space', 'space', 'space', 'space', 'space', 'space', 'space', 'space', 'space', 'space', 'space', 'space', 'space', 'space', 'space', 'space', 'space', 'space', 'space', 'space', 'space', 'space', 'space', 'space', 'space', 'space', 'space', 'space', 'space', 'space', 'space', 'space', 'space', 'space', 'space', 'space', 'space']","[0.235818404937163, 0.40269191993866116, 0.5859274179674685, 0.7597170619992539, 0.9267255149316043, 1.0919216789770871, 1.2744117429247126, 1.4565964349312708, 1.6360641570063308, 1.8195562569890171, 2.0030130710219964, 2.219236876931973, 2.4197217039763927, 2.6024551920127124, 2.795237101963721, 2.957452993025072, 3.1697410070337355, 3.3526460570283234, 3.569862477015704, 3.7526315349387005, 3.9524815400363877, 4.121858492027968, 4.310605378006585, 4.50684252998326, 4.686643177992664, 4.887564809992909, 5.0847341059707105, 5.284760928014293, 5.467734524980187, 5.658846614998765, 5.869954854017124, 6.05272788903676, 6.269153660978191, 6.470026678987779, 6.661377826938406, 6.852430845028721, 7.0695277189370245, 7.236259044962935, 7.454032965004444, 7.65520762396045, 7.8404812320368364, 8.053247611038387, 8.236842832993716, 8.453708351007663, 8.658299883943982, 8.886969684972428, 9.070369618013501, 9.287142822984606, 9.503145806957036, 9.692848501028493, 9.875617190962657, 10.086553607019596, 10.303690255037509]",space,0.42348812404088676,,,,,,,AA,001,2019_Jul_19_1554,rev-kura_tap_2blocks,3.0.6,60.036084967130684,
./stimuli_1/tmp/vweak_105_2.wav,105,veryweak,1.9135802020256505,,,,,0,32,32,8,,,,,,,,,,,,,"['space', 'space', 'space', 'space', 'space', 'space', 'space', 'space', 'space', 'space', 'space', 'space', 'space', 'space', 'space', 'space', 'space', 'space', 'space', 'space', 'space', 'space', 'space', 'space', 'space', 'space', 'space', 'space', 'space', 'space', 'space', 'space', 'space', 'space', 'space', 'space', 'space', 'space', 'space', 'space', 'space', 'space', 'space', 'space', 'space', 'space', 'space', 'space', 'space', 'space', 'space', 'space', 'space', 'space', 'space', 'space', 'space', 'space', 'space']","[0.00040289596654474735, 0.306101355003193, 0.4940001849317923, 0.685555664007552, 0.8518809339730069, 1.0355504510225728, 1.2024415499763563, 1.3595234110252932, 1.683512913994491, 1.835564931971021, 2.052646692027338, 2.1860375159885734, 2.3527985899709165, 2.50240824802313, 2.652790096006356, 2.802985380985774, 2.952722394024022, 3.1014639229979366, 3.2529361569322646, 3.3934357109246776, 3.524401120026596, 3.6779308579862118, 3.8405044759856537, 3.959269223967567, 4.124649181962013, 4.269778111949563, 4.419719174969941, 4.569296655943617, 4.7366229959297925, 4.885761060984805, 5.0192954710219055, 5.219475922989659, 5.376274592010304, 5.524820265942253, 5.6783819400006905, 5.840665409923531, 5.9611351049970835, 6.1384076699614525, 6.275121705024503, 6.652818022994325, 6.820269796997309, 7.102902741986327, 7.268171602976508, 7.45414762001019, 7.603449880960397, 7.7367941869888455, 7.927158131962642, 8.09057900996413, 8.270913113025017, 8.47023233899381, 8.65359716792591, 8.819410142954439, 9.01978200301528, 9.186946238973178, 9.54394514998421, 9.703632339951582, 9.870866356999613, 10.03607748192735, 10.186703437939286]",space,0.47358430607710034,,,,,,,AA,001,2019_Jul_19_1554,rev-kura_tap_2blocks,3.0.6,60.036084967130684,
./stimuli_1/tmp/medium_100_1.wav,100,medium,0.926810566962736,,,,,0,33,33,42,,,,,,,,,,,,,"['space', 'space', 'space', 'space', 'space', 'space', 'space', 'space', 'space', 'space', 'space', 'space', 'space', 'space', 'space', 'space', 'space', 'space', 'space', 'space', 'space', 'space', 'space', 'space', 'space', 'space', 'space', 'space', 'space', 'space', 'space', 'space', 'space', 'space', 'space', 'space', 'space', 'space', 'space', 'space', 'space', 'space', 'space', 'space', 'space', 'space', 'space', 'space', 'space', 'space']","[0.47399137495085597, 0.8527920289197937, 1.020414626924321, 1.203706607921049, 1.3862313739955425, 1.7528792480006814, 1.9369677089853212, 2.1102514800149947, 2.26951980299782, 2.453702204977162, 2.620047344942577, 2.803525491966866, 2.972324052010663, 3.160186192020774, 3.3534329909598455, 3.5368728110333905, 3.720642871921882, 3.903728344012052, 4.094784686923958, 4.274213509983383, 4.469559132005088, 4.637105113943107, 4.836830446030945, 5.070730424020439, 5.253555572940968, 5.453664614004083, 5.643574033980258, 5.842034991947003, 6.070171150029637, 6.204203782952391, 6.402051229029894, 6.586538995965384, 6.803995267953724, 6.969857539981604, 7.159924882929772, 7.3711378199514, 7.553894608980045, 7.754144417005591, 7.95339918800164, 8.157600520993583, 8.337682542973198, 8.521483388030902, 8.737687863991596, 8.937824090011418, 9.13648869493045, 9.354196192929521, 9.56034532294143, 9.770710655953735, 9.987773780012503, 10.17063391697593]",space,0.3858229969628155,,,,,,,AA,001,2019_Jul_19_1554,rev-kura_tap_2blocks,3.0.6,60.036084967130684,
./stimuli_1/tmp/medium_90_1.wav,90,medium,2.416526186084374,,,,,0,34,34,44,,,,,,,,,,,,,"['space', 'space', 'space', 'space', 'space', 'space', 'space', 'space', 'space', 'space', 'space', 'space', 'space', 'space', 'space', 'space', 'space', 'space', 'space', 'space', 'space', 'space', 'space', 'space', 'space', 'space', 'space', 'space', 'space', 'space', 'space', 'space', 'space', 'space', 'space', 'space', 'space', 'space', 'space', 'space', 'space', 'space', 'space']","[0.00034863397013396025, 0.29356808704324067, 0.49265679297968745, 0.6527933409670368, 1.1863738449756056, 1.3528823220403865, 1.86060144205112, 2.019812732003629, 2.170000600046478, 2.6525555530097336, 2.810156296007335, 2.974634459009394, 3.370144460001029, 3.5199479250004515, 3.65366091101896, 4.0539255710318685, 4.187557521974668, 4.358628883957863, 4.770234182942659, 4.9191111320396885, 5.070252311998047, 5.503987074946053, 5.653862252947874, 6.120730843977071, 6.2582799709634855, 6.486982050002553, 7.037139980937354, 7.2197226990247145, 7.637481785961427, 7.787517705000937, 7.970194221008569, 8.320950043038465, 8.48773713700939, 8.637122081941925, 8.970823560957797, 9.137924236943945, 9.287215186050162, 9.671341859037057, 9.827101657050662, 9.992863922961988, 10.371364300954156, 10.553877654019743]",space,0.6525678329635412,,,,,,,AA,001,2019_Jul_19_1554,rev-kura_tap_2blocks,3.0.6,60.036084967130684,
./stimuli_1/tmp/vweak_90_2.wav,90,veryweak,0.8509564039511939,,,,,0,35,35,35,,,,,,,,,,,,,"['space', 'space', 'space', 'space', 'space', 'space', 'space', 'space', 'space', 'space', 'space', 'space', 'space', 'space', 'space', 'space', 'space', 'space', 'space', 'space', 'space', 'space', 'space', 'space', 'space', 'space', 'space', 'space', 'space', 'space', 'space', 'space', 'space', 'space', 'space', 'space', 'space', 'space', 'space', 'space', 'space', 'space', 'space', 'space', 'space', 'space', 'space', 'space', 'space', 'space', 'space', 'space', 'space']","[0.40242808300536126, 0.5697816670872271, 0.7194192940369248, 0.8598830110859126, 1.0411655460484326, 1.202558594988659, 1.553210791083984, 1.7031046450138092, 1.8352585469838232, 2.019657635013573, 2.186410146066919, 2.325803646002896, 2.6367001270409673, 2.8032467489829287, 2.9840065030148253, 3.1524581600679085, 3.336319476016797, 3.520135006052442, 3.736326427082531, 3.9239604140166193, 4.136247235001065, 4.320859141997062, 4.520071424078196, 4.6864361530169845, 4.874196716002189, 5.045215135090984, 5.219866143073887, 5.420189736993052, 5.5865057409973815, 5.770176409045234, 5.936581306043081, 6.137016786029562, 6.307847060030326, 6.508211820037104, 6.720368913025595, 6.903996994020417, 7.087493282044306, 7.237214682041667, 7.420715969987214, 7.6040903580142185, 7.809809665079229, 8.007431796053424, 8.203690271009691, 8.385458399076015, 8.5702190810116, 8.770430839038454, 8.97633458499331, 9.169866142095998, 9.384256618097425, 9.570910530048423, 9.736444817041047, 9.951616105041467, 10.136693545035087]",space,0.09521607297938317,,,,,,,AA,001,2019_Jul_19_1554,rev-kura_tap_2blocks,3.0.6,60.036084967130684,
./stimuli_1/tmp/medium_95_2.wav,95,medium,1.3116855926159032,,,,,0,36,36,12,,,,,,,,,,,,,"['space', 'space', 'space', 'space', 'space', 'space', 'space', 'space', 'space', 'space', 'space', 'space', 'space', 'space', 'space', 'space', 'space', 'space', 'space', 'space', 'space', 'space', 'space', 'space', 'space', 'space', 'space', 'space', 'space', 'space', 'space', 'space', 'space', 'space', 'space', 'space', 'space', 'space', 'space', 'space', 'space', 'space', 'space', 'space', 'space', 'space', 'space', 'space', 'space', 'space', 'space', 'space', 'space', 'space', 'space']","[0.00040198001079261303, 0.28638575796503574, 0.41934999905060977, 0.5692631830461323, 0.7356271400349215, 0.9232898979680613, 1.077069940045476, 1.2689561300212517, 1.4357971500139683, 1.6026284859981388, 1.785810063011013, 1.9681135839782655, 2.1695745430188254, 2.352749234996736, 2.544069524970837, 2.735779425012879, 2.9190862179966643, 3.103043043985963, 3.2852928040083498, 3.492680600960739, 3.676248715026304, 3.869273882941343, 4.0696867109509185, 4.286342337029055, 4.50339992204681, 4.7016697969520465, 4.919143815990537, 5.11716454999987, 5.303639834979549, 5.491854002000764, 5.669483982026577, 5.85338236996904, 6.036319143022411, 6.220239578047767, 6.419494597008452, 6.5910095310537145, 6.824759253999218, 7.01116124400869, 7.169994262978435, 7.369246387970634, 7.570755466003902, 7.753900103038177, 7.93730954604689, 8.159910553949885, 8.353753449046053, 8.552336313994601, 8.770089813973755, 8.970290243043564, 9.170587106025778, 9.353753283037804, 9.52765524503775, 9.707935496000573, 9.919359071995132, 10.120079398038797, 10.320395229035057]",space,0.4188489490188658,,,,,,,AA,001,2019_Jul_19_1554,rev-kura_tap_2blocks,3.0.6,60.036084967130684,
./stimuli_1/tmp/strong_100_2.wav,100,strong,2.0490202021749724,,,,,0,37,37,37,,,,,,,,,,,,,"['space', 'space', 'space', 'space', 'space', 'space', 'space', 'space', 'space', 'space', 'space', 'space', 'space', 'space', 'space', 'space', 'space', 'space', 'space']","[0.2982510710135102, 0.6979323560371995, 1.235355095937848, 1.7472978689474985, 2.3477302660467103, 2.981303466949612, 3.6697972409892827, 4.281412453041412, 4.898813884006813, 5.465320121962577, 6.053414884023368, 6.217709638993256, 6.866477806936018, 7.265466970042326, 7.832714305026457, 8.431402651942335, 9.099040576023981, 9.665274964994751, 10.241834309999831]",space,0.035519849974662066,,,,,,,AA,001,2019_Jul_19_1554,rev-kura_tap_2blocks,3.0.6,60.036084967130684,
./stimuli_1/tmp/medium_90_2.wav,90,medium,1.742963149522364,,,,,0,38,38,41,,,,,,,,,,,,,"['space', 'space', 'space', 'space', 'space', 'space', 'space', 'space', 'space', 'space', 'space', 'space', 'space', 'space', 'space', 'space', 'space', 'space', 'space', 'space', 'space', 'space', 'space', 'space', 'space', 'space', 'space', 'space', 'space', 'space', 'space', 'space', 'space', 'space', 'space', 'space', 'space', 'space', 'space', 'space', 'space', 'space', 'space', 'space', 'space', 'space', 'space', 'space', 'space', 'space', 'space', 'space', 'space', 'space', 'space', 'space', 'space', 'space', 'space', 'space']","[0.00035388499964028597, 0.4698072449536994, 0.7908829089719802, 0.9727035019313917, 1.120037350920029, 1.2702472789678723, 1.4037016099318862, 1.5534840680193156, 1.703599571948871, 1.8192822230048478, 1.9695268699433655, 2.1032953179674223, 2.2540054909186438, 2.4033861010102555, 2.5535996889229864, 2.7201873819576576, 2.8421515160007402, 3.0240019540069625, 3.1704629689920694, 3.3364505319623277, 3.5201292579295114, 3.6870746449567378, 3.8707156259333715, 4.070784609997645, 4.220349051989615, 4.408194417948835, 4.545427820994519, 4.720415604999289, 4.887257355963811, 5.0378905549878255, 5.220823601004668, 5.386203503003344, 5.5523459719261155, 5.702654163935222, 5.870320732006803, 6.0206315770046785, 6.16986238094978, 6.342032211017795, 6.637719850987196, 6.804783569998108, 6.937554126023315, 7.104092449997552, 7.254213521955535, 7.438214236986823, 7.621286683017388, 7.7706228599417955, 7.95880004693754, 8.12258629896678, 8.287025431985967, 8.454247266985476, 8.621588520007208, 8.82090532593429, 8.987837766995654, 9.154823138960637, 9.34177329193335, 9.525547294993885, 9.679073064937256, 9.85494569002185, 10.0712970639579, 10.238167954026721]",space,1.0022504939697683,,,,,,,AA,001,2019_Jul_19_1554,rev-kura_tap_2blocks,3.0.6,60.036084967130684,
./stimuli_1/tmp/vweak_90_1.wav,90,veryweak,1.7691278416270242,,,,,0,39,39,30,,,,,,,,,,,,,"['space', 'space', 'space', 'space', 'space', 'space', 'space', 'space', 'space', 'space', 'space', 'space', 'space', 'space', 'space', 'space', 'space', 'space', 'space', 'space', 'space', 'space', 'space', 'space', 'space', 'space', 'space', 'space', 'space', 'space', 'space', 'space', 'space', 'space', 'space', 'space', 'space', 'space', 'space', 'space', 'space', 'space', 'space', 'space', 'space', 'space', 'space', 'space', 'space', 'space', 'space', 'space']","[0.21866476105060428, 0.8065887190168723, 1.1019328349502757, 1.2688911110162735, 1.4691121940268204, 1.619797155028209, 1.8019589360337704, 1.9522517470177263, 2.119137112982571, 2.2862309890333563, 2.4527924590511248, 2.607619222952053, 2.802101143053733, 2.969317778944969, 3.1017874230165035, 3.2859440109459683, 3.4362508970079944, 3.606582010979764, 3.7902861119946465, 3.944109924021177, 4.141331420047209, 4.31895445601549, 4.502783288946375, 4.703178795054555, 4.9012819030322134, 5.069023953052238, 5.2425922360271215, 5.410163701977581, 5.590133665013127, 5.8033415720565245, 6.003019270952791, 6.169855238054879, 6.353125517023727, 6.536316683981568, 6.675717446953058, 6.919002807000652, 7.1032615000149235, 7.353317550965585, 7.536290984950028, 7.702963485964574, 7.8864683960564435, 8.070335609954782, 8.256982919992879, 8.386557059944607, 8.602910466957837, 8.80345585604664, 8.986453899997286, 9.336902420036495, 9.520089437952265, 9.68681885395199, 9.970176242059097, 10.228990308009088]",space,0.6525509780040011,,,,,,,AA,001,2019_Jul_19_1554,rev-kura_tap_2blocks,3.0.6,60.036084967130684,
./stimuli_1/tmp/weak_100_1.wav,100,weak,2.0659849579502567,,,,,0,40,40,13,,,,,,,,,,,,,"['space', 'space', 'space', 'space', 'space', 'space', 'space', 'space', 'space', 'space', 'space', 'space', 'space', 'space', 'space', 'space', 'space', 'space', 'space', 'space', 'space', 'space', 'space', 'space', 'space', 'space', 'space', 'space', 'space', 'space', 'space', 'space', 'space', 'space', 'space', 'space', 'space', 'space', 'space', 'space', 'space', 'space', 'space', 'space', 'space', 'space', 'space', 'space', 'space', 'space']","[0.00036305596586316824, 0.33646565000526607, 0.6700817480450496, 0.8363690279657021, 0.9847167880507186, 1.1368129759794101, 1.28642768796999, 1.4434778989525512, 1.6069967100629583, 1.7438098889542744, 2.0528125850250944, 2.1532601399812847, 2.4033372229896486, 2.586568232974969, 2.770055119995959, 3.108838169951923, 3.286424183053896, 3.4867114450316876, 3.65297710406594, 3.854212715057656, 4.253835865994915, 4.440644874004647, 4.610533484024927, 4.836755514959805, 5.0707318159984425, 5.2201427010586485, 5.457741572055966, 5.641935721039772, 5.8208203869871795, 6.037262678029947, 6.403396507026628, 6.5708528340328485, 7.057957572047599, 7.194681699969806, 7.374720284016803, 7.704547384986654, 7.870576262008399, 8.087717161048204, 8.286602661013603, 8.437512837001123, 8.579333176952787, 8.887024909025058, 9.054262747056782, 9.18812332500238, 9.354271244024858, 9.520038719987497, 9.754740398027934, 9.920360167976469, 10.157189977006055, 10.363002039957792]",space,0.36837226897478104,,,,,,,AA,001,2019_Jul_19_1554,rev-kura_tap_2blocks,3.0.6,60.036084967130684,
./stimuli_1/tmp/weak_110_2.wav,110,weak,0.9176953267634752,,,,,0,41,41,0,,,,,,,,,,,,,"['space', 'space', 'space', 'space', 'space', 'space', 'space', 'space', 'space', 'space', 'space', 'space', 'space', 'space', 'space', 'space', 'space', 'space', 'space', 'space', 'space', 'space', 'space', 'space', 'space', 'space', 'space', 'space', 'space', 'space', 'space', 'space', 'space', 'space', 'space', 'space', 'space', 'space', 'space', 'space', 'space', 'space', 'space', 'space', 'space', 'space', 'space', 'space', 'space', 'space', 'space', 'space', 'space']","[0.3351356090279296, 0.4682836530264467, 0.707341709989123, 0.8610799449961632, 1.0193314020289108, 1.1683651700150222, 1.3187848809175193, 1.4360149159329012, 1.5857920949347317, 1.7356990419793874, 1.8864537390181795, 2.0529416939243674, 2.2232894130283967, 2.389657552004792, 2.552023760974407, 2.7354762150207534, 2.9196974389487877, 3.0859863290097564, 3.2745353559730574, 3.4522048729704693, 3.6524093609768897, 3.886343964957632, 4.119388559949584, 4.30298015801236, 4.5026699509471655, 4.703085956978612, 4.969625977915712, 5.185967993922532, 5.374683534959331, 5.535657642991282, 5.769873691024259, 5.95350810198579, 6.153851432027295, 6.340068998979405, 6.526154691935517, 6.735923002939671, 6.919888339005411, 7.103378986939788, 7.28633396292571, 7.45242003002204, 7.636972953914665, 7.811271304963157, 8.037668540026061, 8.27009557094425, 8.453514670953155, 8.65321783698164, 8.85309116402641, 9.103696479927748, 9.310039611998945, 9.509059865958989, 9.703648530994542, 9.886878620949574, 10.10350596299395]",space,0.3505363699514419,,,,,,,AA,001,2019_Jul_19_1554,rev-kura_tap_2blocks,3.0.6,60.036084967130684,
./stimuli_1/tmp/vweak_100_2.wav,100,veryweak,2.2534554045929385,,,,,0,42,42,4,,,,,,,,,,,,,"['space', 'space', 'space', 'space', 'space', 'space', 'space', 'space', 'space', 'space', 'space', 'space', 'space', 'space', 'space', 'space', 'space', 'space', 'space', 'space', 'space', 'space', 'space', 'space', 'space', 'space', 'space', 'space', 'space', 'space', 'space', 'space', 'space', 'space', 'space', 'space', 'space', 'space', 'space', 'space', 'space', 'space', 'space', 'space', 'space', 'space', 'space', 'space', 'space']","[0.27317241893615574, 0.7356664310209453, 1.0854288219707087, 1.300582938012667, 1.452482318971306, 1.8089601179817691, 1.991389189963229, 2.174011667026207, 2.41896908194758, 2.586154908989556, 2.73734032001812, 3.0688381700310856, 3.257279622950591, 3.4067534509813413, 3.591243567992933, 3.840939887915738, 4.037211672984995, 4.220281520974822, 4.403250586939976, 4.5864741440163925, 4.7197803219314665, 4.953605906921439, 5.136728678946383, 5.342485461966135, 5.569924638024531, 5.786389566026628, 5.953666873974726, 6.119823967921548, 6.27981739398092, 6.503060414921492, 6.739331191987731, 6.928891878924333, 7.0914541259408, 7.320498820976354, 7.536404463928193, 7.703568137949333, 7.885029388940893, 8.226712210918777, 8.377320610918105, 8.574608359951526, 8.76023912196979, 8.90308785601519, 9.05353443394415, 9.287816607975401, 9.485134590999223, 9.653471203986555, 9.878002738929354, 10.089650181937031, 10.287372789927758]",space,0.5277590049663559,,,,,,,AA,001,2019_Jul_19_1554,rev-kura_tap_2blocks,3.0.6,60.036084967130684,
./stimuli_1/tmp/strong_90_2.wav,90,strong,1.3755779024415546,,,,,0,43,43,32,,,,,,,,,,,,,"['space', 'space', 'space', 'space', 'space', 'space', 'space', 'space', 'space', 'space', 'space', 'space', 'space', 'space', 'space', 'space', 'space']","[0.4691058589378372, 0.9231787129538134, 1.4194212229922414, 2.0522205949528143, 2.636418459005654, 3.3363129110075533, 4.0359696329105645, 4.669714052928612, 5.336201617959887, 6.069877531961538, 6.653689838014543, 7.2203241779934615, 7.836969724972732, 8.437469452968799, 9.118464095983654, 9.687004674924538, 10.07038896495942]",space,0.4993774170288816,,,,,,,AA,001,2019_Jul_19_1554,rev-kura_tap_2blocks,3.0.6,60.036084967130684,
./stimuli_1/tmp/perfect_105_0.wav,105,perfect,2.3416470825005193,,,,,0,44,44,10,,,,,,,,,,,,,"['space', 'space', 'space', 'space', 'space', 'space', 'space', 'space', 'space', 'space', 'space', 'space', 'space', 'space', 'space', 'space', 'space']","[0.5915330999996513, 0.9852702900534496, 1.4020726210437715, 1.9353837840026245, 2.4330933520104736, 2.9526800960302353, 3.5023978969547898, 4.002464198041707, 4.485137809999287, 4.9356223649811, 5.418384977034293, 5.952901458018459, 6.503196279052645, 7.05701189301908, 7.636375883012079, 8.228529924992472, 8.786730075022206]",space,0.2862924080109224,,,,,,,AA,001,2019_Jul_19_1554,rev-kura_tap_2blocks,3.0.6,60.036084967130684,
,,,,,,,,,,,,,,,,,,,,,,,,,,,,space,4.85794632404577,,,,,AA,001,2019_Jul_19_1554,rev-kura_tap_2blocks,3.0.6,60.036084967130684,
./stimuli_2/tmp/vweak_90_4.wav,90,veryweak,1.764172367596454,,,,,,,,,0,0,0,42,,,,,,,,,,,,,,,"['space', 'space', 'space', 'space', 'space', 'space', 'space', 'space', 'space', 'space', 'space', 'space', 'space', 'space', 'space', 'space', 'space', 'space', 'space', 'space', 'space', 'space', 'space', 'space', 'space', 'space', 'space', 'space', 'space', 'space', 'space', 'space', 'space', 'space', 'space', 'space', 'space', 'space', 'space', 'space', 'space', 'space', 'space', 'space', 'space', 'space', 'space', 'space', 'space', 'space', 'space', 'space', 'space', 'space', 'space', 'space']","[0.31923157698474824, 0.46932555397506803, 0.6357775039505213, 0.8020664909854531, 0.9356977819697931, 1.0690581399248913, 1.2265399639727548, 1.3784717419184744, 1.541283214930445, 1.6864153469214216, 1.8362952849129215, 1.9871918589342386, 2.152950752992183, 2.303531044977717, 2.4692602819995955, 2.6189569409471005, 2.7873425380093977, 2.95367690094281, 3.136865612003021, 3.3257237459765747, 3.485703094978817, 3.8343367339111865, 4.002336342004128, 4.342138338950463, 4.525212128995918, 4.686435836949386, 4.835879078018479, 5.002831819932908, 5.169535388005897, 5.338010729989037, 5.537322403979488, 5.709488665917888, 5.894818230997771, 6.059881530934945, 6.260325131937861, 6.4203713139286265, 6.6374303789343685, 6.837366200983524, 7.020134230959229, 7.207700805971399, 7.3949069660156965, 7.570447733975016, 7.754205651930533, 8.001229726942256, 8.204198673949577, 8.353544442914426, 8.504218068905175, 8.687610690947622, 8.86059653700795, 9.06095947790891, 9.254321448970586, 9.520403870963491, 9.704613584908657, 9.87064688501414, 10.037017381982878, 10.206613170914352]",space,1.6527385740773752,AA,001,2019_Jul_19_1554,rev-kura_tap_2blocks,3.0.6,60.036084967130684,
./stimuli_2/tmp/medium_110_3.wav,110,medium,1.8094994333011696,,,,,,,,,0,1,1,10,,,,,,,,,,,,,,,"['space', 'space', 'space', 'space', 'space', 'space', 'space', 'space', 'space', 'space', 'space', 'space', 'space', 'space', 'space', 'space', 'space', 'space', 'space', 'space', 'space', 'space', 'space', 'space', 'space', 'space', 'space', 'space', 'space', 'space', 'space', 'space', 'space', 'space', 'space', 'space', 'space', 'space', 'space', 'space', 'space', 'space', 'space', 'space', 'space', 'space', 'space', 'space', 'space']","[0.36158152506686747, 0.7123108940431848, 0.8786799299996346, 1.046147697023116, 1.2125194530235603, 1.3885719369864091, 1.5457869929959998, 1.7122730039991438, 1.9124316200613976, 2.078884311951697, 2.404556296998635, 2.6298540179850534, 2.7795881860656664, 2.961786292027682, 3.1963911909842864, 3.3887721709907055, 3.5795103809796274, 3.763439608970657, 3.946332274004817, 4.062245756038465, 4.2961493210168555, 4.5295805260539055, 4.729749038000591, 4.946499838959426, 5.130128983990289, 5.353081924025901, 5.536535884952173, 5.736199966981076, 5.930530900019221, 6.1634281820151955, 6.380237663979642, 6.59672314603813, 6.780666296952404, 7.050883598043583, 7.286578621016815, 7.463645496056415, 7.696097139036283, 7.896815567044541, 8.097163642989472, 8.297761028981768, 8.501180671039037, 8.719051091000438, 8.903134254040197, 9.102168156998232, 9.280214369064197, 9.546860447037034, 9.747649554046802, 9.94679472304415, 10.147602200042456]",space,0.05771147599443793,AA,001,2019_Jul_19_1554,rev-kura_tap_2blocks,3.0.6,60.036084967130684,
./stimuli_2/tmp/vweak_110_3.wav,110,veryweak,2.394266820220962,,,,,,,,,0,2,2,22,,,,,,,,,,,,,,,"['space', 'space', 'space', 'space', 'space', 'space', 'space', 'space', 'space', 'space', 'space', 'space', 'space', 'space', 'space', 'space', 'space', 'space', 'space', 'space', 'space', 'space', 'space', 'space', 'space', 'space', 'space', 'space', 'space', 'space', 'space', 'space', 'space', 'space', 'space', 'space', 'space', 'space', 'space', 'space', 'space', 'space', 'space', 'space', 'space', 'space', 'space', 'space', 'space', 'space', 'space', 'space', 'space', 'space']","[0.2199258590117097, 0.3929770049871877, 0.558043263037689, 0.8397618000162765, 0.9761083039920777, 1.161354435957037, 1.4525151540292427, 1.6353856089990586, 1.8011032119393349, 1.966981693985872, 2.1359731759876013, 2.3025938170030713, 2.459024613024667, 2.642128070932813, 2.8193744820309803, 2.970029518008232, 3.16952403599862, 3.3361466550268233, 3.503479336039163, 3.7024038209347054, 3.8696887330152094, 4.052742118947208, 4.236210767994635, 4.407652567955665, 4.593439638032578, 4.753269467968494, 4.935762015986256, 5.1199900639476255, 5.302252733032219, 5.4358755690045655, 5.669875735999085, 5.82002972997725, 6.023623798042536, 6.194321332033724, 6.470008836011402, 6.669701457023621, 6.836558356997557, 7.019206395023502, 7.203085305984132, 7.369989490951411, 7.576230447040871, 7.8695685509592295, 8.0370984650217, 8.219229500973597, 8.40300545701757, 8.592155814985745, 8.810173391015269, 9.034548347000964, 9.203936152975075, 9.404311954043806, 9.60441903793253, 9.786802457994781, 10.02430819394067, 10.211715316982009]",space,0.6729379470925778,AA,001,2019_Jul_19_1554,rev-kura_tap_2blocks,3.0.6,60.036084967130684,
./stimuli_2/tmp/weak_110_3.wav,110,weak,2.3080053151743445,,,,,,,,,0,3,3,0,,,,,,,,,,,,,,,"['space', 'space', 'space', 'space', 'space', 'space', 'space', 'space', 'space', 'space', 'space', 'space', 'space', 'space', 'space', 'space', 'space', 'space', 'space', 'space', 'space', 'space', 'space', 'space', 'space', 'space', 'space', 'space', 'space', 'space', 'space', 'space', 'space', 'space', 'space', 'space', 'space', 'space', 'space', 'space', 'space', 'space', 'space', 'space', 'space', 'space', 'space', 'space', 'space', 'space', 'space', 'space', 'space', 'space', 'space']","[0.21896016295067966, 0.36868725600652397, 0.5240316359559074, 0.7023239269619808, 0.8692045148927718, 1.0188071369193494, 1.1690236160065979, 1.3027895219856873, 1.5087263609748334, 1.7026769008953124, 1.8854135730070993, 2.0362453549169004, 2.2526749949902296, 2.4524333449080586, 2.6029856809182093, 2.8027375139063224, 2.96908339089714, 3.118595553911291, 3.319331972976215, 3.526271929964423, 3.6912096278974786, 3.874324188916944, 4.06972465896979, 4.252474421984516, 4.418937118956819, 4.602155197993852, 4.8204010389745235, 5.020177872967906, 5.236053219996393, 5.453584917006083, 5.626934672007337, 5.802892176900059, 6.002351061906666, 6.186341396998614, 6.3869212589925155, 6.6049375489819795, 6.776692691957578, 6.988662663963623, 7.302623651921749, 7.50250139599666, 7.670615888899192, 7.885998984915204, 8.074098059907556, 8.274729964905418, 8.48696290596854, 8.68673980596941, 8.903567586909048, 9.069835764006712, 9.25377062393818, 9.41988306294661, 9.641281545977108, 9.825100259971805, 9.995508881984279, 10.153471911908127, 10.887567565892823]",space,3.6805088290711865,AA,001,2019_Jul_19_1554,rev-kura_tap_2blocks,3.0.6,60.036084967130684,
./stimuli_2/tmp/medium_105_3.wav,105,medium,2.3283116029076933,,,,,,,,,0,4,4,13,,,,,,,,,,,,,,,"['space', 'space', 'space', 'space', 'space', 'space', 'space', 'space', 'space', 'space', 'space', 'space', 'space', 'space', 'space', 'space', 'space', 'space', 'space', 'space', 'space', 'space', 'space', 'space', 'space', 'space', 'space', 'space', 'space', 'space', 'space', 'space', 'space', 'space', 'space', 'space', 'space', 'space', 'space', 'space', 'space', 'space', 'space', 'space', 'space', 'space', 'space', 'space', 'space', 'space', 'space', 'space', 'space', 'space', 'space', 'space']","[0.2365250049624592, 0.7532159800175577, 0.9195726530160755, 1.092149653006345, 1.256980738020502, 1.4033761249156669, 1.5701495599932969, 1.7199749799910933, 1.886010713991709, 2.036649147979915, 2.186791177955456, 2.3533686669543386, 2.54329050402157, 2.7238173029618338, 2.8860103270271793, 3.0701968839857727, 3.237076072022319, 3.3870824750047177, 3.552338558016345, 3.7368153940187767, 3.918073322973214, 4.091566317016259, 4.274891944951378, 4.4537123090121895, 4.637180991936475, 4.802677863975987, 4.987787378951907, 5.187225739005953, 5.354153841966763, 5.560530178016052, 5.725873269024305, 5.891207579988986, 6.085358013981022, 6.271058389917016, 6.454440415953286, 6.620555853005499, 6.804037587950006, 7.004364914027974, 7.191554497927427, 7.3712210690137, 7.53678745997604, 7.737649948918261, 7.920342413941398, 8.12060159991961, 8.304084567935206, 8.504523301962763, 8.693465996999294, 8.88656368595548, 9.070369553985074, 9.27116051397752, 9.453692313982174, 9.653829469927587, 9.871217538020574, 10.054077005945146, 10.241830455954187, 10.404320626985282]",space,0.4186435799347237,AA,001,2019_Jul_19_1554,rev-kura_tap_2blocks,3.0.6,60.036084967130684,
./stimuli_2/tmp/vweak_105_3.wav,105,veryweak,1.4827715321517985,,,,,,,,,0,5,5,6,,,,,,,,,,,,,,,"['space', 'space', 'space', 'space', 'space', 'space', 'space', 'space', 'space', 'space', 'space', 'space', 'space', 'space', 'space', 'space', 'space', 'space', 'space', 'space', 'space', 'space', 'space', 'space', 'space', 'space', 'space', 'space', 'space', 'space', 'space', 'space', 'space', 'space', 'space', 'space', 'space', 'space', 'space', 'space', 'space', 'space', 'space', 'space', 'space', 'space', 'space', 'space', 'space', 'space']","[0.0003441820153966546, 0.5189570219954476, 0.6754975450458005, 0.8405173789942637, 1.018476661061868, 1.184958907077089, 1.38552597805392, 1.5525074390461668, 1.742495696991682, 1.9413841729983687, 2.1856371629983187, 2.369521455024369, 2.552334177074954, 2.7693492650287226, 2.9344621690688655, 3.1692015470471233, 3.339970262022689, 3.5064644020749256, 3.6878433580277488, 3.885695585049689, 4.117780682980083, 4.319451161078177, 4.534341408056207, 4.724713718984276, 5.1358518049819395, 5.352368223015219, 5.53679927601479, 5.736989582073875, 5.969784782035276, 6.1696802590740845, 6.359577459981665, 6.552532452973537, 6.7362479160074145, 6.919310245080851, 7.119501708075404, 7.3249351140111685, 7.490849171997979, 7.700480935047381, 7.885711707058363, 8.137268483056687, 8.336385983042419, 8.536515500047244, 8.752981971018016, 8.936436139978468, 9.12011513998732, 9.311419203993864, 9.536841675988398, 9.737211363972165, 9.937401000992395, 10.137576506007463]",space,0.052123507019132376,AA,001,2019_Jul_19_1554,rev-kura_tap_2blocks,3.0.6,60.036084967130684,
./stimuli_2/tmp/vweak_100_3.wav,100,veryweak,1.9297906777000668,,,,,,,,,0,6,6,4,,,,,,,,,,,,,,,"['space', 'space', 'space', 'space', 'space', 'space', 'space', 'space', 'space', 'space', 'space', 'space', 'space', 'space', 'space', 'space', 'space', 'space', 'space', 'space', 'space', 'space', 'space', 'space', 'space', 'space', 'space', 'space', 'space', 'space', 'space', 'space', 'space', 'space', 'space', 'space', 'space', 'space', 'space', 'space', 'space', 'space', 'space', 'space', 'space', 'space', 'space', 'space', 'space', 'space', 'space', 'space']","[0.2527010280173272, 0.5867126199882478, 0.7551759119378403, 0.9093414189992473, 1.0744394810171798, 1.2364829329308122, 1.3361741449916735, 1.5374346729367971, 1.685651137959212, 1.8701124460203573, 2.035968440002762, 2.236311446991749, 2.4070410049753264, 2.5598009759560227, 2.786682748934254, 2.902788314037025, 3.1033300480339676, 3.2840627059340477, 3.453373397933319, 3.686687747016549, 3.995370239019394, 4.203327700030059, 4.386946795973927, 4.604318836936727, 4.787281102966517, 5.003824000945315, 5.203977897996083, 5.408020342933014, 5.604050085996278, 5.820380309945904, 6.003848107997328, 6.254835119005293, 6.4414273200090975, 6.641444936976768, 6.859416974009946, 7.0866934430086985, 7.271594256977551, 7.437675082939677, 7.652956996927969, 7.825753389974125, 8.011425866978243, 8.194226152030751, 8.393253913032822, 8.60419198393356, 8.786768993944861, 9.038075570948422, 9.22124290803913, 9.425221508019604, 9.621394936926663, 9.837383728008717, 10.037617346970364, 10.254949475987814]",space,0.47691102407407016,AA,001,2019_Jul_19_1554,rev-kura_tap_2blocks,3.0.6,60.036084967130684,
./stimuli_2/tmp/strong_100_3.wav,100,strong,2.3555859573779236,,,,,,,,,0,7,7,36,,,,,,,,,,,,,,,"['space', 'space', 'space', 'space', 'space', 'space', 'space', 'space', 'space', 'space', 'space', 'space', 'space', 'space', 'space', 'space', 'space', 'space', 'space', 'space', 'space', 'space', 'space', 'space', 'space', 'space', 'space', 'space', 'space', 'space', 'space', 'space', 'space', 'space', 'space', 'space', 'space', 'space', 'space', 'space', 'space', 'space', 'space', 'space']","[0.3144288460025564, 0.44820729992352426, 0.6308871869696304, 0.7978705499554053, 1.1830385649809614, 1.3479145329911262, 1.4978155420394614, 1.8312841040315107, 1.9847337369574234, 2.156322169932537, 2.498236392973922, 2.664914657943882, 3.0323755430290475, 3.197639190009795, 3.362028161995113, 3.7514940089313313, 3.931723117013462, 4.081679136026651, 4.432121302932501, 4.596121120033786, 4.748100667959079, 5.123255218961276, 5.2816955839516595, 5.430897820973769, 5.764138957019895, 5.931783574982546, 6.0890820369822904, 6.4320997500326484, 6.58168892597314, 6.748613961972296, 7.049158653942868, 7.21582727599889, 7.365643612924032, 7.648857921012677, 7.816173842991702, 7.982121282955632, 8.349062426015735, 8.466088432003744, 8.698858998948708, 9.051153984037228, 9.215451732976362, 9.606900646002032, 9.786872150027193, 9.941083502024412]",space,0.21955305291339755,AA,001,2019_Jul_19_1554,rev-kura_tap_2blocks,3.0.6,60.036084967130684,
./stimuli_2/tmp/weak_100_4.wav,100,weak,1.3298286179769183,,,,,,,,,0,8,8,29,,,,,,,,,,,,,,,"['space', 'space', 'space', 'space', 'space', 'space', 'space', 'space', 'space', 'space', 'space', 'space', 'space', 'space', 'space', 'space', 'space', 'space', 'space', 'space', 'space', 'space', 'space', 'space', 'space', 'space', 'space', 'space', 'space', 'space', 'space', 'space', 'space', 'space', 'space', 'space', 'space', 'space', 'space', 'space', 'space', 'space', 'space', 'space', 'space', 'space', 'space', 'space', 'space', 'space', 'space', 'space', 'space']","[0.2821357810171321, 0.44921277300454676, 0.6150917609920725, 0.7984590210253373, 0.9967918220208958, 1.1811973160365596, 1.382281525991857, 1.5903329249704257, 1.787853709072806, 1.9478997680125758, 2.180422811070457, 2.3654697299934924, 2.5479537199717015, 2.7820176109671593, 3.0208619739860296, 3.1900026000803337, 3.3989716270007193, 3.598961748997681, 3.782582013984211, 3.980112724006176, 4.148609600029886, 4.34947388805449, 4.533089140080847, 4.733151737018488, 4.916284797014669, 5.072154017048888, 5.25329809600953, 5.424924117978662, 5.598617244977504, 5.782480329042301, 5.964456730987877, 6.132897085044533, 6.316125652985647, 6.521329003968276, 6.717093468061648, 6.899395777028985, 7.099337217048742, 7.282881469000131, 7.449447644059546, 7.732144740060903, 7.932955145020969, 8.099665057030506, 8.266602737014182, 8.449755612993613, 8.675056035979651, 8.883941087988205, 9.066668382030912, 9.283416863065213, 9.649533129064366, 9.833458247012459, 10.016484574065544, 10.216591329080984, 10.966486116987653]",space,3.620134725002572,AA,001,2019_Jul_19_1554,rev-kura_tap_2blocks,3.0.6,60.036084967130684,
./stimuli_2/tmp/weak_95_4.wav,95,weak,1.1650481166698017,,,,,,,,,0,9,9,41,,,,,,,,,,,,,,,"['space', 'space', 'space', 'space', 'space', 'space', 'space', 'space', 'space', 'space', 'space', 'space', 'space', 'space', 'space', 'space', 'space', 'space', 'space', 'space', 'space', 'space', 'space', 'space', 'space', 'space', 'space', 'space', 'space', 'space', 'space', 'space', 'space', 'space', 'space', 'space', 'space', 'space', 'space', 'space', 'space', 'space', 'space', 'space', 'space', 'space', 'space']","[0.4852411160245538, 0.823204513057135, 0.9695326860528439, 1.1184264869662002, 1.284883021027781, 1.4517044139793143, 1.6023472730303183, 1.7196805260609835, 1.8848063240293413, 2.0526628319639713, 2.185748615069315, 2.3522727000527084, 2.5001244409941137, 2.6530105110723525, 2.807975599076599, 2.9435321009950712, 3.1351329720346257, 3.219798080972396, 3.4024701319867745, 3.5194719519931823, 3.6851755760144442, 3.840070054982789, 3.9941933889640495, 4.335686573991552, 4.502339491038583, 4.652837085071951, 4.836388995056041, 5.120806506020017, 5.307364125968888, 5.719332373002544, 5.886471027974039, 6.338282844983041, 6.475334572023712, 6.636301159043796, 7.036202377057634, 7.342414153972641, 7.511733366060071, 7.869732061051764, 8.019810279016383, 8.17026764107868, 8.55373188701924, 8.686896673054434, 8.842574957059696, 9.219760773004964, 9.369710895000026, 9.868036171072163, 10.22034055297263]",space,0.05076695897150785,AA,001,2019_Jul_19_1554,rev-kura_tap_2blocks,3.0.6,60.036084967130684,
./stimuli_2/tmp/strong_105_4.wav,105,strong,1.3674672884030183,,,,,,,,,0,10,10,20,,,,,,,,,,,,,,,"['space', 'space', 'space', 'space', 'space', 'space', 'space', 'space', 'space', 'space', 'space', 'space', 'space', 'space', 'space', 'space', 'space', 'space', 'space', 'space', 'space', 'space']","[0.4449567929841578, 0.6446753689087927, 0.967654836946167, 1.3448136219521984, 1.8452937989495695, 2.3450977499596775, 2.8788601380074397, 3.452511815004982, 4.0620247109327465, 4.512639609980397, 5.01260677492246, 5.3951606679474935, 5.828565586940385, 6.345814656931907, 6.895774649921805, 7.428664404898882, 8.028603290906176, 8.553518403903581, 9.063768264953978, 9.546473844908178, 9.929689659969881, 10.362414186936803]",space,0.26786999707110226,AA,001,2019_Jul_19_1554,rev-kura_tap_2blocks,3.0.6,60.036084967130684,
./stimuli_2/tmp/medium_95_4.wav,95,medium,1.1400027677854807,,,,,,,,,0,11,11,23,,,,,,,,,,,,,,,"['space', 'space', 'space', 'space', 'space', 'space', 'space', 'space', 'space', 'space', 'space', 'space', 'space', 'space', 'space', 'space', 'space', 'space', 'space', 'space', 'space', 'space', 'space', 'space', 'space', 'space', 'space', 'space', 'space', 'space', 'space', 'space', 'space', 'space', 'space', 'space', 'space', 'space', 'space', 'space', 'space', 'space', 'space', 'space', 'space', 'space', 'space', 'space', 'space', 'space', 'space', 'space']","[0.31837936502415687, 0.5508724820101634, 0.6848113349406049, 0.8524938499322161, 1.01898007793352, 1.188907184987329, 1.3728107339702547, 1.5439936990151182, 1.718676081043668, 1.8855363969923928, 2.0688571389764547, 2.252264922950417, 2.4355009120190516, 2.6099767959676683, 2.793375656940043, 2.9668582059675828, 3.133305395953357, 3.318624053034, 3.5027577249566093, 3.6854548959527165, 3.8684710590168834, 4.0360125210136175, 4.224446914042346, 4.385905770934187, 4.568896797019988, 4.769423358025961, 4.985989882028662, 5.1745797409676015, 5.372517948038876, 5.585238792933524, 5.768389233038761, 5.951045764959417, 6.18625372601673, 6.385945208952762, 6.5690488199470565, 6.769014211022295, 7.003066051984206, 7.224551043007523, 7.424440228031017, 7.61941762897186, 7.803028700989671, 7.969361176947132, 8.18644213792868, 8.353554195957258, 8.551662910031155, 8.73454822297208, 8.936309129931033, 9.124807037995197, 9.308530207024887, 9.536193117965013, 10.069505652994849, 10.253884537960403]",space,0.2184589470271021,AA,001,2019_Jul_19_1554,rev-kura_tap_2blocks,3.0.6,60.036084967130684,
./stimuli_2/tmp/weak_100_3.wav,100,weak,2.4637457263031752,,,,,,,,,0,12,12,18,,,,,,,,,,,,,,,"['space', 'space', 'space', 'space', 'space', 'space', 'space', 'space', 'space', 'space', 'space', 'space', 'space', 'space', 'space', 'space', 'space', 'space', 'space', 'space', 'space', 'space', 'space', 'space', 'space', 'space', 'space', 'space', 'space', 'space', 'space', 'space', 'space', 'space', 'space', 'space', 'space', 'space', 'space', 'space', 'space', 'space', 'space', 'space', 'space', 'space', 'space', 'space', 'space', 'space', 'space', 'space']","[0.0006388879846781492, 0.4786838670261204, 0.6284307899186388, 0.8096027959836647, 0.9673651829361916, 1.149704972980544, 1.2794025959447026, 1.4455461549805477, 1.6287144349189475, 1.8112145009217784, 1.9962660069577396, 2.1614068179624155, 2.3793356659589335, 2.568039589910768, 2.7624437420163304, 2.9628633320098743, 3.162099084001966, 3.32909114100039, 3.500301093910821, 3.70068361191079, 3.8792933359509334, 4.062942165997811, 4.278919743956067, 4.479478219989687, 4.679469843977131, 4.878749147988856, 5.066393253975548, 5.2466461239382625, 5.479805695009418, 5.662552320980467, 5.862411674926989, 6.09659778396599, 6.312970113940537, 6.496410137973726, 6.679584793979302, 6.8963271079119295, 7.100765089970082, 7.280545717920177, 7.513760307920165, 7.696690532960929, 7.913180029019713, 8.113327704952098, 8.346133937011473, 8.536268685013056, 8.718455457012169, 8.92972930893302, 9.163238230976276, 9.395111495978199, 9.613189051975496, 9.813759582000785, 10.013592540984973, 10.78019872191362]",space,0.9398544789291918,AA,001,2019_Jul_19_1554,rev-kura_tap_2blocks,3.0.6,60.036084967130684,
./stimuli_2/tmp/weak_95_3.wav,95,weak,1.4801687697498065,,,,,,,,,0,13,13,32,,,,,,,,,,,,,,,"['space', 'space', 'space', 'space', 'space', 'space', 'space', 'space', 'space', 'space', 'space', 'space', 'space', 'space', 'space', 'space', 'space', 'space', 'space', 'space', 'space', 'space', 'space', 'space', 'space', 'space', 'space', 'space', 'space', 'space', 'space', 'space', 'space', 'space', 'space', 'space', 'space', 'space', 'space', 'space', 'space', 'space', 'space', 'space', 'space', 'space', 'space', 'space']","[0.2028609060216695, 0.3527321720030159, 0.6356392320012674, 1.136020798003301, 1.7698164940811694, 2.1534209330566227, 2.5199060110608116, 2.678498913999647, 2.853150628041476, 3.0035783330677077, 3.186976019060239, 3.352056003990583, 3.520292103057727, 3.6916035700123757, 3.8866904960013926, 4.052891978062689, 4.253892831038684, 4.436155440052971, 4.619681755080819, 4.8199170720763505, 5.020387812983245, 5.209504339029081, 5.410794620984234, 5.644660357036628, 5.819628752069548, 6.084594881045632, 6.269751938059926, 6.469629088998772, 6.662477137055248, 6.845684624044225, 7.025207887054421, 7.203637400059961, 7.386459270026535, 7.571068625082262, 7.820434472989291, 8.02132081007585, 8.21064796904102, 8.426517604035325, 8.6034139940748, 8.787646207027137, 8.954662744072266, 9.187709375051782, 9.303757669054903, 9.554501712089404, 9.727150771068409, 9.925935059087351, 10.1256174830487, 10.344042603042908]",space,0.2658181779552251,AA,001,2019_Jul_19_1554,rev-kura_tap_2blocks,3.0.6,60.036084967130684,
./stimuli_2/tmp/perfect_110_0.wav,110,perfect,1.6130689758053212,,,,,,,,,0,14,14,12,,,,,,,,,,,,,,,"['space', 'space', 'space', 'space', 'space', 'space', 'space', 'space', 'space', 'space', 'space', 'space', 'space', 'space', 'space', 'space', 'space', 'space']","[0.6360211690189317, 1.02743563009426, 1.3997193340910599, 1.9028753180755302, 2.4071465589804575, 2.8860351000912488, 3.401660455041565, 3.903424099087715, 4.4086651630932465, 4.951120825018734, 5.42405285697896, 5.750805327086709, 6.203391571994871, 6.736613397020847, 7.271072453004308, 7.786398153053597, 8.39494248200208, 9.52005564305]",space,0.7188388560898602,AA,001,2019_Jul_19_1554,rev-kura_tap_2blocks,3.0.6,60.036084967130684,
./stimuli_2/tmp/strong_95_4.wav,95,strong,1.166396217990307,,,,,,,,,0,15,15,16,,,,,,,,,,,,,,,"['space', 'space', 'space', 'space', 'space', 'space', 'space', 'space', 'space', 'space', 'space', 'space', 'space', 'space', 'space', 'space', 'space', 'space', 'space', 'space', 'space', 'space', 'space', 'space', 'space', 'space', 'space', 'space', 'space', 'space', 'space', 'space', 'space', 'space', 'space', 'space', 'space', 'space', 'space', 'space', 'space', 'space', 'space', 'space', 'space', 'space', 'space', 'space', 'space', 'space', 'space', 'space', 'space', 'space', 'space', 'space', 'space']","[0.6230688219657168, 0.7599079000065103, 0.9189671919448301, 1.0357003149110824, 1.3527307729236782, 1.4692107099108398, 1.6331122549017891, 1.8020698809996247, 2.09244628099259, 2.386529807932675, 2.736801605904475, 2.8694874480133876, 3.024343475000933, 3.1603889369871467, 3.4590801309095696, 3.6017836609389633, 3.752726132981479, 3.9035973079735413, 4.052914236905053, 4.21761692489963, 4.3693918120115995, 4.512295102933422, 4.675953176920302, 4.861370550934225, 5.035584365949035, 5.236700990935788, 5.370024956995621, 5.553607953945175, 5.703494788962416, 5.8539209039881825, 6.041058331960812, 6.223960926989093, 6.400814697961323, 6.5870371769415215, 6.786312078940682, 6.953887048992328, 7.137063827947713, 7.2870790410088375, 7.474772559013218, 7.641035340959206, 7.824435029993765, 7.987013619975187, 8.137587465927936, 8.32018875691574, 8.48726944392547, 8.670028442982584, 8.820846287999302, 8.994943614932708, 9.159766184980981, 9.325440743938088, 9.520060734008439, 9.704145142924972, 9.887794803944416, 10.069382687914185, 10.270067859906703, 10.437176394974813, 10.642723916913383]",space,0.492782138986513,AA,001,2019_Jul_19_1554,rev-kura_tap_2blocks,3.0.6,60.036084967130684,
./stimuli_2/tmp/strong_100_4.wav,100,strong,1.5450657113477548,,,,,,,,,0,16,16,43,,,,,,,,,,,,,,,"['space', 'space', 'space', 'space', 'space', 'space', 'space', 'space', 'space', 'space', 'space', 'space', 'space', 'space', 'space', 'space', 'space', 'space', 'space', 'space', 'space', 'space', 'space', 'space', 'space', 'space', 'space', 'space', 'space', 'space', 'space', 'space', 'space', 'space', 'space', 'space', 'space', 'space', 'space']","[0.23301681596785784, 0.6138721439056098, 1.0646810019388795, 1.213621545000933, 1.3809062539367005, 1.681153496960178, 1.8309239119989797, 1.96961324790027, 2.2972588789416477, 2.6147184619912878, 2.880536176962778, 3.047798643936403, 3.164186278008856, 3.5379841949325055, 3.702128554927185, 3.918755605001934, 4.081328967004083, 4.281756378943101, 4.4489791069645435, 4.864744254969992, 5.022349318955094, 5.337673450936563, 5.486070116981864, 5.604370050015859, 5.998735295957886, 6.29884212394245, 6.598328604944982, 6.74837885890156, 7.1551613309420645, 7.315209834952839, 7.465533418930136, 7.8484787149354815, 8.119277413003147, 8.499251975910738, 8.632031756918877, 9.11378924897872, 9.432876523933373, 9.915410410962068, 10.081548518966883]",space,1.3031032050494105,AA,001,2019_Jul_19_1554,rev-kura_tap_2blocks,3.0.6,60.036084967130684,
./stimuli_2/tmp/weak_90_3.wav,90,weak,2.2921716413362407,,,,,,,,,0,17,17,25,,,,,,,,,,,,,,,"['space', 'space', 'space', 'space', 'space', 'space', 'space', 'space', 'space', 'space', 'space', 'space', 'space', 'space', 'space', 'space', 'space', 'space', 'space', 'space', 'space', 'space', 'space', 'space', 'space', 'space', 'space', 'space', 'space', 'space', 'space', 'space', 'space', 'space', 'space', 'space', 'space', 'space', 'space', 'space', 'space', 'space', 'space', 'space', 'space', 'space', 'space']","[0.2859800170408562, 0.423858440015465, 0.7413460520328954, 0.8859530230984092, 1.0525802250485867, 1.2191519950283691, 1.3694301890209317, 1.5360347829991952, 1.6856497330591083, 1.8505005420884117, 1.9778428500285372, 2.16178587207105, 2.328287283075042, 2.6697379890829325, 2.835694272071123, 3.0358524890616536, 3.219935581088066, 3.385988348047249, 3.735932253068313, 3.919878292013891, 4.102883831015788, 4.286721263080835, 4.469285684055649, 4.885614102007821, 5.071761019062251, 5.403294485993683, 5.602671629050747, 5.769327374058776, 6.0067951190285385, 6.36986377206631, 6.570174111053348, 6.753657921100967, 6.953423251048662, 7.303603690001182, 7.508848721045069, 7.690828897058964, 7.925989374052733, 8.120498199015856, 8.336492958012968, 8.520317225018516, 8.819643362076022, 9.023989577079192, 9.191745249088854, 9.508338661049493, 9.954135667998344, 10.136790279997513, 10.320686964085326]",space,0.06890938698779792,AA,001,2019_Jul_19_1554,rev-kura_tap_2blocks,3.0.6,60.036084967130684,
./stimuli_2/tmp/strong_90_4.wav,90,strong,2.278571158972451,,,,,,,,,0,18,18,39,,,,,,,,,,,,,,,"['space', 'space', 'space', 'space', 'space', 'space', 'space', 'space', 'space', 'space', 'space', 'space', 'space', 'space', 'space', 'space']","[0.7690410159993917, 1.1183706880547106, 1.7697319469880313, 2.4519448870560154, 3.085158674046397, 3.8248283109860495, 4.469164108973928, 5.119374218978919, 5.853779647964984, 6.486398810055107, 7.103524509002455, 7.742719926987775, 8.38680356205441, 9.152822733973153, 9.61928333598189, 10.170736204017885]",space,0.48814035195391625,AA,001,2019_Jul_19_1554,rev-kura_tap_2blocks,3.0.6,60.036084967130684,
./stimuli_2/tmp/medium_90_4.wav,90,medium,1.583140857423226,,,,,,,,,0,19,19,34,,,,,,,,,,,,,,,"['space', 'space', 'space', 'space', 'space', 'space', 'space', 'space', 'space', 'space', 'space', 'space', 'space', 'space', 'space', 'space', 'space', 'space', 'space', 'space', 'space', 'space', 'space', 'space', 'space', 'space', 'space', 'space', 'space', 'space', 'space', 'space', 'space', 'space', 'space', 'space', 'space', 'space', 'space', 'space', 'space', 'space', 'space', 'space', 'space', 'space', 'space', 'space', 'space', 'space', 'space', 'space', 'space', 'space', 'space']","[0.2688862750073895, 0.6530045550316572, 0.8030141160124913, 0.9694096690509468, 1.141790388035588, 1.318967800005339, 1.4692121359985322, 1.652827779063955, 1.8173618300352246, 2.0023410400608554, 2.1856078889686614, 2.353351900004782, 2.5531323989853263, 2.7524279409553856, 2.9191714810440317, 3.1238570869900286, 3.3083724649623036, 3.485421314020641, 3.7030449949670583, 3.8863245940301567, 4.086422141990624, 4.269587700953707, 4.437340177013539, 4.640555483987555, 4.807669915957376, 4.9597066569840536, 5.1179401309927925, 5.286963514983654, 5.453415120020509, 5.620188120985404, 5.819407831062563, 5.937378154951148, 6.103347421973012, 6.291302683996037, 6.469508017995395, 6.653829077957198, 6.8202228100271896, 6.986089732032269, 7.186558349989355, 7.35429748299066, 7.703654990065843, 7.903054362046532, 8.084391538053751, 8.245636109961197, 8.440866744029336, 8.620549052022398, 8.803834217018448, 8.98743404704146, 9.17087986401748, 9.353796779061668, 9.536623812047765, 9.737255141953938, 9.92008066305425, 10.087442453019321, 10.309588299016468]",space,0.15979471791069955,AA,001,2019_Jul_19_1554,rev-kura_tap_2blocks,3.0.6,60.036084967130684,
