sndfile,tempo,cond,delay,trials_practice.thisRepN,trials_practice.thisTrialN,trials_practice.thisN,trials_practice.thisIndex,trials.thisRepN,trials.thisTrialN,trials.thisN,trials.thisIndex,trials_2.thisRepN,trials_2.thisTrialN,trials_2.thisN,trials_2.thisIndex,key_resp_2.keys,key_resp_2.rt,key_resp_4.keys,key_resp_4.rt,key_resp_3.keys,key_resp_3.rt,key_resp_7.keys,key_resp_7.rt,key_resp_9.keys,key_resp_9.rt,key_resp_5.keys,key_resp_5.rt,key_resp_8.keys,key_resp_8.rt,key_resp_10.keys,key_resp_10.rt,key_resp_6.keys,key_resp_6.rt,participant,session,date,expName,psychopyVersion,frameRate
,,,,,,,,,,,,,,,,space,14.22173959,,,,,,,,,,,,,,,,,BB,1,2019_Jul_20_1606,rev-kura_tap_2blocks,3.0.6,60.08821456
./stimuli_1/tmp/medium_100_1.wav,100,medium,1.797198505,0,0,0,0,,,,,,,,,,,"['space', 'space', 'space', 'space', 'space', 'space', 'space', 'space', 'space', 'space', 'space', 'space', 'space']","[2.5022958460031077, 3.1188660049811006, 3.708234149031341, 4.36967523698695, 5.0699132670415565, 5.693428533966653, 6.369609416928142, 7.019396302988753, 7.65277956193313, 8.303064735024236, 8.936323708039708, 9.569185803993605, 10.259283473016694]",space,1.719619576,,,,,,,,,,,,,BB,1,2019_Jul_20_1606,rev-kura_tap_2blocks,3.0.6,60.08821456
./stimuli_1/tmp/medium_110_1.wav,110,medium,0.970866786,0,1,1,2,,,,,,,,,,,"['space', 'space', 'space', 'space', 'space', 'space', 'space', 'space', 'space', 'space', 'space', 'space', 'space', 'space', 'space', 'space', 'space']","[0.7362261590315029, 1.2860480939270929, 1.8356220290297642, 2.385760289034806, 2.952956742956303, 3.5295148940058425, 4.102086620987393, 4.70308190502692, 5.270075842970982, 5.903489177930169, 6.452934112981893, 7.02988381893374, 7.603611225960776, 8.186330211930908, 8.753226864966564, 9.304711785982363, 9.903620498022065]",space,1.618890415,,,,,,,,,,,,,BB,1,2019_Jul_20_1606,rev-kura_tap_2blocks,3.0.6,60.08821456
./stimuli_1/tmp/vweak_105_1.wav,105,veryweak,1.91267155,0,2,2,3,,,,,,,,,,,"['space', 'space', 'space', 'space', 'space', 'space', 'space', 'space', 'space', 'space', 'space', 'space', 'space', 'space', 'space', 'space', 'space']","[0.7513450310798362, 1.2356809669872746, 1.851704359985888, 2.4863301570294425, 3.091705786064267, 3.7034116049762815, 4.269307111040689, 4.836030550068244, 5.4699330610455945, 6.01997482299339, 6.579840234015137, 7.203480013995431, 7.770340712042525, 8.386642727069557, 8.98692022508476, 9.579399792011827, 10.18711489008274]",space,0.899072685,,,,,,,,,,,,,BB,1,2019_Jul_20_1606,rev-kura_tap_2blocks,3.0.6,60.08821456
./stimuli_1/tmp/strong_90_1.wav,90,strong,1.013023596,0,3,3,1,,,,,,,,,,,"['space', 'space', 'space', 'space', 'space', 'space', 'space', 'space', 'space', 'space', 'space', 'space', 'space']","[1.8163133210036904, 2.435533900046721, 3.1527841810602695, 3.852632253081538, 4.569259292096831, 5.235718238051049, 5.952173308003694, 6.6411817480111495, 7.3037307620979846, 8.019720719079487, 8.719859978067689, 9.403654449037276, 10.120528242085129]",space,1.118613316,,,,,,,,,,,,,BB,1,2019_Jul_20_1606,rev-kura_tap_2blocks,3.0.6,60.08821456
./stimuli_1/tmp/medium_110_1.wav,110,medium,1.222685394,0,4,4,4,,,,,,,,,,,"['space', 'space', 'space', 'space', 'space', 'space', 'space', 'space', 'space', 'space', 'space', 'space', 'space', 'space', 'space', 'space']","[0.24369936797302216, 0.9104957609670237, 1.643566007958725, 2.910887785954401, 3.528099643997848, 4.0602779110195115, 4.643574283923954, 5.2269927529850975, 5.810955011984333, 6.375846638926305, 6.9665918769314885, 7.561220975941978, 8.111141190980561, 8.727599593927152, 9.261946404003538, 9.827425946947187]",space,1.086635807,,,,,,,,,,,,,BB,1,2019_Jul_20_1606,rev-kura_tap_2blocks,3.0.6,60.08821456
,,,,,,,,,,,,,,,,,,,,,,space,7.853895527,,,,,,,,,,,BB,1,2019_Jul_20_1606,rev-kura_tap_2blocks,3.0.6,60.08821456
./stimuli_1/tmp/medium_90_1.wav,90,medium,1.382759473,,,,,0,0,0,49,,,,,,,,,,,,,"['space', 'space', 'space', 'space', 'space', 'space', 'space', 'space', 'space', 'space', 'space', 'space', 'space', 'space']","[0.6739483809797093, 1.3524546370608732, 2.0900578199652955, 2.8007717150030658, 3.469384512049146, 4.203363114967942, 4.852863076026551, 5.503450348041952, 6.253358638961799, 6.936896882019937, 7.669218386989087, 8.353389239055105, 9.053832301055081, 9.736160007072613]",space,0.903582171,,,,,,,BB,1,2019_Jul_20_1606,rev-kura_tap_2blocks,3.0.6,60.08821456
./stimuli_1/tmp/weak_105_1.wav,105,weak,2.347668097,,,,,0,1,1,45,,,,,,,,,,,,,"['space', 'space', 'space', 'space', 'space', 'space', 'space', 'space', 'space', 'space', 'space', 'space', 'space', 'space', 'space', 'space', 'space', 'space', 'space', 'space', 'space', 'space', 'space', 'space', 'space', 'space', 'space', 'space', 'space', 'space']","[0.2022926949430257, 0.619945592014119, 0.968711880967021, 1.335925517953001, 1.6862691469723359, 2.035123285953887, 2.3695339940022677, 2.700393659994006, 3.0357545119477436, 3.369916709023528, 3.6939135889988393, 3.9863327619386837, 4.336628146935254, 4.636517283972353, 4.958064157050103, 5.2694022649666294, 5.619483857997693, 5.9364960950333625, 6.28669290500693, 6.618880062946118, 6.97007230494637, 7.270317974034697, 7.611104074050672, 7.919597911997698, 8.27017659205012, 8.645010299049318, 9.003462341031991, 9.353053343947977, 9.703359927982092, 10.028528793016449]",space,0.609171744,,,,,,,BB,1,2019_Jul_20_1606,rev-kura_tap_2blocks,3.0.6,60.08821456
./stimuli_1/tmp/weak_110_1.wav,110,weak,2.302762081,,,,,0,2,2,3,,,,,,,,,,,,,"['space', 'space', 'space', 'space', 'space', 'space', 'space', 'space', 'space', 'space', 'space', 'space', 'space', 'space', 'space', 'space', 'space', 'space', 'space']","[0.6688662719679996, 1.002742551965639, 1.3519292449345812, 1.6524195969104767, 1.952612226945348, 2.368221429991536, 2.953033080906607, 3.5025987859116867, 4.0690479188924655, 4.692487662890926, 5.31817682494875, 5.919515297980979, 6.536653566989116, 7.103470467962325, 7.678852809942327, 8.254154974943958, 8.837069274974056, 9.404129613889381, 9.97044440289028]",space,0.826234786,,,,,,,BB,1,2019_Jul_20_1606,rev-kura_tap_2blocks,3.0.6,60.08821456
./stimuli_1/tmp/vweak_105_2.wav,105,veryweak,1.145015037,,,,,0,3,3,9,,,,,,,,,,,,,"['space', 'space', 'space', 'space', 'space', 'space', 'space', 'space', 'space', 'space', 'space', 'space', 'space', 'space', 'space']","[0.7698165649781004, 1.335723494994454, 1.970677084987983, 2.658073458005674, 3.3528154169907793, 3.941482151974924, 4.569457844947465, 5.192598551977426, 5.803618586040102, 6.453854682971723, 7.1209172799717635, 7.746731710038148, 8.403712362982333, 9.037407006020658, 9.67094556405209]",space,0.418450934,,,,,,,BB,1,2019_Jul_20_1606,rev-kura_tap_2blocks,3.0.6,60.08821456
./stimuli_1/tmp/weak_90_2.wav,90,weak,2.03843752,,,,,0,4,4,23,,,,,,,,,,,,,"['space', 'space', 'space', 'space', 'space', 'space', 'space', 'space', 'space', 'space', 'space', 'space', 'space', 'space', 'space', 'space', 'space']","[0.18353209597989917, 0.6022232519462705, 1.2019677489297464, 1.7568628400331363, 2.4018593709915876, 3.086008645943366, 3.702848967979662, 4.345702869002707, 5.018457619938999, 5.669906308990903, 6.291869741980918, 6.951027223025449, 7.619371637934819, 8.286441633012146, 8.907937459996901, 9.55288513598498, 10.202955910935998]",space,0.604691174,,,,,,,BB,1,2019_Jul_20_1606,rev-kura_tap_2blocks,3.0.6,60.08821456
./stimuli_1/tmp/medium_110_2.wav,110,medium,1.962096671,,,,,0,5,5,12,,,,,,,,,,,,,"['space', 'space', 'space', 'space', 'space', 'space', 'space', 'space', 'space', 'space', 'space', 'space', 'space', 'space', 'space', 'space', 'space']","[0.26924024103209376, 0.79141454200726, 1.235787756042555, 1.9021737630246207, 2.534312515053898, 3.237695842050016, 3.794105369015597, 4.369782675988972, 4.920181130059063, 5.5036837880034, 6.053264077054337, 6.653636367991567, 7.203227685997263, 7.836921931011602, 8.47106591204647, 9.070780563983135, 9.670678331051022]",space,0.386294897,,,,,,,BB,1,2019_Jul_20_1606,rev-kura_tap_2blocks,3.0.6,60.08821456
./stimuli_1/tmp/vweak_110_1.wav,110,veryweak,1.340718613,,,,,0,6,6,32,,,,,,,,,,,,,"['space', 'space', 'space', 'space', 'space', 'space', 'space', 'space', 'space', 'space', 'space', 'space', 'space', 'space', 'space', 'space', 'space']","[0.2238147919997573, 0.7355182209284976, 1.2913014449877664, 1.9198615839704871, 2.4689703789772466, 3.0365693389903754, 3.6690745999803767, 4.301782929920591, 4.869855500990525, 5.534174894914031, 6.144710175925866, 6.802597410976887, 7.436839492991567, 8.037083392962813, 8.703650254989043, 9.260217444971204, 9.870335435960442]",space,0.52003742,,,,,,,BB,1,2019_Jul_20_1606,rev-kura_tap_2blocks,3.0.6,60.08821456
./stimuli_1/tmp/weak_95_1.wav,95,weak,1.972648126,,,,,0,7,7,43,,,,,,,,,,,,,"['space', 'space', 'space', 'space', 'space', 'space', 'space', 'space', 'space', 'space', 'space', 'space', 'space', 'space', 'space']","[0.39982656098436564, 0.9683714660350233, 1.5859139940002933, 2.285909414058551, 2.9557221779832616, 3.6863782780710608, 4.3083733280655, 4.98474729899317, 5.686066183028743, 6.32512160600163, 6.984828721964732, 7.637015640968457, 8.287001144024543, 8.986983221024275, 9.670145930023864]",space,0.342203778,,,,,,,BB,1,2019_Jul_20_1606,rev-kura_tap_2blocks,3.0.6,60.08821456
./stimuli_1/tmp/perfect_105_1.wav,105,perfect,1.61271141,,,,,0,8,8,13,,,,,,,,,,,,,"['space', 'space', 'space', 'space', 'space', 'space', 'space', 'space', 'space', 'space', 'space', 'space', 'space', 'space', 'space', 'space']","[0.1849599559791386, 1.001763375941664, 1.5350209400057793, 2.0849956260062754, 2.6358413039706647, 3.1856602940242738, 3.7703548489371315, 4.353425211971626, 4.90247161698062, 5.459726843982935, 6.0205145250074565, 6.552805947023444, 7.150823096977547, 7.7365225970279425, 8.324608281021938, 8.887319740024395]",space,0.761321748,,,,,,,BB,1,2019_Jul_20_1606,rev-kura_tap_2blocks,3.0.6,60.08821456
./stimuli_1/tmp/medium_105_2.wav,105,medium,0.882509757,,,,,0,9,9,17,,,,,,,,,,,,,"['space', 'space', 'space', 'space', 'space', 'space', 'space', 'space', 'space', 'space', 'space', 'space', 'space', 'space', 'space', 'space', 'space']","[0.25326035695616156, 0.6351278909714893, 1.1027760439319536, 1.6846722270129248, 2.307658312958665, 2.968682173988782, 3.5702531340066344, 4.136765481904149, 4.669073454919271, 5.284644727944396, 5.812645761994645, 6.387275781948119, 7.003811975009739, 7.620319815934636, 8.353525228914805, 9.084934780956246, 9.742048056912608]",space,0.527688116,,,,,,,BB,1,2019_Jul_20_1606,rev-kura_tap_2blocks,3.0.6,60.08821456
./stimuli_1/tmp/perfect_90_1.wav,90,perfect,0.87905892,,,,,0,10,10,39,,,,,,,,,,,,,"['space', 'space', 'space', 'space', 'space', 'space', 'space', 'space', 'space', 'space', 'space', 'space', 'space', 'space', 'space', 'space']","[0.6199830969562754, 1.0692671389551833, 1.7358068969333544, 2.4222790689673275, 3.0860880609834567, 3.7192929439479485, 4.386007185908966, 5.053000802989118, 5.703296846942976, 6.352720467955805, 7.012297875946388, 7.67000103299506, 8.319880259921774, 8.986540518933907, 9.62070408789441, 10.304060018970631]",space,14.63368447,,,,,,,BB,1,2019_Jul_20_1606,rev-kura_tap_2blocks,3.0.6,60.08821456
./stimuli_1/tmp/weak_110_2.wav,110,weak,1.145048959,,,,,0,11,11,0,,,,,,,,,,,,,"['space', 'space', 'space', 'space', 'space', 'space', 'space', 'space', 'space', 'space', 'space', 'space', 'space', 'space', 'space', 'space', 'space', 'space', 'space', 'space']","[0.3092720489948988, 0.7855946540366858, 1.2526327560190111, 1.726140588056296, 2.2190689580747858, 2.688857896020636, 3.136210989090614, 3.6180570640135556, 4.1029231320135295, 4.586170386057347, 5.119933158042841, 5.586065523093566, 6.585839658044279, 7.120244582067244, 7.602838827064261, 8.137403762084432, 8.620173767092638, 9.053408092004247, 9.552630612044595, 10.054087631055154]",space,0.389883623,,,,,,,BB,1,2019_Jul_20_1606,rev-kura_tap_2blocks,3.0.6,60.08821456
./stimuli_1/tmp/medium_105_1.wav,105,medium,1.666398533,,,,,0,12,12,21,,,,,,,,,,,,,"['space', 'space', 'space', 'space', 'space', 'space', 'space', 'space', 'space', 'space', 'space', 'space', 'space', 'space', 'space', 'space', 'space', 'space']","[0.21877203893382102, 0.5026839169440791, 1.1197526960168034, 1.7699428600026295, 2.336014508968219, 2.9363944940268993, 3.485834060003981, 4.052998285973445, 4.652803940931335, 5.236628517974168, 5.770059003960341, 6.337149200029671, 6.920056600938551, 7.519568871939555, 8.087163005024195, 8.651924600009806, 9.244146827957593, 9.820996169932187]",space,0.807338241,,,,,,,BB,1,2019_Jul_20_1606,rev-kura_tap_2blocks,3.0.6,60.08821456
./stimuli_1/tmp/weak_95_2.wav,95,weak,1.339165335,,,,,0,13,13,38,,,,,,,,,,,,,"['space', 'space', 'space', 'space', 'space', 'space', 'space', 'space', 'space', 'space', 'space', 'space', 'space', 'space', 'space']","[0.20184984197840095, 0.6878218490164727, 1.3190076779574156, 2.1073295150417835, 2.819759689969942, 3.502282381989062, 4.218622411950491, 4.919132594019175, 5.60365098703187, 6.301950698951259, 7.069137881044298, 7.819699606974609, 8.502757112961262, 9.186679715989158, 9.83653593098279]",space,0.302655718,,,,,,,BB,1,2019_Jul_20_1606,rev-kura_tap_2blocks,3.0.6,60.08821456
./stimuli_1/tmp/medium_95_1.wav,95,medium,1.37062158,,,,,0,14,14,19,,,,,,,,,,,,,"['space', 'space', 'space', 'space', 'space', 'space', 'space', 'space', 'space', 'space', 'space', 'space', 'space', 'space', 'space']","[0.13582413794938475, 0.7727337538963184, 1.5516413969453424, 2.2691025629173964, 2.936037214938551, 3.601675202953629, 4.303335371892899, 4.9694725149311125, 5.6583908119937405, 6.319224408944137, 7.024619603995234, 7.686235570930876, 8.42054120299872, 9.087239319924265, 9.753882949938998]",space,0.436004901,,,,,,,BB,1,2019_Jul_20_1606,rev-kura_tap_2blocks,3.0.6,60.08821456
./stimuli_1/tmp/vweak_95_1.wav,95,veryweak,2.279644213,,,,,0,15,15,24,,,,,,,,,,,,,"['space', 'space', 'space', 'space', 'space', 'space', 'space', 'space', 'space', 'space', 'space', 'space', 'space', 'space', 'space']","[0.9512329149292782, 1.5523823340190575, 2.1519869660260156, 2.752658900921233, 3.318784805946052, 4.486117620021105, 5.136161176022142, 5.769553457968868, 6.36929504701402, 6.9869264389853925, 7.586207801941782, 8.219413832994178, 8.83689953701105, 9.426728962920606, 10.07022261491511]",space,0.335718612,,,,,,,BB,1,2019_Jul_20_1606,rev-kura_tap_2blocks,3.0.6,60.08821456
./stimuli_1/tmp/vweak_110_2.wav,110,veryweak,1.237556465,,,,,0,16,16,28,,,,,,,,,,,,,"['space', 'space', 'space', 'space', 'space', 'space', 'space', 'space', 'space', 'space', 'space', 'space', 'space', 'space', 'space', 'space', 'space', 'space', 'space', 'space', 'space', 'space', 'space', 'space']","[0.20295014092698693, 0.6530536130303517, 0.950795223005116, 1.2857828210107982, 1.636681973002851, 2.0196810649940744, 2.4196493219351396, 2.7867256850004196, 3.13645969692152, 3.535104608978145, 3.878003606921993, 4.1531662489287555, 4.653385409968905, 5.037349954014644, 5.339141643955372, 5.653720657923259, 5.95419033698272, 6.2536086769541726, 6.652731179958209, 7.286426045931876, 7.979183839983307, 8.535368520999327, 9.02689463691786, 9.621145009994507]",space,0.457273183,,,,,,,BB,1,2019_Jul_20_1606,rev-kura_tap_2blocks,3.0.6,60.08821456
./stimuli_1/tmp/medium_110_1.wav,110,medium,1.622365135,,,,,0,17,17,10,,,,,,,,,,,,,"['space', 'space', 'space', 'space', 'space', 'space', 'space', 'space', 'space', 'space', 'space', 'space', 'space', 'space', 'space', 'space', 'space', 'space']","[0.3969299750169739, 0.6978790940484032, 1.1475698669673875, 1.7148590909782797, 2.2649909160099924, 2.864717044052668, 3.44828035205137, 4.0309407239547, 4.6483791479840875, 5.248236209969036, 5.836402880959213, 6.38181553396862, 6.986410718993284, 7.549118943046778, 8.11523615301121, 8.682357448968105, 9.231983765028417, 9.83218298398424]",space,0.518622604,,,,,,,BB,1,2019_Jul_20_1606,rev-kura_tap_2blocks,3.0.6,60.08821456
./stimuli_1/tmp/perfect_95_1.wav,95,perfect,0.865959209,,,,,0,18,18,22,,,,,,,,,,,,,"['space', 'space', 'space', 'space', 'space', 'space', 'space', 'space', 'space', 'space', 'space', 'space', 'space', 'space', 'space', 'space']","[0.15273068298120052, 0.8615472519304603, 1.575908471015282, 2.227987334015779, 2.862205379991792, 3.5120789810316637, 4.128461251035333, 4.779041877947748, 5.362059460952878, 5.962376010022126, 6.6023831110214815, 7.262921040994115, 7.878527118940838, 8.496654581977054, 9.129528951947577, 9.763390072039329]",space,0.501763664,,,,,,,BB,1,2019_Jul_20_1606,rev-kura_tap_2blocks,3.0.6,60.08821456
./stimuli_1/tmp/strong_100_1.wav,100,strong,1.229833762,,,,,0,19,19,37,,,,,,,,,,,,,"['space', 'space', 'space', 'space', 'space', 'space', 'space', 'space', 'space', 'space', 'space', 'space', 'space', 'space', 'space', 'space']","[0.26940424006897956, 0.7701696160947904, 1.436244119075127, 2.120465905056335, 2.736480359104462, 3.370073107071221, 4.010528872022405, 4.686743129044771, 5.3247815440408885, 5.9686296141007915, 6.620403755106963, 7.237988399108872, 7.894054635078646, 8.55398587801028, 9.22191644308623, 9.838134376099333]",space,0.44392771,,,,,,,BB,1,2019_Jul_20_1606,rev-kura_tap_2blocks,3.0.6,60.08821456
./stimuli_1/tmp/strong_95_1.wav,95,strong,1.223859269,,,,,0,20,20,33,,,,,,,,,,,,,"['space', 'space', 'space', 'space', 'space', 'space', 'space', 'space', 'space', 'space', 'space', 'space', 'space', 'space', 'space', 'space', 'space']","[0.1518728529335931, 0.6520491560222581, 1.2250626269960776, 1.8685287670232356, 2.469276375020854, 3.052224787999876, 3.687818116042763, 4.268970691016875, 4.8763911300338805, 5.4865644070087, 6.119791320990771, 6.720110657042824, 7.319970375974663, 7.909333918010816, 8.55352885404136, 9.136667106999084, 9.721058922004886]",space,0.27454328,,,,,,,BB,1,2019_Jul_20_1606,rev-kura_tap_2blocks,3.0.6,60.08821456
./stimuli_1/tmp/strong_90_2.wav,90,strong,1.295458158,,,,,0,21,21,36,,,,,,,,,,,,,"['space', 'space', 'space', 'space', 'space', 'space', 'space', 'space', 'space', 'space', 'space', 'space', 'space', 'space', 'space', 'space']","[0.16857466602232307, 0.7782009050715715, 1.4857646099990234, 2.1361981640802696, 2.8123054180759937, 3.453146692016162, 4.1031454839976504, 4.778191194054671, 5.41892526904121, 6.069759723031893, 6.736040618037805, 7.378553610993549, 8.053801387082785, 8.725123485084623, 9.353671815013513, 9.985588522977196]",space,0.389848196,,,,,,,BB,1,2019_Jul_20_1606,rev-kura_tap_2blocks,3.0.6,60.08821456
./stimuli_1/tmp/strong_110_1.wav,110,strong,2.342405955,,,,,0,22,22,8,,,,,,,,,,,,,"['space', 'space', 'space', 'space', 'space', 'space', 'space', 'space', 'space', 'space', 'space', 'space', 'space', 'space', 'space', 'space', 'space', 'space']","[0.23536493489518762, 0.6437829768983647, 1.1532380289863795, 1.7195017649792135, 2.2431481539970264, 2.8354388879379258, 3.386595425894484, 3.9687869529007003, 4.586680651991628, 5.145818593911827, 5.687002264894545, 6.32017654995434, 6.852341703954153, 7.419938292005099, 8.002013087971136, 8.592268660897389, 9.203296533902176, 9.770861033000983]",space,0.352632777,,,,,,,BB,1,2019_Jul_20_1606,rev-kura_tap_2blocks,3.0.6,60.08821456
./stimuli_1/tmp/medium_95_2.wav,95,medium,2.475357683,,,,,0,23,23,14,,,,,,,,,,,,,"['space', 'space', 'space', 'space', 'space', 'space', 'space', 'space', 'space', 'space', 'space', 'space', 'space', 'space', 'space']","[0.1526849470101297, 0.6365836670156568, 1.2868013139814138, 2.024410936050117, 2.819163501029834, 3.454071387066506, 4.170290561043657, 4.906190501991659, 5.603757976088673, 6.286735704983585, 6.963028733036481, 7.670811763033271, 8.354145269026048, 9.054458818980493, 9.719955281005241]",space,0.551442405,,,,,,,BB,1,2019_Jul_20_1606,rev-kura_tap_2blocks,3.0.6,60.08821456
./stimuli_1/tmp/vweak_95_2.wav,95,veryweak,1.139932226,,,,,0,24,24,30,,,,,,,,,,,,,"['space', 'space', 'space', 'space', 'space', 'space', 'space', 'space', 'space', 'space', 'space', 'space', 'space', 'space', 'space', 'space', 'space']","[0.16842504497617483, 0.6947029689326882, 1.2525746609317139, 1.835849685012363, 2.4359379769302905, 3.0860778149217367, 3.744562371983193, 4.352380210999399, 4.951052855933085, 5.570191936916672, 6.209794202004559, 6.836540751974098, 7.486317393020727, 8.134632010012865, 8.753948834957555, 9.34367410093546, 9.96960675693117]",space,0.653209925,,,,,,,BB,1,2019_Jul_20_1606,rev-kura_tap_2blocks,3.0.6,60.08821456
./stimuli_1/tmp/perfect_110_1.wav,110,perfect,1.770427147,,,,,0,25,25,18,,,,,,,,,,,,,"['space', 'space', 'space', 'space', 'space', 'space', 'space', 'space', 'space', 'space', 'space', 'space', 'space', 'space', 'space', 'space', 'space']","[0.00044905801769346, 0.9072804469615221, 1.4025114530231804, 1.955289828008972, 2.5023027679417282, 3.0565001199720427, 3.586718133999966, 4.135870678001083, 4.684294959995896, 5.220624128938653, 5.790629672934301, 6.3373090559616685, 6.877694709924981, 7.420573576004244, 7.920207199989818, 8.503681257017888, 10.120755910989828]",space,0.860147458,,,,,,,BB,1,2019_Jul_20_1606,rev-kura_tap_2blocks,3.0.6,60.08821456
./stimuli_1/tmp/strong_110_2.wav,110,strong,1.936991173,,,,,0,26,26,6,,,,,,,,,,,,,"['space', 'space', 'space', 'space', 'space', 'space', 'space', 'space', 'space', 'space', 'space', 'space', 'space', 'space', 'space', 'space', 'space', 'space']","[0.15261877398006618, 0.7090596319176257, 1.1847772669279948, 1.7028367089806125, 2.212262111948803, 2.852320240926929, 3.419682477018796, 4.033923981944099, 4.609911202918738, 5.136083427001722, 5.786488203913905, 6.38635709695518, 6.986802038969472, 7.552627761964686, 8.12001308100298, 8.753531617927365, 9.336814902024344, 9.903928120969795]",space,0.60703467,,,,,,,BB,1,2019_Jul_20_1606,rev-kura_tap_2blocks,3.0.6,60.08821456
./stimuli_1/tmp/perfect_110_0.wav,110,perfect,1.883721068,,,,,0,27,27,16,,,,,,,,,,,,,"['space', 'space', 'space', 'space', 'space', 'space', 'space', 'space', 'space', 'space', 'space', 'space', 'space', 'space', 'space', 'space', 'space']","[0.15333355101756752, 0.8243179710116237, 1.3695477520814165, 1.9032528339885175, 2.4526001940248534, 2.9692761230980977, 3.536545203998685, 4.086608795099892, 4.658938008011319, 5.154034551000223, 5.694577056099661, 6.267881924053654, 6.787121318047866, 7.354359450051561, 7.903814359102398, 8.437373709050007, 10.13790966605302]",space,0.552668822,,,,,,,BB,1,2019_Jul_20_1606,rev-kura_tap_2blocks,3.0.6,60.08821456
./stimuli_1/tmp/vweak_90_1.wav,90,veryweak,0.836278087,,,,,0,28,28,34,,,,,,,,,,,,,"['space', 'space', 'space', 'space', 'space', 'space', 'space', 'space', 'space', 'space', 'space', 'space', 'space', 'space', 'space']","[0.2351902429945767, 0.603205013088882, 1.2014475209871307, 2.024548482033424, 2.769044518005103, 3.5032476180931553, 4.269086360000074, 4.968909026007168, 5.720265439013019, 6.434593008016236, 7.153038719086908, 7.91200514906086, 8.635045542032458, 9.337206085096113, 10.070323162013665]",space,0.377805622,,,,,,,BB,1,2019_Jul_20_1606,rev-kura_tap_2blocks,3.0.6,60.08821456
./stimuli_1/tmp/strong_90_1.wav,90,strong,1.087818501,,,,,0,29,29,41,,,,,,,,,,,,,"['space', 'space', 'space', 'space', 'space', 'space', 'space', 'space', 'space', 'space', 'space', 'space', 'space', 'space', 'space']","[0.1951215969165787, 0.9626481080194935, 1.7785128420218825, 2.403173096012324, 3.0795251940144226, 3.7958180499263108, 4.5120970599818975, 5.21282367000822, 5.9101682209875435, 6.62957737094257, 7.346304410952143, 8.030198170919903, 8.712665956001729, 9.413669417030178, 10.112590412958525]",space,0.386104213,,,,,,,BB,1,2019_Jul_20_1606,rev-kura_tap_2blocks,3.0.6,60.08821456
./stimuli_1/tmp/strong_95_2.wav,95,strong,1.117350791,,,,,0,30,30,27,,,,,,,,,,,,,"['space', 'space', 'space', 'space', 'space', 'space', 'space', 'space', 'space', 'space', 'space', 'space', 'space', 'space', 'space', 'space']","[0.16909033805131912, 0.5408564750105143, 1.136267167981714, 1.8188420470105484, 2.5019929440459237, 3.1200636220164597, 3.786370574031025, 4.4368116409750655, 5.109141789958812, 5.787057594978251, 6.503074891981669, 7.134417849010788, 7.737012438010424, 8.420858575962484, 9.069643995026127, 9.710597130004317]",space,0.549297132,,,,,,,BB,1,2019_Jul_20_1606,rev-kura_tap_2blocks,3.0.6,60.08821456
./stimuli_1/tmp/medium_100_2.wav,100,medium,1.570988171,,,,,0,31,31,44,,,,,,,,,,,,,"['space', 'space', 'space', 'space', 'space', 'space', 'space', 'space', 'space', 'space', 'space', 'space', 'space', 'space']","[1.0186607559444383, 1.6376724239671603, 2.285279142903164, 3.0912084518931806, 3.753340598894283, 4.376617225003429, 5.087339050951414, 5.819332845974714, 6.48602321697399, 7.1368988959584385, 7.737450663000345, 8.460612873896025, 9.08779630891513, 9.75306020991411]",space,0.35282658,,,,,,,BB,1,2019_Jul_20_1606,rev-kura_tap_2blocks,3.0.6,60.08821456
./stimuli_1/tmp/vweak_90_2.wav,90,veryweak,1.004498758,,,,,0,32,32,40,,,,,,,,,,,,,"['space', 'space', 'space', 'space', 'space', 'space', 'space', 'space', 'space', 'space', 'space', 'space', 'space', 'space', 'space', 'space']","[0.18494144000578672, 0.9182811580831185, 1.627291865996085, 2.2854505160357803, 2.952751116012223, 3.603059063083492, 4.2595844770548865, 4.903262385050766, 5.536390877095982, 6.119802127010189, 6.691500268061645, 7.336126923095435, 8.037075611995533, 8.717647006036714, 9.354242150089704, 10.004813557025045]",space,0.343935651,,,,,,,BB,1,2019_Jul_20_1606,rev-kura_tap_2blocks,3.0.6,60.08821456
./stimuli_1/tmp/perfect_105_0.wav,105,perfect,2.376167667,,,,,0,33,33,11,,,,,,,,,,,,,"['space', 'space', 'space', 'space', 'space', 'space', 'space', 'space', 'space', 'space', 'space', 'space', 'space', 'space', 'space', 'space', 'space']","[0.1671170920599252, 0.9019494249951094, 1.4632663059746847, 2.036456722067669, 2.620276788016781, 3.1697347500594333, 3.736411628080532, 4.320395224029198, 4.903299562050961, 5.46980852400884, 6.029970832983963, 6.570110374013893, 7.135198067058809, 7.708011143025942, 8.320275812991895, 8.870774910086766, 10.837553229997866]",space,0.442634049,,,,,,,BB,1,2019_Jul_20_1606,rev-kura_tap_2blocks,3.0.6,60.08821456
./stimuli_1/tmp/perfect_95_0.wav,95,perfect,1.440088579,,,,,0,34,34,26,,,,,,,,,,,,,"['space', 'space', 'space', 'space', 'space', 'space', 'space', 'space', 'space', 'space', 'space', 'space', 'space', 'space', 'space', 'space']","[0.1684715289156884, 0.8191999489208683, 1.5017494799103588, 2.191790403914638, 2.836130448966287, 3.469970182981342, 4.069311250932515, 4.736607622937299, 5.369735742919147, 6.003903887001798, 6.653496196959168, 7.2533798340009525, 7.8869301188969985, 8.535868496983312, 9.186764044919983, 9.788390124915168]",space,0.258257737,,,,,,,BB,1,2019_Jul_20_1606,rev-kura_tap_2blocks,3.0.6,60.08821456
./stimuli_1/tmp/weak_100_2.wav,100,weak,0.974481249,,,,,0,35,35,20,,,,,,,,,,,,,"['space', 'space', 'space', 'space', 'space', 'space', 'space', 'space', 'space', 'space', 'space', 'space', 'space', 'space', 'space', 'space', 'space']","[0.16411659610457718, 0.7312348630512133, 1.3869523809989914, 2.0304131120210513, 2.647762993001379, 3.281070263008587, 3.8976228900719434, 4.521551352110691, 5.131732119014487, 5.782119251089171, 6.432059150072746, 7.047972239088267, 7.615207251044922, 8.198635524022393, 8.764992453041486, 9.36538414703682, 10.004165794001892]",space,0.283643121,,,,,,,BB,1,2019_Jul_20_1606,rev-kura_tap_2blocks,3.0.6,60.08821456
./stimuli_1/tmp/strong_105_1.wav,105,strong,1.875084545,,,,,0,36,36,25,,,,,,,,,,,,,"['space', 'space', 'space', 'space', 'space', 'space', 'space', 'space', 'space', 'space', 'space', 'space', 'space', 'space', 'space', 'space', 'space', 'space', 'space']","[0.00033466797322034836, 0.6526768479961902, 1.136650986969471, 1.6204247400164604, 2.169678792008199, 2.684921415988356, 3.236685134936124, 3.7915823590010405, 4.352899156976491, 4.90357772493735, 5.4418236169731244, 6.003500203019939, 6.53726914699655, 7.086738514946774, 7.62042539997492, 8.172136300010607, 8.72084520093631, 9.2877313089557, 9.837792931939475]",space,0.119058139,,,,,,,BB,1,2019_Jul_20_1606,rev-kura_tap_2blocks,3.0.6,60.08821456
./stimuli_1/tmp/medium_90_2.wav,90,medium,2.138433157,,,,,0,37,37,46,,,,,,,,,,,,,"['space', 'space', 'space', 'space', 'space', 'space', 'space', 'space', 'space', 'space', 'space', 'space', 'space', 'space', 'space']","[0.1859584889607504, 0.8864939579507336, 1.7360000519547611, 2.385790705913678, 3.0187346029561013, 3.753101325011812, 4.418716016924009, 5.111983124981634, 5.785957616986707, 6.470339620951563, 7.152936806902289, 7.852988233906217, 8.536421889904886, 9.20427236391697, 9.903426988981664]",space,0.085391075,,,,,,,BB,1,2019_Jul_20_1606,rev-kura_tap_2blocks,3.0.6,60.08821456
./stimuli_1/tmp/strong_105_2.wav,105,strong,0.961540408,,,,,0,38,38,31,,,,,,,,,,,,,"['space', 'space', 'space', 'space', 'space', 'space', 'space', 'space', 'space', 'space', 'space', 'space', 'space', 'space', 'space', 'space', 'space']","[0.22356908896472305, 0.5858546979725361, 1.136183105991222, 1.8256913530640304, 2.486014744034037, 3.195552199962549, 3.8026835969649255, 4.435099204070866, 5.087141628027894, 5.735731384018436, 6.386220677988604, 7.0035972740734, 7.691675186040811, 8.319358144071884, 8.986976340063848, 9.619917251053266, 10.277657025959343]",space,0.335736169,,,,,,,BB,1,2019_Jul_20_1606,rev-kura_tap_2blocks,3.0.6,60.08821456
./stimuli_1/tmp/weak_100_1.wav,100,weak,0.920091136,,,,,0,39,39,15,,,,,,,,,,,,,"['space', 'space', 'space', 'space', 'space', 'space', 'space', 'space', 'space', 'space', 'space', 'space', 'space', 'space', 'space', 'space', 'space']","[0.16964607895351946, 0.9028222280321643, 1.5861558970063925, 2.269607624039054, 2.9365756049519405, 3.5414282529382035, 4.15364612697158, 4.853758226032369, 5.444054770981893, 6.0015437179245055, 6.637234710971825, 7.237124930950813, 7.9039777730358765, 8.543219845974818, 9.169880216941237, 9.770571621949784, 10.92067014600616]",space,0.561642837,,,,,,,BB,1,2019_Jul_20_1606,rev-kura_tap_2blocks,3.0.6,60.08821456
./stimuli_1/tmp/vweak_100_2.wav,100,veryweak,0.984392311,,,,,0,40,40,5,,,,,,,,,,,,,"['space', 'space', 'space', 'space', 'space', 'space', 'space', 'space', 'space', 'space', 'space', 'space', 'space', 'space', 'space', 'space', 'space']","[0.1689551480812952, 0.8184683350846171, 1.4193066210718825, 2.086570944986306, 2.751544306986034, 3.369411209016107, 3.9888755650026724, 4.585936642019078, 5.203316019033082, 5.8362911600852385, 6.478459339006804, 7.103368095005862, 7.753112239995971, 8.420451567042619, 9.020488356007263, 9.595027107046917, 10.610745250014588]",space,0.402656265,,,,,,,BB,1,2019_Jul_20_1606,rev-kura_tap_2blocks,3.0.6,60.08821456
./stimuli_1/tmp/perfect_100_0.wav,100,perfect,2.177118372,,,,,0,41,41,2,,,,,,,,,,,,,"['space', 'space', 'space', 'space', 'space', 'space', 'space', 'space', 'space', 'space', 'space', 'space', 'space', 'space', 'space', 'space']","[0.902647606912069, 1.5527957719750702, 2.1622257179114968, 2.7690246049314737, 3.3697238659951836, 3.9871507609495893, 4.559292257996276, 5.170291766989976, 5.770092186983675, 6.336947975913063, 6.9428082049125805, 7.537552985013463, 8.104143508942798, 8.720664076972753, 9.305037686950527, 10.704672286985442]",space,0.338685088,,,,,,,BB,1,2019_Jul_20_1606,rev-kura_tap_2blocks,3.0.6,60.08821456
./stimuli_1/tmp/perfect_100_1.wav,100,perfect,2.462429502,,,,,0,42,42,1,,,,,,,,,,,,,"['space', 'space', 'space', 'space', 'space', 'space', 'space', 'space', 'space', 'space', 'space', 'space', 'space', 'space', 'space', 'space']","[0.160788435023278, 0.8181801850441843, 1.4500933251110837, 2.0356186520075426, 2.6236849810229614, 3.219460655003786, 3.80913969501853, 4.486717791063711, 5.070201879017986, 5.6694135561119765, 6.236535781063139, 6.862919012084603, 7.48645532107912, 8.020160107058473, 8.619841064093634, 9.29126640909817]",space,0.501733217,,,,,,,BB,1,2019_Jul_20_1606,rev-kura_tap_2blocks,3.0.6,60.08821456
./stimuli_1/tmp/vweak_105_1.wav,105,veryweak,2.000868469,,,,,0,43,43,7,,,,,,,,,,,,,"['space', 'space', 'space', 'space', 'space', 'space', 'space', 'space', 'space', 'space', 'space', 'space', 'space', 'space', 'space', 'space', 'space', 'space', 'space']","[0.00035808596294373274, 0.17684095399454236, 0.6524671709630638, 1.1689925539540127, 1.77879753196612, 2.40246460493654, 2.986087226890959, 3.569579476956278, 4.136199289932847, 4.802396131912246, 5.378122534952126, 5.969897034927271, 6.603707957896404, 7.120440667960793, 7.687316661933437, 8.32027520891279, 8.95972584199626, 9.586363673908636, 10.224834417924285]",space,7.563853509,,,,,,,BB,1,2019_Jul_20_1606,rev-kura_tap_2blocks,3.0.6,60.08821456
./stimuli_1/tmp/weak_90_1.wav,90,weak,1.282481392,,,,,0,44,44,29,,,,,,,,,,,,,"['space', 'space', 'space', 'space', 'space', 'space', 'space', 'space', 'space', 'space', 'space', 'space', 'space', 'space', 'space']","[0.16943296790122986, 0.7170675479574129, 1.370089948992245, 2.1368961919797584, 2.8862380929058418, 3.5858703169506043, 4.2702284349361435, 4.939716376946308, 5.6043601129204035, 6.286637065000832, 7.036912123905495, 7.757462317007594, 8.420750486897305, 9.080015932908282, 9.755099795991555]",space,0.267847092,,,,,,,BB,1,2019_Jul_20_1606,rev-kura_tap_2blocks,3.0.6,60.08821456
./stimuli_1/tmp/weak_105_2.wav,105,weak,2.06505112,,,,,0,45,45,48,,,,,,,,,,,,,"['space', 'space', 'space', 'space', 'space', 'space', 'space', 'space', 'space', 'space', 'space', 'space', 'space', 'space', 'space', 'space']","[0.15955736103933305, 0.8696265800390393, 1.5176875359611586, 2.1193881520302966, 2.802726033027284, 3.4526850250549614, 4.1195031149545684, 4.790891228010878, 5.435768075985834, 6.291173262987286, 6.987839541980065, 7.620786878047511, 8.28726397396531, 8.903389059007168, 9.553904655040242, 10.15415631304495]",space,0.386075321,,,,,,,BB,1,2019_Jul_20_1606,rev-kura_tap_2blocks,3.0.6,60.08821456
./stimuli_1/tmp/vweak_100_1.wav,100,veryweak,1.441965325,,,,,0,46,46,4,,,,,,,,,,,,,"['space', 'space', 'space', 'space', 'space', 'space', 'space', 'space', 'space', 'space', 'space', 'space', 'space', 'space', 'space']","[0.3477529489900917, 0.813380965963006, 1.473965020966716, 2.298057427047752, 2.9143276299582794, 3.490097954054363, 4.147625326062553, 4.781637693056837, 5.598525412031449, 6.281593995983712, 6.982322836993262, 7.665506317047402, 8.418333953013644, 9.282777672051452, 9.937302928999998]",space,0.458533048,,,,,,,BB,1,2019_Jul_20_1606,rev-kura_tap_2blocks,3.0.6,60.08821456
./stimuli_1/tmp/strong_100_2.wav,100,strong,1.599464807,,,,,0,47,47,42,,,,,,,,,,,,,"['space', 'space', 'space', 'space', 'space', 'space', 'space', 'space', 'space', 'space', 'space', 'space', 'space', 'space', 'space', 'space']","[0.6608510779915377, 1.2929208519635722, 1.9265706660225987, 2.478137379977852, 3.093894226010889, 3.711148952948861, 4.327652098028921, 4.927593685919419, 5.517880002968013, 6.1445141630247235, 6.745204427978024, 7.361486915964633, 7.9526937659829855, 8.544699689024128, 9.228572945925407, 9.811644511995837]",space,0.676514371,,,,,,,BB,1,2019_Jul_20_1606,rev-kura_tap_2blocks,3.0.6,60.08821456
./stimuli_1/tmp/perfect_90_0.wav,90,perfect,1.656860488,,,,,0,48,48,35,,,,,,,,,,,,,"['space', 'space', 'space', 'space', 'space', 'space', 'space', 'space', 'space', 'space', 'space', 'space', 'space', 'space', 'space', 'space']","[0.16925877099856734, 0.9192375970305875, 1.68594132096041, 2.3531352300196886, 3.0025469040265307, 3.7034079909790307, 4.386986722005531, 5.019900660961866, 5.661425478989258, 6.319963754038326, 7.019839685992338, 7.670431580976583, 8.330923555069603, 9.003823696053587, 9.652901757042855, 10.296791353961453]",space,0.540159578,,,,,,,BB,1,2019_Jul_20_1606,rev-kura_tap_2blocks,3.0.6,60.08821456
./stimuli_1/tmp/medium_100_1.wav,100,medium,0.946944179,,,,,0,49,49,47,,,,,,,,,,,,,"['space', 'space', 'space', 'space', 'space', 'space', 'space', 'space', 'space', 'space', 'space', 'space', 'space', 'space', 'space', 'space']","[0.45560359896626323, 1.1694775079376996, 1.7773161119548604, 2.3872910359641537, 3.0192666889633983, 3.7085351169807836, 4.351148817921057, 5.019687442923896, 5.70341417088639, 6.353287940961309, 6.96783894894179, 7.620163064915687, 8.286692487890832, 8.956195434904657, 9.553817246924154, 10.187742856913246]",space,0.410670926,,,,,,,BB,1,2019_Jul_20_1606,rev-kura_tap_2blocks,3.0.6,60.08821456
,,,,,,,,,,,,,,,,,,,,,,,,,,,,space,30.71725314,,,,,BB,1,2019_Jul_20_1606,rev-kura_tap_2blocks,3.0.6,60.08821456
./stimuli_2/tmp/perfect_100_1.wav,100,perfect,1.900582362,,,,,,,,,0,0,0,1,,,,,,,,,,,,,,,"['space', 'space', 'space', 'space', 'space', 'space', 'space', 'space', 'space', 'space', 'space', 'space', 'space', 'space', 'space', 'space']","[0.00035411398857831955, 0.8587230199482292, 1.5104075060226023, 2.1454940589610487, 2.7276121709728613, 3.328886292059906, 3.9775511469924822, 4.544819509028457, 5.110852543031797, 5.694789570989087, 6.294396257959306, 6.917446319013834, 7.528870802023448, 8.128573538037017, 8.745532831992023, 9.36202844104264]",space,0.153152057,BB,1,2019_Jul_20_1606,rev-kura_tap_2blocks,3.0.6,60.08821456
./stimuli_2/tmp/medium_105_4.wav,105,medium,1.882304776,,,,,,,,,0,1,1,28,,,,,,,,,,,,,,,"['space', 'space', 'space', 'space', 'space', 'space', 'space', 'space', 'space', 'space', 'space', 'space', 'space', 'space', 'space', 'space', 'space']","[0.1864868300035596, 1.0193269330775365, 1.5682990769855678, 2.0865487210685387, 2.5974476310657337, 3.136347081977874, 3.7207680110586807, 4.287238982971758, 4.853309530997649, 5.404092526994646, 5.970254215062596, 6.6039805670734495, 7.208793955971487, 7.770565379061736, 8.321389520075172, 8.93583185900934, 10.43705254199449]",space,0.435773498,BB,1,2019_Jul_20_1606,rev-kura_tap_2blocks,3.0.6,60.08821456
./stimuli_2/tmp/weak_100_4.wav,100,weak,1.864315609,,,,,,,,,0,2,2,33,,,,,,,,,,,,,,,"['space', 'space', 'space', 'space', 'space', 'space', 'space', 'space', 'space', 'space', 'space', 'space', 'space', 'space', 'space', 'space']","[0.20871279295533895, 0.9023343479493633, 1.583469338947907, 2.252556746941991, 2.844496401026845, 3.48590183199849, 4.086032024002634, 4.767347913933918, 5.401146763935685, 6.002612435957417, 6.635893004015088, 7.258808936923742, 7.903102852986194, 8.567577496985905, 9.18719065503683, 10.404058821965009]",space,0.702447684,BB,1,2019_Jul_20_1606,rev-kura_tap_2blocks,3.0.6,60.08821456
./stimuli_2/tmp/strong_95_4.wav,95,strong,1.312218866,,,,,,,,,0,3,3,19,,,,,,,,,,,,,,,"['space', 'space', 'space', 'space', 'space', 'space', 'space', 'space', 'space', 'space', 'space', 'space', 'space', 'space']","[0.8358010440133512, 1.5672256099060178, 2.2687140649650246, 2.9024442369118333, 3.585609045927413, 4.352489945013076, 5.002697175019421, 5.68628138594795, 6.4032231899909675, 7.101299537927844, 7.792216958943754, 8.4863875429146, 9.187133771018125, 10.020330618950538]",space,0.411951246,BB,1,2019_Jul_20_1606,rev-kura_tap_2blocks,3.0.6,60.08821456
./stimuli_2/tmp/weak_110_3.wav,110,weak,1.40349511,,,,,,,,,0,4,4,0,,,,,,,,,,,,,,,"['space', 'space', 'space', 'space', 'space', 'space', 'space', 'space', 'space', 'space', 'space', 'space', 'space', 'space', 'space']","[0.20425884902942926, 0.914571596076712, 1.472248528036289, 2.0476983489934355, 2.665055640041828, 3.2987686240812764, 3.9310836819931865, 4.548106310074218, 5.165166986058466, 5.849023628048599, 6.548842214979231, 7.212651561014354, 7.965005528996699, 8.748585253022611, 9.782440663082525]",space,0.436309156,BB,1,2019_Jul_20_1606,rev-kura_tap_2blocks,3.0.6,60.08821456
./stimuli_2/tmp/weak_95_4.wav,95,weak,1.594011427,,,,,,,,,0,5,5,46,,,,,,,,,,,,,,,"['space', 'space', 'space', 'space', 'space', 'space', 'space', 'space', 'space', 'space', 'space', 'space', 'space', 'space']","[0.0007807658985257149, 0.23613859491888434, 0.7288676409516484, 1.3525192309170961, 2.2198386089876294, 2.934394237003289, 3.6700561629841104, 4.453285989002325, 5.902878845925443, 6.6420815049204975, 7.369761180947535, 8.08705408393871, 8.802759559941478, 10.794180126977153]",space,0.435941329,BB,1,2019_Jul_20_1606,rev-kura_tap_2blocks,3.0.6,60.08821456
./stimuli_2/tmp/perfect_100_0.wav,100,perfect,1.342411784,,,,,,,,,0,6,6,3,,,,,,,,,,,,,,,"['space', 'space', 'space', 'space', 'space', 'space', 'space', 'space', 'space', 'space', 'space', 'space', 'space', 'space', 'space', 'space', 'space']","[0.18527788505889475, 0.9359043480362743, 1.5365759000414982, 2.119759412948042, 2.719778200960718, 3.3199979279888794, 3.9262519950279966, 4.4863047449616715, 5.103264039964415, 5.753661273978651, 6.327344981953502, 6.954115584958345, 7.553895659046248, 8.137663946021348, 8.720655214972794, 9.354794058948755, 10.75491321098525]",space,0.493451188,BB,1,2019_Jul_20_1606,rev-kura_tap_2blocks,3.0.6,60.08821456
./stimuli_2/tmp/weak_110_4.wav,110,weak,1.215804675,,,,,,,,,0,7,7,4,,,,,,,,,,,,,,,"['space', 'space', 'space', 'space', 'space', 'space', 'space', 'space', 'space', 'space', 'space', 'space', 'space', 'space']","[0.19375228404533118, 1.1070554750040174, 1.8689453210681677, 2.5343921369640157, 3.4022392129991204, 4.186124818981625, 4.79469433799386, 5.659618695965037, 6.385942146065645, 7.158327830955386, 7.855229309992865, 8.518373838043772, 9.136109121958725, 10.1704528570408]",space,0.260127731,BB,1,2019_Jul_20_1606,rev-kura_tap_2blocks,3.0.6,60.08821456
./stimuli_2/tmp/vweak_100_4.wav,100,veryweak,1.706116022,,,,,,,,,0,8,8,2,,,,,,,,,,,,,,,"['space', 'space', 'space', 'space', 'space', 'space', 'space', 'space', 'space', 'space', 'space', 'space', 'space', 'space']","[0.1505888809915632, 0.9024778089951724, 1.6184306120267138, 2.3697867259616032, 3.116633011959493, 3.920084735029377, 4.652666304027662, 5.369980397983454, 6.052316959947348, 6.812446575961076, 7.469890153966844, 8.13761533901561, 8.934080753009766, 9.85939720494207]",space,0.293575215,BB,1,2019_Jul_20_1606,rev-kura_tap_2blocks,3.0.6,60.08821456
./stimuli_2/tmp/medium_90_4.wav,90,medium,1.418754761,,,,,,,,,0,9,9,39,,,,,,,,,,,,,,,"['space', 'space', 'space', 'space', 'space', 'space', 'space', 'space', 'space', 'space', 'space', 'space', 'space', 'space', 'space']","[0.6422499649925157, 1.2195426309481263, 1.8531289719976485, 2.4705453319475055, 3.102517682942562, 3.759951627929695, 4.386657226947136, 4.987807801924646, 5.620258772978559, 6.262470781919546, 6.8866388369351625, 7.5208603360224515, 8.137726499931887, 8.79694396595005, 9.887526603997685]",space,0.375687739,BB,1,2019_Jul_20_1606,rev-kura_tap_2blocks,3.0.6,60.08821456
./stimuli_2/tmp/medium_95_4.wav,95,medium,1.568937775,,,,,,,,,0,10,10,27,,,,,,,,,,,,,,,"['space', 'space', 'space', 'space', 'space', 'space', 'space', 'space', 'space', 'space', 'space', 'space']","[1.7029454879229888, 2.4266264089383185, 3.1534308060072362, 3.778836979996413, 4.437145940959454, 5.136614794027992, 5.820650685927831, 6.470429437002167, 7.1536733999382704, 7.820458843023516, 8.536518738023005, 9.204425349947996]",space,0.276427344,BB,1,2019_Jul_20_1606,rev-kura_tap_2blocks,3.0.6,60.08821456
./stimuli_2/tmp/perfect_95_1.wav,95,perfect,1.693135068,,,,,,,,,0,11,11,26,,,,,,,,,,,,,,,"['space', 'space', 'space', 'space', 'space', 'space', 'space', 'space', 'space', 'space', 'space', 'space', 'space', 'space', 'space']","[0.2023799770977348, 0.9030297170393169, 1.4864075360819697, 2.170443975017406, 2.809704630053602, 3.5037077330052853, 4.136448563076556, 4.770269128028303, 5.354464723030105, 5.959711158997379, 6.604087214102037, 7.220555516076274, 7.871350802015513, 8.487625004025176, 9.1210927660577]",space,0.266281344,BB,1,2019_Jul_20_1606,rev-kura_tap_2blocks,3.0.6,60.08821456
./stimuli_2/tmp/medium_105_3.wav,105,medium,0.941700764,,,,,,,,,0,12,12,15,,,,,,,,,,,,,,,"['space', 'space', 'space', 'space', 'space', 'space', 'space', 'space', 'space', 'space', 'space', 'space', 'space', 'space', 'space', 'space']","[0.3185635879635811, 1.108520878944546, 1.8195079369470477, 2.518067491007969, 3.152350257965736, 3.6018655919469893, 4.141308455960825, 4.786012285971083, 5.35339818499051, 5.952597158960998, 6.553626501001418, 7.219110478996299, 7.853614436928183, 8.45320239791181, 9.053741698968224, 10.83731968596112]",space,0.459099519,BB,1,2019_Jul_20_1606,rev-kura_tap_2blocks,3.0.6,60.08821456
./stimuli_2/tmp/perfect_110_1.wav,110,perfect,1.960810457,,,,,,,,,0,13,13,17,,,,,,,,,,,,,,,"['space', 'space', 'space', 'space', 'space', 'space', 'space', 'space', 'space', 'space', 'space', 'space', 'space', 'space', 'space', 'space']","[0.16721716907341033, 0.767744527081959, 1.3283190600341186, 1.8696297790156677, 2.3858756590634584, 2.927616695058532, 3.468971299007535, 4.019876713980921, 4.54620551597327, 5.086594118038192, 5.620133390999399, 6.13718160497956, 6.670584729057737, 7.237164093065076, 7.770656411070377, 8.32683219097089]",space,0.301184706,BB,1,2019_Jul_20_1606,rev-kura_tap_2blocks,3.0.6,60.08821456
./stimuli_2/tmp/strong_90_4.wav,90,strong,0.954779733,,,,,,,,,0,14,14,44,,,,,,,,,,,,,,,"['space', 'space', 'space', 'space', 'space', 'space', 'space', 'space', 'space', 'space', 'space', 'space', 'space', 'space', 'space']","[0.20213305100332946, 0.9195665600709617, 1.7852864370215684, 2.4694615290500224, 3.186082703061402, 3.869177512009628, 4.519997772062197, 5.244689128012396, 5.902755520073697, 6.569744269014336, 7.302409086027183, 7.936713019036688, 8.636768438969739, 9.280128856073134, 10.903920300072059]",space,0.391805007,BB,1,2019_Jul_20_1606,rev-kura_tap_2blocks,3.0.6,60.08821456
./stimuli_2/tmp/vweak_90_4.wav,90,veryweak,2.016753122,,,,,,,,,0,15,15,47,,,,,,,,,,,,,,,"['space', 'space', 'space', 'space', 'space', 'space', 'space', 'space', 'space', 'space', 'space', 'space', 'space', 'space', 'space']","[0.1686601371038705, 0.8118696130113676, 1.4191515740239993, 2.0526477050734684, 2.6860444040503353, 3.367130506085232, 4.002558393054642, 4.736451309057884, 5.436769770109095, 6.203417711076327, 6.952763736015186, 7.769742388045415, 8.519694712013006, 9.253835335024633, 10.803908624104224]",space,0.619112534,BB,1,2019_Jul_20_1606,rev-kura_tap_2blocks,3.0.6,60.08821456
./stimuli_2/tmp/weak_95_3.wav,95,weak,1.211244949,,,,,,,,,0,16,16,36,,,,,,,,,,,,,,,"['space', 'space', 'space', 'space', 'space', 'space', 'space', 'space', 'space', 'space', 'space', 'space', 'space', 'space', 'space', 'space']","[0.00034755002707242966, 0.26993679301813245, 0.6258395529584959, 1.3364026009803638, 2.0774247189983726, 2.719510982045904, 3.458110725041479, 4.053069593035616, 4.703462574980222, 5.371942077064887, 6.05304597504437, 6.787503874045797, 7.4374011979671195, 8.103939034976065, 8.83744789706543, 9.920954070053995]",space,0.372792077,BB,1,2019_Jul_20_1606,rev-kura_tap_2blocks,3.0.6,60.08821456
./stimuli_2/tmp/medium_110_3.wav,110,medium,1.261621819,,,,,,,,,0,17,17,11,,,,,,,,,,,,,,,"['space', 'space', 'space', 'space', 'space', 'space', 'space', 'space', 'space', 'space', 'space', 'space', 'space', 'space', 'space', 'space', 'space']","[0.0004480329807847738, 0.7019556980812922, 1.3348192180274054, 1.9692821060307324, 2.556857062038034, 3.169736151001416, 3.769499692018144, 4.391988135059364, 5.019092907081358, 5.618732001981698, 6.219798583071679, 6.908424093038775, 7.503329012077302, 8.136985176010057, 8.73596397403162, 9.425678952015005, 10.687114607077092]",space,0.340290597,BB,1,2019_Jul_20_1606,rev-kura_tap_2blocks,3.0.6,60.08821456
./stimuli_2/tmp/medium_100_4.wav,100,medium,1.110872109,,,,,,,,,0,18,18,35,,,,,,,,,,,,,,,"['space', 'space', 'space', 'space', 'space', 'space', 'space', 'space', 'space', 'space', 'space', 'space', 'space', 'space', 'space', 'space']","[0.20200084405951202, 0.7239768870640546, 1.4350294690812007, 2.090801935060881, 2.736267640022561, 3.385450824047439, 4.0522160090040416, 4.667312298086472, 5.30087734607514, 5.9031480440171435, 6.56986195105128, 7.219332098029554, 7.85280066204723, 8.536887237103656, 9.22529721306637, 10.508277690038085]",space,0.468292854,BB,1,2019_Jul_20_1606,rev-kura_tap_2blocks,3.0.6,60.08821456
./stimuli_2/tmp/weak_90_4.wav,90,weak,2.068573348,,,,,,,,,0,19,19,16,,,,,,,,,,,,,,,"['space', 'space', 'space', 'space', 'space', 'space', 'space', 'space', 'space', 'space', 'space', 'space', 'space', 'space', 'space', 'space']","[0.00044925499241799116, 0.6027154270559549, 1.2852094270056114, 1.869617470074445, 2.4909097410272807, 3.152306018047966, 3.835864066029899, 4.489024729002267, 5.169046126073226, 5.802446761983447, 6.436717770062387, 7.07732121902518, 7.787303147022612, 8.525505554047413, 9.251282211043872, 10.720714692026377]",space,0.453149922,BB,1,2019_Jul_20_1606,rev-kura_tap_2blocks,3.0.6,60.08821456
./stimuli_2/tmp/weak_90_3.wav,90,weak,1.336733562,,,,,,,,,0,20,20,29,,,,,,,,,,,,,,,"['space', 'space', 'space', 'space', 'space', 'space', 'space', 'space', 'space', 'space', 'space', 'space', 'space', 'space', 'space', 'space', 'space']","[0.0005560549907386303, 0.5856788359815255, 1.0845880879787728, 1.7193385279970244, 2.3356634880183265, 3.0025133149465546, 3.685949931968935, 4.3197408959968016, 5.068651988985948, 5.718762613018043, 6.361108440905809, 7.085919686942361, 7.7525225839344785, 8.42034282698296, 9.08748619898688, 9.960113401990384, 10.686822759918869]",space,0.42714723,BB,1,2019_Jul_20_1606,rev-kura_tap_2blocks,3.0.6,60.08821456
./stimuli_2/tmp/vweak_100_3.wav,100,veryweak,0.847269695,,,,,,,,,0,21,21,5,,,,,,,,,,,,,,,"['space', 'space', 'space', 'space', 'space', 'space', 'space', 'space', 'space', 'space', 'space', 'space', 'space', 'space', 'space', 'space']","[0.0011531580239534378, 0.73402668396011, 1.657502401038073, 2.4200194189324975, 3.0412811619462445, 3.6862310499418527, 4.253019677940756, 4.869891474954784, 5.485919898957945, 6.157853318960406, 6.819722641026601, 7.558247404987924, 8.203574465936981, 8.886518092011102, 9.804289330961183, 10.503815780975856]",space,0.257112336,BB,1,2019_Jul_20_1606,rev-kura_tap_2blocks,3.0.6,60.08821456
./stimuli_2/tmp/weak_100_3.wav,100,weak,0.839761643,,,,,,,,,0,22,22,21,,,,,,,,,,,,,,,"['space', 'space', 'space', 'space', 'space', 'space', 'space', 'space', 'space', 'space', 'space', 'space', 'space', 'space', 'space', 'space', 'space']","[0.33521974505856633, 1.2355502729769796, 1.9182688869768754, 2.485789200058207, 3.0782561929663643, 3.7360300179570913, 4.319773894036189, 4.836409296956845, 5.436410240945406, 6.024341115029529, 6.636610627057962, 7.185926223988645, 7.719892801018432, 8.286144286976196, 8.886414502048865, 9.870580476010218, 10.570173820946366]",space,0.27921064,BB,1,2019_Jul_20_1606,rev-kura_tap_2blocks,3.0.6,60.08821456
./stimuli_2/tmp/medium_90_3.wav,90,medium,2.469674326,,,,,,,,,0,23,23,43,,,,,,,,,,,,,,,"['space', 'space', 'space', 'space', 'space', 'space', 'space', 'space', 'space', 'space', 'space', 'space', 'space', 'space', 'space', 'space']","[0.38884390995372087, 1.0193545300280675, 1.6363500079605728, 2.3515036930330098, 2.9606726670172065, 3.68619920196943, 4.3862800899660215, 5.086522452998906, 5.75411187694408, 6.380021951976232, 7.0048119380371645, 7.653251420939341, 8.288017967017367, 8.937827193993144, 9.821626296034083, 10.587674175039865]",space,0.376274666,BB,1,2019_Jul_20_1606,rev-kura_tap_2blocks,3.0.6,60.08821456
./stimuli_2/tmp/strong_105_4.wav,105,strong,1.061921396,,,,,,,,,0,24,24,23,,,,,,,,,,,,,,,"['space', 'space', 'space', 'space', 'space', 'space', 'space', 'space', 'space', 'space', 'space', 'space', 'space', 'space', 'space', 'space', 'space', 'space', 'space']","[0.00037399004213511944, 0.7358324790839106, 1.3036105300998315, 1.8688238830072805, 2.4522427869960666, 3.0778480850858614, 3.620330117060803, 4.16977921500802, 4.719968665041961, 5.2875759419985116, 5.836640886031091, 6.403530432027765, 7.018652879050933, 7.520625314093195, 8.127543735085055, 8.70439869002439, 9.287118350039236, 9.904604668030515, 10.504054107004777]",space,0.285850183,BB,1,2019_Jul_20_1606,rev-kura_tap_2blocks,3.0.6,60.08821456
./stimuli_2/tmp/strong_110_4.wav,110,strong,1.993547288,,,,,,,,,0,25,25,9,,,,,,,,,,,,,,,"['space', 'space', 'space', 'space', 'space', 'space', 'space', 'space', 'space', 'space', 'space', 'space', 'space', 'space', 'space', 'space', 'space', 'space', 'space']","[0.0008373409509658813, 0.6519842689158395, 1.2526154608931392, 1.8367206449620426, 2.419480432989076, 3.020174545934424, 3.6195890359813347, 4.2201320169260725, 4.8033768109744415, 5.387042844900861, 6.019628971000202, 6.603459388948977, 7.203747456893325, 7.820755776949227, 8.45380742289126, 9.038195678964257, 9.820522408932447, 10.78681451792363]",space,0.369233221,BB,1,2019_Jul_20_1606,rev-kura_tap_2blocks,3.0.6,60.08821456
./stimuli_2/tmp/medium_110_4.wav,110,medium,1.241259357,,,,,,,,,0,26,26,8,,,,,,,,,,,,,,,"['space', 'space', 'space', 'space', 'space', 'space', 'space', 'space', 'space', 'space', 'space', 'space', 'space', 'space', 'space', 'space', 'space', 'space']","[0.0003851020010188222, 0.4502022579545155, 0.9023730549961329, 1.451867125928402, 2.035732029005885, 2.5360871700104326, 3.1357634000014514, 3.686130545916967, 4.202891155029647, 4.760845612967387, 5.336328233010136, 5.903534936020151, 6.452956091961823, 7.03642800799571, 7.652475319919176, 8.22605198493693, 8.801823724992573, 9.436568001983687]",space,0.308081284,BB,1,2019_Jul_20_1606,rev-kura_tap_2blocks,3.0.6,60.08821456
./stimuli_2/tmp/vweak_105_4.wav,105,veryweak,1.632795828,,,,,,,,,0,27,27,12,,,,,,,,,,,,,,,"['space', 'space', 'space', 'space', 'space', 'space', 'space', 'space', 'space', 'space', 'space', 'space', 'space', 'space', 'space', 'space', 'space']","[0.20247692009434104, 0.6527154720388353, 1.1694402140565217, 1.8521649109898135, 2.444229842047207, 2.9869946390390396, 3.574438563082367, 4.18713898700662, 4.73704739799723, 5.32060477999039, 5.9037716230377555, 6.5042232680134475, 7.1213115620194, 7.753478922997601, 8.325709196040407, 8.93746338202618, 9.571134678088129]",space,0.000369776,BB,1,2019_Jul_20_1606,rev-kura_tap_2blocks,3.0.6,60.08821456
./stimuli_2/tmp/medium_95_3.wav,95,medium,0.978788409,,,,,,,,,0,28,28,18,,,,,,,,,,,,,,,"['space', 'space', 'space', 'space', 'space', 'space', 'space', 'space', 'space', 'space', 'space', 'space', 'space', 'space', 'space']","[0.2941795689985156, 1.161031443043612, 1.8495656220475212, 2.5274188180919737, 3.1605989550007507, 3.7945893011055887, 4.444697977043688, 5.111514621064998, 5.678609118098393, 6.34525678306818, 6.954514038050547, 7.629012023098767, 8.262326012016274, 8.845467537059449, 9.494922393001616]",space,0.002277953,BB,1,2019_Jul_20_1606,rev-kura_tap_2blocks,3.0.6,60.08821456
./stimuli_2/tmp/strong_95_3.wav,95,strong,2.368023632,,,,,,,,,0,29,29,24,,,,,,,,,,,,,,,"['space', 'space', 'space', 'space', 'space', 'space', 'space', 'space', 'space', 'space', 'space', 'space', 'space', 'space', 'space', 'space']","[0.2365119979949668, 0.7191278029931709, 1.3360989540815353, 2.019663303042762, 2.6200113950762898, 3.2364960520062596, 3.886125121032819, 4.519242734066211, 5.1206255400320515, 5.753152213059366, 6.403113943058997, 7.019869946059771, 7.619828767026775, 8.244005107088014, 8.887585004093125, 10.020012423046865]",space,0.452692062,BB,1,2019_Jul_20_1606,rev-kura_tap_2blocks,3.0.6,60.08821456
./stimuli_2/tmp/strong_105_3.wav,105,strong,1.284684916,,,,,,,,,0,30,30,31,,,,,,,,,,,,,,,"['space', 'space', 'space', 'space', 'space', 'space', 'space', 'space', 'space', 'space', 'space', 'space', 'space', 'space', 'space', 'space', 'space']","[0.20278531801886857, 0.819596546003595, 1.393094782019034, 1.9201105360407382, 2.5202500650193542, 3.0871699639828876, 3.620149801019579, 4.20375154807698, 4.76987880805973, 5.375386773026548, 5.92023757705465, 6.47001219401136, 7.586552888969891, 8.203822690993547, 8.7706745370524, 9.354034768999554, 10.30541703698691]",space,0.386386487,BB,1,2019_Jul_20_1606,rev-kura_tap_2blocks,3.0.6,60.08821456
./stimuli_2/tmp/perfect_95_0.wav,95,perfect,2.010546628,,,,,,,,,0,31,31,30,,,,,,,,,,,,,,,"['space', 'space', 'space', 'space', 'space', 'space', 'space', 'space', 'space', 'space', 'space', 'space', 'space', 'space', 'space', 'space', 'space']","[0.00046095799189060926, 0.4682209079619497, 0.899514497956261, 1.5520697839092463, 2.2023188769817352, 2.852055120980367, 3.502558581996709, 4.069910904974677, 4.717956452979706, 5.286177039961331, 5.95348359295167, 6.620034547988325, 7.253852462978102, 7.884738937951624, 8.537126741954125, 9.186775109963492, 9.870613939943723]",space,0.318992871,BB,1,2019_Jul_20_1606,rev-kura_tap_2blocks,3.0.6,60.08821456
./stimuli_2/tmp/vweak_110_3.wav,110,veryweak,1.949351414,,,,,,,,,0,32,32,25,,,,,,,,,,,,,,,"['space', 'space', 'space', 'space', 'space', 'space', 'space', 'space', 'space', 'space', 'space', 'space', 'space', 'space', 'space']","[0.0004669749177992344, 0.5188005419913679, 1.3689420350128785, 2.035973988007754, 2.653237576945685, 3.491147638997063, 4.167168530984782, 4.859709248994477, 5.70357522694394, 6.302787519991398, 7.170173386926763, 8.026066899998114, 8.703839345020242, 9.271187421982177, 10.004202240961604]",space,0.26413342,BB,1,2019_Jul_20_1606,rev-kura_tap_2blocks,3.0.6,60.08821456
./stimuli_2/tmp/medium_100_3.wav,100,medium,0.922751793,,,,,,,,,0,33,33,45,,,,,,,,,,,,,,,"['space', 'space', 'space', 'space', 'space', 'space', 'space', 'space', 'space', 'space', 'space', 'space', 'space', 'space', 'space', 'space', 'space', 'space', 'space']","[0.35255398403387517, 0.9119373660068959, 1.3359675770625472, 1.8026779580395669, 2.308447865070775, 2.835385582060553, 3.3756102210609242, 3.9021747100632638, 4.362736226990819, 4.903578730067238, 5.4187885749852285, 5.85305715398863, 6.536810348043218, 7.070424563018605, 7.588008102029562, 8.12027738802135, 8.603325836011209, 9.16986192506738, 10.52054436900653]",space,0.240259454,BB,1,2019_Jul_20_1606,rev-kura_tap_2blocks,3.0.6,60.08821456
./stimuli_2/tmp/strong_90_3.wav,90,strong,1.624412594,,,,,,,,,0,34,34,37,,,,,,,,,,,,,,,"['space', 'space', 'space', 'space', 'space', 'space', 'space', 'space', 'space', 'space', 'space', 'space', 'space', 'space', 'space']","[0.20198194007389247, 1.0024976960849017, 1.869550707982853, 2.5200393419945613, 3.220130432047881, 3.9361214670352638, 4.60338025202509, 5.286848710034974, 5.970284680020995, 6.663821593043394, 7.4869411420077085, 8.093711320078, 8.80217265104875, 9.47096763306763, 10.937750452081673]",space,0.491662609,BB,1,2019_Jul_20_1606,rev-kura_tap_2blocks,3.0.6,60.08821456
./stimuli_2/tmp/perfect_105_1.wav,105,perfect,1.959889081,,,,,,,,,0,35,35,13,,,,,,,,,,,,,,,"['space', 'space', 'space', 'space', 'space', 'space', 'space', 'space', 'space', 'space', 'space', 'space', 'space', 'space', 'space', 'space', 'space', 'space', 'space', 'space']","[0.0004599969834089279, 0.13577047805301845, 0.785834640963003, 1.3859558160183951, 2.0029251100495458, 2.569876427995041, 3.173896391992457, 3.7534901660401374, 4.320284976041876, 4.887196316965856, 5.45080297102686, 6.037263142992742, 6.623143402975984, 7.2026684019947425, 7.770109341945499, 8.30334295402281, 8.878674656967632, 9.869830440031365, 10.487339781946503]",space,0.286180213,BB,1,2019_Jul_20_1606,rev-kura_tap_2blocks,3.0.6,60.08821456
./stimuli_2/tmp/vweak_95_4.wav,95,veryweak,1.292204307,,,,,,,,,0,36,36,22,,,,,,,,,,,,,,,"['space', 'space', 'space', 'space', 'space', 'space', 'space', 'space', 'space', 'space', 'space', 'space', 'space', 'space', 'space', 'space', 'space', 'space']","[0.21919174795038998, 0.5096123799448833, 0.7274400179740041, 1.203461533994414, 1.7533123609609902, 2.354151785024442, 2.9920903239399195, 3.6370281300041825, 4.237016414990649, 4.870094122015871, 5.491949051036499, 6.103562116040848, 6.669858393957838, 7.236909852945246, 7.853970316937193, 8.47124469699338, 9.088071977021173, 9.920668413979001]",space,0.302537136,BB,1,2019_Jul_20_1606,rev-kura_tap_2blocks,3.0.6,60.08821456
./stimuli_2/tmp/weak_105_3.wav,105,weak,1.878567123,,,,,,,,,0,37,37,49,,,,,,,,,,,,,,,"['space', 'space', 'space', 'space', 'space', 'space', 'space', 'space', 'space', 'space', 'space', 'space', 'space', 'space', 'space', 'space']","[0.00037124601658433676, 0.5355124429333955, 1.1185935649555176, 1.7862808699719608, 2.385998919024132, 3.124493115930818, 3.819066595984623, 4.491799238952808, 5.201252950006165, 5.871723767952062, 6.587403449928388, 7.286714168032631, 7.967749682022259, 8.619446689961478, 9.320266215945594, 10.168607549974695]",space,0.313606363,BB,1,2019_Jul_20_1606,rev-kura_tap_2blocks,3.0.6,60.08821456
./stimuli_2/tmp/weak_105_4.wav,105,weak,2.379793212,,,,,,,,,0,38,38,40,,,,,,,,,,,,,,,"['space', 'space', 'space', 'space', 'space', 'space', 'space', 'space', 'space', 'space', 'space', 'space', 'space', 'space', 'space', 'space', 'space', 'space']","[0.0007024360820651054, 0.2522932320134714, 0.9861232390394434, 1.6335857230005786, 2.2412141470704228, 2.952501418069005, 3.5517645850777626, 4.235899219056591, 4.828134187031537, 5.617394077009521, 6.220358934020624, 6.820255113067105, 7.386208250070922, 7.986964856041595, 8.586906563024968, 9.203669417067431, 10.001647151075304]",space,0.293173436,BB,1,2019_Jul_20_1606,rev-kura_tap_2blocks,3.0.6,60.08821456
./stimuli_2/tmp/perfect_90_0.wav,90,perfect,1.847135014,,,,,,,,,0,39,39,34,,,,,,,,,,,,,,,"['space', 'space', 'space', 'space', 'space', 'space', 'space', 'space', 'space', 'space', 'space', 'space', 'space', 'space', 'space']","[0.4859064179472625, 1.0525350759271532, 1.703183486009948, 2.4179273219779134, 3.0533532690024003, 3.7294535900000483, 4.4177069059805945, 5.052708607981913, 5.687274138908833, 6.370663936017081, 7.036705574020743, 7.703901175991632, 8.327166924951598, 8.984800577978604, 9.853908179909922]",space,0.019723145,BB,1,2019_Jul_20_1606,rev-kura_tap_2blocks,3.0.6,60.08821456
./stimuli_2/tmp/vweak_105_3.wav,105,veryweak,1.505363686,,,,,,,,,0,40,40,7,,,,,,,,,,,,,,,"['space', 'space', 'space', 'space', 'space', 'space', 'space', 'space', 'space', 'space', 'space', 'space', 'space', 'space', 'space', 'space', 'space']","[0.20263958803843707, 0.8686253620544448, 1.3258172700880095, 1.8193291140487418, 2.4018282999750227, 3.019184326985851, 3.691737561021, 4.302930237026885, 4.953094462980516, 5.51981303805951, 6.243403349071741, 6.871211905032396, 7.503141934983432, 8.119872677023523, 8.689112590043806, 9.336843330063857, 10.837670517037623]",space,0.491754851,BB,1,2019_Jul_20_1606,rev-kura_tap_2blocks,3.0.6,60.08821456
./stimuli_2/tmp/strong_100_4.wav,100,strong,1.339819873,,,,,,,,,0,41,41,48,,,,,,,,,,,,,,,"['space', 'space', 'space', 'space', 'space', 'space', 'space', 'space', 'space', 'space', 'space', 'space', 'space', 'space', 'space', 'space', 'space']","[0.15243633708450943, 0.6359221930615604, 1.2026109320577234, 1.802575876004994, 2.4525984310312197, 3.0698567560175434, 3.6860614100005478, 4.303812014055438, 4.886022065067664, 5.486621886026114, 6.070264814072289, 6.737011642078869, 7.351166527019814, 7.98752201301977, 8.62662164203357, 9.221010014996864, 10.870871254010126]",space,0.336703212,BB,1,2019_Jul_20_1606,rev-kura_tap_2blocks,3.0.6,60.08821456
./stimuli_2/tmp/vweak_110_4.wav,110,veryweak,1.40560941,,,,,,,,,0,42,42,20,,,,,,,,,,,,,,,"['space', 'space', 'space', 'space', 'space', 'space', 'space', 'space', 'space', 'space', 'space', 'space', 'space', 'space', 'space', 'space', 'space', 'space', 'space']","[0.169341137050651, 0.8128187140682712, 1.2362660630606115, 1.836690737050958, 2.4032330319751054, 3.0037228260189295, 3.5368228669976816, 4.053347403067164, 4.520383549039252, 5.003135145059787, 5.570295169018209, 6.153929193038493, 6.704544707085006, 7.22529099707026, 7.7373802630463615, 8.23725003306754, 8.760039129992947, 9.287786085042171, 10.12133657198865]",space,1.330698021,BB,1,2019_Jul_20_1606,rev-kura_tap_2blocks,3.0.6,60.08821456
./stimuli_2/tmp/vweak_95_3.wav,95,veryweak,2.160580058,,,,,,,,,0,43,43,32,,,,,,,,,,,,,,,"['space', 'space', 'space', 'space', 'space', 'space', 'space', 'space', 'space', 'space', 'space', 'space', 'space', 'space', 'space', 'space', 'space', 'space']","[0.0006738250376656651, 0.5859796199947596, 1.1364412419497967, 1.7410888669546694, 2.287024733959697, 2.9077564999461174, 3.520545806037262, 4.069739024038427, 4.7934009389718994, 5.370226545026526, 5.970289965043776, 6.569715852034278, 7.187104120966978, 7.804401344037615, 8.392128361971118, 8.920240210019983, 9.77061921893619, 10.855665658949874]",space,0.474537159,BB,1,2019_Jul_20_1606,rev-kura_tap_2blocks,3.0.6,60.08821456
./stimuli_2/tmp/strong_110_3.wav,110,strong,2.128797508,,,,,,,,,0,44,44,6,,,,,,,,,,,,,,,"['space', 'space', 'space', 'space', 'space', 'space', 'space', 'space', 'space', 'space', 'space', 'space', 'space', 'space', 'space', 'space', 'space', 'space', 'space']","[0.15189386706333607, 0.6026691340375692, 1.1028727400116622, 1.5861308539751917, 2.152468007057905, 2.6687480820110068, 3.1860235730418935, 3.7073615880217403, 4.236451674019918, 4.759306577034295, 5.236875038011931, 5.802814412047155, 6.353027158998884, 6.875977004063316, 7.386877326061949, 7.886421766015701, 8.410582827054895, 8.970024609006941, 9.754746505059302]",space,0.136704463,BB,1,2019_Jul_20_1606,rev-kura_tap_2blocks,3.0.6,60.08821456
./stimuli_2/tmp/perfect_105_0.wav,105,perfect,2.471825489,,,,,,,,,0,45,45,10,,,,,,,,,,,,,,,"['space', 'space', 'space', 'space', 'space', 'space', 'space', 'space', 'space', 'space', 'space', 'space', 'space', 'space', 'space', 'space', 'space', 'space']","[0.0003410540521144867, 0.22736039804294705, 0.7688322579488158, 1.3527515910100192, 1.9860576019855216, 2.5029332790290937, 3.1195730400504544, 3.702611615997739, 4.308169833966531, 4.853283765958622, 5.403349012020044, 5.9528668619459495, 6.519847000017762, 7.120498250937089, 7.709881515009329, 8.270197242032737, 8.853233349043876, 9.736301413038746]",space,0.444711033,BB,1,2019_Jul_20_1606,rev-kura_tap_2blocks,3.0.6,60.08821456
./stimuli_2/tmp/strong_100_3.wav,100,strong,1.465470035,,,,,,,,,0,46,46,41,,,,,,,,,,,,,,,"['space', 'space', 'space', 'space', 'space', 'space', 'space', 'space', 'space', 'space', 'space', 'space', 'space', 'space', 'space', 'space']","[0.0003427179763093591, 0.5191003079526126, 1.26854356599506, 1.9582978109829128, 2.586865540011786, 3.2697915519820526, 3.9198718229308724, 4.602488485979848, 5.286584671004675, 5.876551412977278, 6.536355298943818, 7.186873502912931, 7.853739882004447, 8.487703106948175, 9.137258469942026, 10.053177669993602]",space,0.319368064,BB,1,2019_Jul_20_1606,rev-kura_tap_2blocks,3.0.6,60.08821456
./stimuli_2/tmp/vweak_90_3.wav,90,veryweak,0.809862107,,,,,,,,,0,47,47,42,,,,,,,,,,,,,,,"['space', 'space', 'space', 'space', 'space', 'space', 'space', 'space', 'space', 'space', 'space', 'space', 'space', 'space', 'space', 'space']","[0.30901700898539275, 0.7358555319951847, 1.3183136390289292, 1.9414520430145785, 2.552462631952949, 3.202994293998927, 3.8268984430469573, 4.452083996962756, 5.102782272966579, 5.736609796993434, 6.468077310943045, 7.136599460034631, 7.769683814956807, 8.404036276042461, 9.002966549945995, 10.053809061995707]",space,0.308304612,BB,1,2019_Jul_20_1606,rev-kura_tap_2blocks,3.0.6,60.08821456
./stimuli_2/tmp/perfect_90_1.wav,90,perfect,0.943708829,,,,,,,,,0,48,48,38,,,,,,,,,,,,,,,"['space', 'space', 'space', 'space', 'space', 'space', 'space', 'space', 'space', 'space', 'space', 'space', 'space', 'space', 'space']","[0.26913131203036755, 0.9363589669810608, 1.6413812240352854, 2.2526953240158036, 2.9361889619613066, 3.574640823993832, 4.23646813002415, 4.853212121990509, 5.469766128924675, 6.1194097170373425, 6.82057362399064, 7.469983014976606, 8.094350088969804, 8.687099884962663, 9.351525450008921]",space,0.323100803,BB,1,2019_Jul_20_1606,rev-kura_tap_2blocks,3.0.6,60.08821456
./stimuli_2/tmp/perfect_110_0.wav,110,perfect,1.676060829,,,,,,,,,0,49,49,14,,,,,,,,,,,,,,,"['space', 'space', 'space', 'space', 'space', 'space', 'space', 'space', 'space', 'space', 'space', 'space', 'space', 'space', 'space', 'space', 'space']","[0.18506813002750278, 0.8691405539866537, 1.368823554017581, 1.9190274439752102, 2.435098099987954, 2.9863220669794828, 3.5526468750322238, 4.108555258950219, 4.63527540396899, 5.193977857939899, 5.7359310479369015, 6.268396514002234, 6.808075845008716, 7.353057974949479, 7.919909995049238, 8.452783346991055, 9.739645330002531]",space,0.368149319,BB,1,2019_Jul_20_1606,rev-kura_tap_2blocks,3.0.6,60.08821456