sndfile,tempo,cond,delay,trials_practice.thisRepN,trials_practice.thisTrialN,trials_practice.thisN,trials_practice.thisIndex,trials.thisRepN,trials.thisTrialN,trials.thisN,trials.thisIndex,trials_2.thisRepN,trials_2.thisTrialN,trials_2.thisN,trials_2.thisIndex,key_resp_2.keys,key_resp_2.rt,key_resp_4.keys,key_resp_4.rt,key_resp_3.keys,key_resp_3.rt,key_resp_7.keys,key_resp_7.rt,key_resp_9.keys,key_resp_9.rt,key_resp_5.keys,key_resp_5.rt,key_resp_8.keys,key_resp_8.rt,key_resp_10.keys,key_resp_10.rt,key_resp_6.keys,key_resp_6.rt,participant,session,date,expName,psychopyVersion,frameRate,
,,,,,,,,,,,,,,,,space,3.1035474500386044,,,,,,,,,,,,,,,,,CC,001,2019_Jul_22_1529,rev-kura_tap_2blocks,3.0.6,59.95861188142227,
./stimuli_1/tmp/medium_110_1.wav,110,medium,1.222685394,0,0,0,4,,,,,,,,,,,"['space', 'space', 'space', 'space', 'space', 'space', 'space', 'space', 'space', 'space', 'space', 'space']","[0.7182449030224234, 1.1026206410024315, 1.6857413729885593, 2.2909245329210535, 2.9024939039954916, 3.4361460199579597, 4.0193510099779814, 4.685379322967492, 5.252632832969539, 5.769800902926363, 6.3689586479449645, 6.93709378701169]",space,1.6695428679231554,,,,,,,,,,,,,CC,001,2019_Jul_22_1529,rev-kura_tap_2blocks,3.0.6,59.95861188142227,
./stimuli_1/tmp/vweak_105_1.wav,105,veryweak,1.91267155,0,1,1,3,,,,,,,,,,,"['space', 'space', 'space', 'space', 'space', 'space', 'space', 'space', 'space', 'space', 'space', 'space', 'space', 'space', 'space', 'space', 'space']","[0.693259458988905, 1.2269005050184205, 1.8175025810487568, 2.4264350229641423, 3.0267640569945797, 3.627138306037523, 4.210268558003008, 4.782583486987278, 5.377932126051746, 5.9599089690018445, 6.561301234993152, 7.192587640020065, 7.777535208966583, 8.318992945016362, 8.977235861006193, 9.59502940904349, 10.111645066994242]",space,3.7029306470649317,,,,,,,,,,,,,CC,001,2019_Jul_22_1529,rev-kura_tap_2blocks,3.0.6,59.95861188142227,
./stimuli_1/tmp/strong_90_1.wav,90,strong,1.013023596,0,2,2,1,,,,,,,,,,,"['space', 'space', 'space', 'space', 'space', 'space', 'space', 'space', 'space', 'space', 'space', 'space', 'space', 'space']","[0.9690051819197834, 1.719863003003411, 2.4199048849986866, 3.124432113021612, 3.8171946259681135, 4.536670182016678, 5.236260276986286, 5.9035551969427615, 6.603413662989624, 7.337047936976887, 8.053029347909614, 8.770765371969901, 9.453889445983805, 10.158592527965084]",space,1.3701962650520727,,,,,,,,,,,,,CC,001,2019_Jul_22_1529,rev-kura_tap_2blocks,3.0.6,59.95861188142227,
./stimuli_1/tmp/medium_110_1.wav,110,medium,0.970866786,0,3,3,2,,,,,,,,,,,"['space', 'space', 'space', 'space', 'space', 'space', 'space', 'space', 'space', 'space', 'space', 'space', 'space', 'space', 'space', 'space', 'space']","[0.6180735330563039, 1.118730058078654, 1.7023436900926754, 2.269874816061929, 2.941804234054871, 3.4867035950301215, 4.070597666082904, 4.669854168081656, 5.286741242045537, 5.8756199680501595, 6.453543657087721, 7.002998172072694, 7.587197974091396, 8.169750795001164, 8.77083298098296, 9.32017381908372, 9.893051833030768]",space,2.4087732010520995,,,,,,,,,,,,,CC,001,2019_Jul_22_1529,rev-kura_tap_2blocks,3.0.6,59.95861188142227,
./stimuli_1/tmp/medium_100_1.wav,100,medium,1.797198505,0,4,4,0,,,,,,,,,,,"['space', 'space', 'space', 'space', 'space', 'space', 'space', 'space', 'space', 'space', 'space', 'space', 'space', 'space', 'space', 'space']","[0.4855512030189857, 0.9702353189932182, 1.8363221110776067, 2.48598189803306, 3.0863478570245206, 3.6861689010402188, 4.40386111009866, 5.054031435051002, 5.687048546038568, 6.325420598033816, 6.987253923085518, 7.670414547086693, 8.303523486014456, 8.986812403076328, 9.604030615999363, 10.242621122044511]",space,1.3019641400314867,,,,,,,,,,,,,CC,001,2019_Jul_22_1529,rev-kura_tap_2blocks,3.0.6,59.95861188142227,
,,,,,,,,,,,,,,,,,,,,,,space,11.18861138902139,,,,,,,,,,,CC,001,2019_Jul_22_1529,rev-kura_tap_2blocks,3.0.6,59.95861188142227,
./stimuli_1/tmp/strong_110_1.wav,110,strong,2.342405954917332,,,,,0,0,0,8,,,,,,,,,,,,,"['space', 'space', 'space', 'space', 'space', 'space', 'space', 'space', 'space', 'space', 'space', 'space', 'space', 'space', 'space', 'space', 'space']","[0.6430260359775275, 1.2027537189424038, 1.7700426819501445, 2.302989825955592, 2.868828376987949, 3.4531327970325947, 4.036706060986035, 4.624892933992669, 5.219766761991195, 5.83677382604219, 6.403075585025363, 6.970455246977508, 7.560248974012211, 8.119938649004325, 8.701863661990501, 9.286700073978864, 9.871248262934387]",space,1.2827647820813581,,,,,,,CC,001,2019_Jul_22_1529,rev-kura_tap_2blocks,3.0.6,59.95861188142227,
./stimuli_1/tmp/medium_110_1.wav,110,medium,1.6223651347148935,,,,,0,1,1,10,,,,,,,,,,,,,"['space', 'space', 'space', 'space', 'space', 'space', 'space', 'space', 'space', 'space', 'space', 'space', 'space', 'space', 'space', 'space', 'space']","[0.6529183209640905, 1.1752960269805044, 1.7200700989924371, 2.286182302981615, 2.902364991954528, 3.487059214967303, 4.103721249033697, 4.669804470031522, 5.29215623694472, 5.88614138297271, 6.486219601938501, 7.053479591966607, 7.637286492041312, 8.187610495951958, 8.773109870962799, 9.286516697960906, 9.903826058027335]",space,1.1003435180755332,,,,,,,CC,001,2019_Jul_22_1529,rev-kura_tap_2blocks,3.0.6,59.95861188142227,
./stimuli_1/tmp/weak_100_2.wav,100,weak,0.9744812486321696,,,,,0,2,2,20,,,,,,,,,,,,,"['space', 'space', 'space', 'space', 'space', 'space', 'space', 'space', 'space', 'space', 'space', 'space', 'space', 'space', 'space', 'space']","[0.6333518329774961, 1.4161683139391243, 2.0525774699635804, 2.569238999974914, 3.1238517219899222, 3.8165593480225652, 4.452068559010513, 5.069476083968766, 5.6929318780312315, 6.286586040980183, 6.853230074979365, 7.469269377994351, 8.06925835495349, 8.75313029694371, 9.378895875997841, 10.003154571983032]",space,0.88575908401981,,,,,,,CC,001,2019_Jul_22_1529,rev-kura_tap_2blocks,3.0.6,59.95861188142227,
./stimuli_1/tmp/strong_110_2.wav,110,strong,1.9369911731854192,,,,,0,3,3,6,,,,,,,,,,,,,"['space', 'space', 'space', 'space', 'space', 'space', 'space', 'space', 'space', 'space', 'space', 'space', 'space', 'space', 'space', 'space', 'space']","[0.2190584670752287, 0.7690201160730794, 1.66941711504478, 2.253243192099035, 2.836171045084484, 3.4198642930714414, 4.042761399061419, 4.669732425012626, 5.2529158210381866, 5.83647015504539, 6.392404761048965, 6.969733735080808, 7.560862968093716, 8.187426784075797, 8.77079447999131, 9.336823141085915, 9.90421685599722]",space,1.2029947829432786,,,,,,,CC,001,2019_Jul_22_1529,rev-kura_tap_2blocks,3.0.6,59.95861188142227,
./stimuli_1/tmp/medium_105_1.wav,105,medium,1.6663985327680324,,,,,0,4,4,21,,,,,,,,,,,,,"['space', 'space', 'space', 'space', 'space', 'space', 'space', 'space', 'space', 'space', 'space', 'space', 'space', 'space', 'space', 'space', 'space', 'space']","[0.26955293596256524, 0.7191267739981413, 1.2525775480316952, 1.8196814359398559, 2.400672595947981, 3.016451496980153, 3.5405653909547254, 4.103479026001878, 4.686451597022824, 5.241893443046138, 5.8206221599830315, 6.384773064986803, 6.9869901379570365, 7.61960937094409, 8.187082406016998, 8.756584367947653, 9.302821504999883, 9.887086911010556]",space,0.9872567229904234,,,,,,,CC,001,2019_Jul_22_1529,rev-kura_tap_2blocks,3.0.6,59.95861188142227,
./stimuli_1/tmp/vweak_100_2.wav,100,veryweak,0.9843923106260049,,,,,0,5,5,5,,,,,,,,,,,,,"['space', 'space', 'space', 'space', 'space', 'space', 'space', 'space', 'space', 'space', 'space', 'space', 'space', 'space', 'space', 'space']","[0.28669055993668735, 0.8030065950006247, 1.4034341030055657, 2.052616538014263, 2.7511124949669465, 3.3871850919676945, 3.987078579957597, 4.5883185809943825, 5.204122980008833, 5.854395185946487, 6.504444062942639, 7.136755882995203, 7.805634496035054, 8.404822255950421, 9.021397161995992, 9.60475008096546]",space,0.8851580639602616,,,,,,,CC,001,2019_Jul_22_1529,rev-kura_tap_2blocks,3.0.6,59.95861188142227,
./stimuli_1/tmp/perfect_95_0.wav,95,perfect,1.4400885785760469,,,,,0,6,6,26,,,,,,,,,,,,,"['space', 'space', 'space', 'space', 'space', 'space', 'space', 'space', 'space', 'space', 'space', 'space', 'space', 'space', 'space', 'space']","[0.537772172014229, 1.0528027639957145, 1.6200613860273734, 2.202726264949888, 2.853178655030206, 3.493086608010344, 4.1031772289425135, 4.753495111945085, 5.370799017022364, 5.987076628021896, 6.620512285036966, 7.255104179028422, 7.870801409939304, 8.508982519968413, 9.103665807051584, 9.770607494050637]",space,0.7755944369127974,,,,,,,CC,001,2019_Jul_22_1529,rev-kura_tap_2blocks,3.0.6,59.95861188142227,
./stimuli_1/tmp/weak_95_2.wav,95,weak,1.3391653351857111,,,,,0,7,7,38,,,,,,,,,,,,,"['space', 'space', 'space', 'space', 'space', 'space', 'space', 'space', 'space', 'space', 'space', 'space', 'space', 'space']","[0.5187897370196879, 1.3528790780110285, 2.101819972973317, 2.8192838300019503, 3.419050737982616, 4.152861681999639, 4.877242038957775, 5.5196181669598445, 6.252673147013411, 6.919964447966777, 7.719652011059225, 8.409996513975784, 9.119342971011065, 9.803250133059919]",space,0.9610120609868318,,,,,,,CC,001,2019_Jul_22_1529,rev-kura_tap_2blocks,3.0.6,59.95861188142227,
./stimuli_1/tmp/perfect_90_1.wav,90,perfect,0.8790589196072783,,,,,0,8,8,39,,,,,,,,,,,,,"['space', 'space', 'space', 'space', 'space', 'space', 'space', 'space', 'space', 'space', 'space', 'space', 'space', 'space', 'space', 'space']","[0.5743752749403939, 1.0682545949239284, 1.7194988320115954, 2.385287804994732, 3.0577308509964496, 3.702038068906404, 4.38617594493553, 5.053412490990013, 5.707674506003968, 6.336720068007708, 7.019667660933919, 7.705600161920302, 8.353898822912015, 9.036327024921775, 9.692964962916449, 10.337078987970017]",space,0.9528019858989865,,,,,,,CC,001,2019_Jul_22_1529,rev-kura_tap_2blocks,3.0.6,59.95861188142227,
./stimuli_1/tmp/perfect_110_0.wav,110,perfect,1.8837210676143408,,,,,0,9,9,16,,,,,,,,,,,,,"['space', 'space', 'space', 'space', 'space', 'space', 'space', 'space', 'space', 'space', 'space', 'space', 'space', 'space', 'space', 'space', 'space']","[0.4928804680239409, 1.0022043189965189, 1.535812212037854, 1.9852002890547737, 2.4863637080416083, 3.008838279056363, 3.6005845080362633, 4.1529835080727935, 4.686386838089675, 5.257549664005637, 5.769661527010612, 6.303695354028605, 6.874639174086042, 7.3678862060187384, 7.908124206005596, 8.47005080000963, 9.05421416205354]",space,1.0698983100010082,,,,,,,CC,001,2019_Jul_22_1529,rev-kura_tap_2blocks,3.0.6,59.95861188142227,
./stimuli_1/tmp/perfect_100_0.wav,100,perfect,2.1771183722066985,,,,,0,10,10,2,,,,,,,,,,,,,"['space', 'space', 'space', 'space', 'space', 'space', 'space', 'space', 'space', 'space', 'space', 'space', 'space', 'space', 'space', 'space']","[0.46965823299251497, 0.9192681889981031, 1.5354553579818457, 2.136079439893365, 2.769762343959883, 3.3697719438932836, 3.969943425967358, 4.552724179928191, 5.177984957932495, 5.770002560922876, 6.370277584996074, 6.970070824958384, 7.569423510925844, 8.144209957914427, 8.736531398957595, 9.320655802963302]",space,0.6432126800063998,,,,,,,CC,001,2019_Jul_22_1529,rev-kura_tap_2blocks,3.0.6,59.95861188142227,
./stimuli_1/tmp/vweak_105_1.wav,105,veryweak,2.000868469173824,,,,,0,11,11,7,,,,,,,,,,,,,"['space', 'space', 'space', 'space', 'space', 'space', 'space', 'space', 'space', 'space', 'space', 'space', 'space', 'space', 'space', 'space', 'space', 'space']","[0.20202665496617556, 0.6400811119237915, 1.1854102349607274, 1.802524771890603, 2.4186639758991078, 3.0356132969027385, 3.624709548894316, 4.252550192992203, 4.852767806965858, 5.49373517697677, 6.035837517934851, 6.62921051599551, 7.219002301921137, 7.819655298953876, 8.403907086001709, 8.986178712919354, 9.577131015947089, 10.169786701910198]",space,0.8044908019946888,,,,,,,CC,001,2019_Jul_22_1529,rev-kura_tap_2blocks,3.0.6,59.95861188142227,
./stimuli_1/tmp/vweak_105_2.wav,105,veryweak,1.1450150374808907,,,,,0,12,12,9,,,,,,,,,,,,,"['space', 'space', 'space', 'space', 'space', 'space', 'space', 'space', 'space', 'space', 'space', 'space', 'space', 'space', 'space']","[0.6779195460258052, 1.303102946956642, 1.9355864130193368, 2.5869083260186017, 3.287112924968824, 3.905729462974705, 4.5682142350124195, 5.223000074969605, 5.853511516004801, 6.486996458959766, 7.103940799017437, 7.745902142953128, 8.437229920062236, 9.037625525030307, 9.670659978990443]",space,0.19060218904633075,,,,,,,CC,001,2019_Jul_22_1529,rev-kura_tap_2blocks,3.0.6,59.95861188142227,
./stimuli_1/tmp/perfect_105_0.wav,105,perfect,2.376167666662905,,,,,0,13,13,11,,,,,,,,,,,,,"['space', 'space', 'space', 'space', 'space', 'space', 'space', 'space', 'space', 'space', 'space', 'space', 'space', 'space', 'space', 'space']","[0.36991839099209756, 0.9864006949355826, 1.5198802769882604, 2.036056265933439, 2.63696401193738, 3.2087678050156683, 3.7697973400354385, 4.353527472005226, 4.918761248001829, 5.4870900709647685, 6.070574639015831, 6.642602526000701, 7.204127684002742, 7.7709089369745925, 8.337472638930194, 8.902038492960855]",space,0.41893553908448666,,,,,,,CC,001,2019_Jul_22_1529,rev-kura_tap_2blocks,3.0.6,59.95861188142227,
./stimuli_1/tmp/strong_90_2.wav,90,strong,1.29545815814535,,,,,0,14,14,36,,,,,,,,,,,,,"['space', 'space', 'space', 'space', 'space', 'space', 'space', 'space', 'space', 'space', 'space', 'space', 'space', 'space', 'space', 'space']","[0.38544195296708494, 0.9184479810064659, 1.52808429999277, 2.202215475961566, 2.8862751859705895, 3.536312762997113, 4.169473661924712, 4.836650723940693, 5.502535225008614, 6.153138762922026, 6.819923336966895, 7.457401236984879, 8.070044371997938, 8.753334804903716, 9.403885881998576, 10.008823222015053]",space,0.5601235840003937,,,,,,,CC,001,2019_Jul_22_1529,rev-kura_tap_2blocks,3.0.6,59.95861188142227,
./stimuli_1/tmp/vweak_110_2.wav,110,veryweak,1.2375564653250335,,,,,0,15,15,28,,,,,,,,,,,,,"['space', 'space', 'space', 'space', 'space', 'space', 'space', 'space', 'space', 'space', 'space', 'space', 'space', 'space', 'space', 'space', 'space', 'space', 'space']","[0.28587741195224226, 0.7781129230279475, 1.118928115000017, 1.552884171018377, 2.1029576329747215, 2.70349363994319, 3.27698808000423, 3.836700181942433, 4.359716707956977, 4.919744340004399, 5.489674558979459, 6.08407478092704, 6.653466327930801, 7.253408016986214, 7.9371889979811385, 8.553501341026276, 9.170586480991915, 9.742429197998717, 10.370335423969664]",space,0.7691296649863943,,,,,,,CC,001,2019_Jul_22_1529,rev-kura_tap_2blocks,3.0.6,59.95861188142227,
./stimuli_1/tmp/weak_90_1.wav,90,weak,1.282481392037714,,,,,0,16,16,29,,,,,,,,,,,,,"['space', 'space', 'space', 'space', 'space', 'space', 'space', 'space', 'space', 'space', 'space', 'space', 'space', 'space', 'space', 'space']","[0.2186462819809094, 0.7712685490259901, 1.3682875590166077, 2.236257852986455, 2.9517549980664626, 3.618871857994236, 4.22751232306473, 4.868832033011131, 5.469637659029104, 6.052962003974244, 6.636057815048844, 7.207594892010093, 7.785891348030418, 8.43592807604, 9.052241086028516, 9.669506347971037]",space,0.6113405380165204,,,,,,,CC,001,2019_Jul_22_1529,rev-kura_tap_2blocks,3.0.6,59.95861188142227,
./stimuli_1/tmp/strong_95_2.wav,95,strong,1.1173507911145857,,,,,0,17,17,27,,,,,,,,,,,,,"['space', 'space', 'space', 'space', 'space', 'space', 'space', 'space', 'space', 'space', 'space', 'space', 'space', 'space', 'space']","[0.26816730096470565, 1.093752822955139, 1.8019313630647957, 2.5190171470167115, 3.1553831490455195, 3.836283243028447, 4.5025875240098685, 5.185957610956393, 5.869991770014167, 6.502695375005715, 7.136448709061369, 7.78634156298358, 8.436989438021556, 9.136763444985263, 9.80358696100302]",space,0.5021868229378015,,,,,,,CC,001,2019_Jul_22_1529,rev-kura_tap_2blocks,3.0.6,59.95861188142227,
./stimuli_1/tmp/weak_95_1.wav,95,weak,1.9726481258285025,,,,,0,18,18,43,,,,,,,,,,,,,"['space', 'space', 'space', 'space', 'space', 'space', 'space', 'space', 'space', 'space', 'space', 'space', 'space', 'space', 'space']","[0.20283558196388185, 0.9525385869201273, 1.677352197933942, 2.3528915769420564, 3.001923428964801, 3.752975262934342, 4.370028370991349, 5.003496293909848, 5.624610306927934, 6.336611580918543, 7.0026324689388275, 7.653554355958477, 8.329433190985583, 9.004303433001041, 9.641718311002478]",space,0.6031992409843951,,,,,,,CC,001,2019_Jul_22_1529,rev-kura_tap_2blocks,3.0.6,59.95861188142227,
./stimuli_1/tmp/vweak_110_1.wav,110,veryweak,1.3407186132175697,,,,,0,19,19,32,,,,,,,,,,,,,"['space', 'space', 'space', 'space', 'space', 'space', 'space', 'space', 'space', 'space', 'space', 'space', 'space', 'space', 'space', 'space', 'space', 'space', 'space', 'space']","[0.2080176059389487, 0.7525816039415076, 1.219430917990394, 1.7069929030258209, 2.16965404804796, 2.703124932013452, 3.243057881947607, 3.736381161957979, 4.219176233978942, 4.726122513995506, 5.236896442947909, 5.812081996933557, 6.370058640022762, 6.920272898976691, 7.4586395509541035, 7.953564635943621, 8.451566193951294, 8.970083727035671, 9.487718872027472, 10.020789270987734]",space,0.6612145400140435,,,,,,,CC,001,2019_Jul_22_1529,rev-kura_tap_2blocks,3.0.6,59.95861188142227,
./stimuli_1/tmp/weak_100_1.wav,100,weak,0.9200911357943652,,,,,0,20,20,15,,,,,,,,,,,,,"['space', 'space', 'space', 'space', 'space', 'space', 'space', 'space', 'space', 'space', 'space', 'space', 'space', 'space', 'space', 'space', 'space']","[0.21918471693061292, 0.9429891699692234, 1.6866090649273247, 2.2781261469936, 2.8864946289686486, 3.53615031496156, 4.1362147039035335, 4.746135416906327, 5.320064196945168, 5.954072973923758, 6.536151678999886, 7.193158225971274, 7.769649170921184, 8.390814870945178, 9.020609875908121, 9.63730175292585, 10.18739509198349]",space,0.40242358506657183,,,,,,,CC,001,2019_Jul_22_1529,rev-kura_tap_2blocks,3.0.6,59.95861188142227,
./stimuli_1/tmp/weak_105_1.wav,105,weak,2.3476680969619683,,,,,0,21,21,45,,,,,,,,,,,,,"['space', 'space', 'space', 'space', 'space', 'space', 'space', 'space', 'space', 'space', 'space', 'space', 'space', 'space', 'space', 'space', 'space', 'space', 'space', 'space']","[0.45792315003927797, 0.9198230420006439, 1.419578867033124, 1.8700171819655225, 2.3861777660204098, 2.9029899779707193, 3.384545056032948, 3.836111381999217, 4.36732016899623, 4.920150946942158, 5.403252357034944, 5.921082420973107, 6.422152298036963, 6.951331474003382, 7.454076837049797, 7.937317074043676, 8.454209791030735, 8.970627835951746, 9.488034475012682, 10.025636331993155]",space,0.4523888499243185,,,,,,,CC,001,2019_Jul_22_1529,rev-kura_tap_2blocks,3.0.6,59.95861188142227,
./stimuli_1/tmp/vweak_95_1.wav,95,veryweak,2.279644213301781,,,,,0,22,22,24,,,,,,,,,,,,,"['space', 'space', 'space', 'space', 'space', 'space', 'space', 'space', 'space', 'space', 'space', 'space', 'space', 'space', 'space', 'space', 'space']","[0.31253325403667986, 0.8471020399592817, 1.496693029999733, 2.1132658410351723, 2.680633903015405, 3.3306722959969193, 3.952341725002043, 4.530931500019506, 5.147992905927822, 5.781007839017548, 6.405550890951417, 6.98098182992544, 7.564253687974997, 8.214355275034904, 8.815032170969062, 9.423431701026857, 10.048015692969784]",space,0.5116800140822306,,,,,,,CC,001,2019_Jul_22_1529,rev-kura_tap_2blocks,3.0.6,59.95861188142227,
./stimuli_1/tmp/perfect_95_1.wav,95,perfect,0.8659592093324232,,,,,0,23,23,22,,,,,,,,,,,,,"['space', 'space', 'space', 'space', 'space', 'space', 'space', 'space', 'space', 'space', 'space', 'space', 'space', 'space', 'space', 'space']","[0.5021575810387731, 1.0019045510562137, 1.6077657890273258, 2.2193699170602486, 2.903508306015283, 3.5022491790587083, 4.086666933028027, 4.736996375024319, 5.370607068063691, 5.98709485901054, 6.629448128049262, 7.26944744004868, 7.9036333380499855, 8.504262820002623, 9.125061640050262, 9.753640160080977]",space,0.3922896370058879,,,,,,,CC,001,2019_Jul_22_1529,rev-kura_tap_2blocks,3.0.6,59.95861188142227,
./stimuli_1/tmp/medium_95_1.wav,95,medium,1.3706215803300168,,,,,0,24,24,19,,,,,,,,,,,,,"['space', 'space', 'space', 'space', 'space', 'space', 'space', 'space', 'space', 'space', 'space', 'space', 'space', 'space', 'space']","[0.36429816600866616, 0.8300813110545278, 1.4525373780634254, 2.130727650015615, 2.897266746032983, 3.5522819840116426, 4.231671535992064, 4.954194272053428, 5.649114788975567, 6.314946801052429, 7.014028455014341, 7.66409791004844, 8.348287533968687, 9.032240297063254, 9.696851180051453]",space,0.36048875807318836,,,,,,,CC,001,2019_Jul_22_1529,rev-kura_tap_2blocks,3.0.6,59.95861188142227,
./stimuli_1/tmp/vweak_90_2.wav,90,veryweak,1.0044987578235975,,,,,0,25,25,40,,,,,,,,,,,,,"['space', 'space', 'space', 'space', 'space', 'space', 'space', 'space', 'space', 'space', 'space', 'space', 'space', 'space', 'space', 'space']","[0.26888827001675963, 0.9367314460687339, 1.5695548070361838, 2.1530792369740084, 2.8863697790075094, 3.578207373037003, 4.2035153220640495, 4.92004432703834, 5.520801838021725, 6.161495182081126, 6.770897692069411, 7.487354862969369, 8.158889273996465, 8.787867725011893, 9.42052217607852, 10.13772710005287]",space,0.3647631809581071,,,,,,,CC,001,2019_Jul_22_1529,rev-kura_tap_2blocks,3.0.6,59.95861188142227,
./stimuli_1/tmp/strong_105_1.wav,105,strong,1.8750845453371756,,,,,0,26,26,25,,,,,,,,,,,,,"['space', 'space', 'space', 'space', 'space', 'space', 'space', 'space', 'space', 'space', 'space', 'space', 'space', 'space', 'space', 'space', 'space', 'space', 'space']","[0.2015674359863624, 0.6856773310573772, 1.1839291959768161, 1.6357032359810546, 2.1357888570055366, 2.6854462779592723, 3.2694208320463076, 3.819175790064037, 4.360843489062972, 4.9537649870617315, 5.503192842006683, 6.018839661031961, 6.536034850985743, 7.102967715007253, 7.702919455012307, 8.23746738198679, 8.770166362985037, 9.303447111975402, 9.853770443005487]",space,0.46089086297433823,,,,,,,CC,001,2019_Jul_22_1529,rev-kura_tap_2blocks,3.0.6,59.95861188142227,
./stimuli_1/tmp/perfect_105_1.wav,105,perfect,1.612711409659772,,,,,0,27,27,13,,,,,,,,,,,,,"['space', 'space', 'space', 'space', 'space', 'space', 'space', 'space', 'space', 'space', 'space', 'space', 'space', 'space', 'space', 'space']","[0.36935333989094943, 0.9257054019253701, 1.4524690879043192, 2.0511257459875196, 2.6367329648928717, 3.1861923419637606, 3.769814492901787, 4.362236578948796, 4.936970923910849, 5.47036518889945, 6.037217674893327, 6.620471434900537, 7.1870256789261475, 7.754304577945732, 8.353636835003272, 8.88753267598804]",space,0.3690459489589557,,,,,,,CC,001,2019_Jul_22_1529,rev-kura_tap_2blocks,3.0.6,59.95861188142227,
./stimuli_1/tmp/strong_100_1.wav,100,strong,1.2298337616078612,,,,,0,28,28,37,,,,,,,,,,,,,"['space', 'space', 'space', 'space', 'space', 'space', 'space', 'space', 'space', 'space', 'space', 'space', 'space', 'space', 'space', 'space']","[0.26100642792880535, 0.7850318449782208, 1.4358524789568037, 2.119578144978732, 2.793842055951245, 3.453516350942664, 4.103226950974204, 4.736552658956498, 5.392667740932666, 6.036790204932913, 6.6696757660247386, 7.279034637962468, 7.920053691952489, 8.570780516951345, 9.269522876944393, 9.8943722989643]",space,0.3776914180489257,,,,,,,CC,001,2019_Jul_22_1529,rev-kura_tap_2blocks,3.0.6,59.95861188142227,
./stimuli_1/tmp/medium_100_1.wav,100,medium,0.9469441789171564,,,,,0,29,29,47,,,,,,,,,,,,,"['space', 'space', 'space', 'space', 'space', 'space', 'space', 'space', 'space', 'space', 'space', 'space', 'space', 'space', 'space']","[0.42426264192909, 1.0026518239174038, 1.7855938249267638, 2.453196757938713, 3.127253226004541, 3.7367858350044116, 4.41819640994072, 5.045619816984981, 5.6697895399993286, 6.353891290957108, 6.987220073002391, 7.658482049941085, 8.253038377966732, 8.937825176981278, 9.61207381892018]",space,0.3185451349709183,,,,,,,CC,001,2019_Jul_22_1529,rev-kura_tap_2blocks,3.0.6,59.95861188142227,
./stimuli_1/tmp/perfect_90_0.wav,90,perfect,1.6568604876231643,,,,,0,30,30,35,,,,,,,,,,,,,"['space', 'space', 'space', 'space', 'space', 'space', 'space', 'space', 'space', 'space', 'space', 'space', 'space', 'space', 'space', 'space']","[0.5350119149079546, 1.135914835962467, 1.7530728849815205, 2.4021763829514384, 3.085591824958101, 3.7366392919793725, 4.402629788964987, 5.060484707937576, 5.703268608893268, 6.384541740990244, 7.036693292902783, 7.684961146907881, 8.368413834949024, 9.003976668929681, 9.663351617986336, 10.3210180089809]",space,1.7176525780232623,,,,,,,CC,001,2019_Jul_22_1529,rev-kura_tap_2blocks,3.0.6,59.95861188142227,
./stimuli_1/tmp/medium_90_1.wav,90,medium,1.3827594725962091,,,,,0,31,31,49,,,,,,,,,,,,,"['space', 'space', 'space', 'space', 'space', 'space', 'space', 'space', 'space', 'space', 'space', 'space', 'space', 'space', 'space']","[0.20295527996495366, 0.6857185770059004, 1.4018051490420476, 2.0686342749977484, 2.8197610260685906, 3.5035632390063256, 4.217911181971431, 4.886427816003561, 5.602541408035904, 6.252398438053206, 6.969344565062784, 7.619440981070511, 8.336563357966952, 9.069331906968728, 9.801491038990207]",space,0.7367567078908905,,,,,,,CC,001,2019_Jul_22_1529,rev-kura_tap_2blocks,3.0.6,59.95861188142227,
./stimuli_1/tmp/medium_110_2.wav,110,medium,1.962096670593472,,,,,0,32,32,12,,,,,,,,,,,,,"['space', 'space', 'space', 'space', 'space', 'space', 'space', 'space', 'space', 'space', 'space', 'space', 'space', 'space', 'space', 'space', 'space', 'space']","[0.2181273939786479, 0.718804550007917, 1.2525097449542955, 1.8525898429797962, 2.461475405958481, 3.05220527399797, 3.650435166899115, 4.203217256930657, 4.735965484986082, 5.285646260948852, 5.870272735948674, 6.453709419001825, 7.051399858901277, 7.603392743971199, 8.137235159985721, 8.753736272919923, 9.32081256096717, 9.937134769978002]",space,0.790069550042972,,,,,,,CC,001,2019_Jul_22_1529,rev-kura_tap_2blocks,3.0.6,59.95861188142227,
./stimuli_1/tmp/weak_105_2.wav,105,weak,2.065051120273794,,,,,0,33,33,48,,,,,,,,,,,,,"['space', 'space', 'space', 'space', 'space', 'space', 'space', 'space', 'space', 'space', 'space', 'space', 'space', 'space', 'space', 'space', 'space']","[0.2185824530897662, 0.7854941920377314, 1.435958233079873, 2.0030808900482953, 2.60883621906396, 3.2696047599893063, 3.869326519081369, 4.503272428060882, 5.118244189070538, 5.695801723981276, 6.302752739051357, 6.919245152035728, 7.519826794043183, 8.104260419029742, 8.706108205020428, 9.320106360013597, 9.936690240981989]",space,4.604059910052456,,,,,,,CC,001,2019_Jul_22_1529,rev-kura_tap_2blocks,3.0.6,59.95861188142227,
./stimuli_1/tmp/weak_110_2.wav,110,weak,1.1450489585925383,,,,,0,34,34,0,,,,,,,,,,,,,"['space', 'space', 'space', 'space', 'space', 'space', 'space', 'space', 'space', 'space', 'space', 'space', 'space', 'space', 'space', 'space', 'space', 'space', 'space', 'space', 'space']","[0.3522764809895307, 0.8197161309653893, 1.2693970520049334, 1.6708394079469144, 2.1524631059728563, 2.652251797961071, 3.1546239419840276, 3.651963514974341, 4.152193075045943, 4.652325420989655, 5.170045949053019, 5.657996717956848, 6.136947507970035, 6.620414106990211, 7.119255290017463, 7.636633676011115, 8.12190383404959, 8.652963764034212, 9.152792474953458, 9.670471956022084, 10.153571052011102]",space,0.7524248380213976,,,,,,,CC,001,2019_Jul_22_1529,rev-kura_tap_2blocks,3.0.6,59.95861188142227,
./stimuli_1/tmp/medium_95_2.wav,95,medium,2.475357682924177,,,,,0,35,35,14,,,,,,,,,,,,,"['space', 'space', 'space', 'space', 'space', 'space', 'space', 'space', 'space', 'space', 'space', 'space', 'space', 'space', 'space']","[0.3859691839898005, 0.7371161190094426, 1.3087718810420483, 2.104080518009141, 2.7700572330504656, 3.486564844963141, 4.187286044005305, 4.829678094014525, 5.537792967050336, 6.201805697986856, 6.910619948990643, 7.604784845956601, 8.238401256036013, 8.985602766973898, 9.688266330980696]",space,0.3682653020368889,,,,,,,CC,001,2019_Jul_22_1529,rev-kura_tap_2blocks,3.0.6,59.95861188142227,
./stimuli_1/tmp/strong_100_2.wav,100,strong,1.5994648074282498,,,,,0,36,36,42,,,,,,,,,,,,,"['space', 'space', 'space', 'space', 'space', 'space', 'space', 'space', 'space', 'space', 'space', 'space', 'space', 'space', 'space', 'space', 'space']","[0.2531419489532709, 0.7192618309054524, 1.3027459499426186, 1.890702803968452, 2.502486967947334, 3.1032799859531224, 3.7200648959260434, 4.3417520669754595, 4.95289051393047, 5.552950390963815, 6.1529485589126125, 6.786392041947693, 7.410656671971083, 8.020325628924184, 8.60387021000497, 9.237547821947373, 9.870520373922773]",space,0.30159425700549036,,,,,,,CC,001,2019_Jul_22_1529,rev-kura_tap_2blocks,3.0.6,59.95861188142227,
./stimuli_1/tmp/perfect_110_1.wav,110,perfect,1.7704271467992068,,,,,0,37,37,18,,,,,,,,,,,,,"['space', 'space', 'space', 'space', 'space', 'space', 'space', 'space', 'space', 'space', 'space', 'space', 'space', 'space', 'space', 'space', 'space']","[0.36860608495771885, 1.002631566952914, 1.4576567630283535, 1.9359207450179383, 2.4859241460217163, 3.035358918015845, 3.5857580250594765, 4.152681124047376, 4.685463170986623, 5.221000669989735, 5.7365553070558235, 6.319798349053599, 6.835981428972445, 7.376513988012448, 7.952418013010174, 8.486599078052677, 10.836691039032303]",space,0.5022085279924795,,,,,,,CC,001,2019_Jul_22_1529,rev-kura_tap_2blocks,3.0.6,59.95861188142227,
./stimuli_1/tmp/perfect_100_1.wav,100,perfect,2.462429502310373,,,,,0,38,38,1,,,,,,,,,,,,,"['space', 'space', 'space', 'space', 'space', 'space', 'space', 'space', 'space', 'space', 'space', 'space', 'space', 'space', 'space', 'space']","[0.2694422899512574, 0.9606379419565201, 1.5692795170471072, 2.1851821469608694, 2.785659790970385, 3.369255568017252, 3.976957596023567, 4.5863314849557355, 5.186357195023447, 5.770118474029005, 6.353407765971497, 6.96944848599378, 7.5745629880111665, 8.187449118937366, 8.770563779980876, 9.387175961048342]",space,0.05274322791956365,,,,,,,CC,001,2019_Jul_22_1529,rev-kura_tap_2blocks,3.0.6,59.95861188142227,
./stimuli_1/tmp/vweak_100_1.wav,100,veryweak,1.441965324529146,,,,,0,39,39,4,,,,,,,,,,,,,"['space', 'space', 'space', 'space', 'space', 'space', 'space', 'space', 'space', 'space', 'space', 'space', 'space', 'space', 'space', 'space', 'space', 'space', 'space', 'space']","[0.314270312897861, 0.7646607389906421, 1.2649006599094719, 1.7976939699146897, 2.2817294659325853, 2.781769305933267, 3.281630808953196, 3.798413001000881, 4.332386904978193, 4.897998605971225, 5.3980523239588365, 5.998463014955632, 6.504915660945699, 7.065047779935412, 7.6159372149268165, 8.137327523902059, 8.632837527897209, 9.216040949919261, 9.716340541956015, 10.230848343926482]",space,0.6019713939167559,,,,,,,CC,001,2019_Jul_22_1529,rev-kura_tap_2blocks,3.0.6,59.95861188142227,
./stimuli_1/tmp/strong_95_1.wav,95,strong,1.2238592690797745,,,,,0,40,40,33,,,,,,,,,,,,,"['space', 'space', 'space', 'space', 'space', 'space', 'space', 'space', 'space', 'space', 'space', 'space', 'space', 'space', 'space', 'space']","[0.20197438402101398, 0.6690705569926649, 1.242188812000677, 1.8860098540317267, 2.4524028029991314, 3.102667308994569, 3.7185698190005496, 4.35546221002005, 4.9357370539801195, 5.486768095986918, 6.1365602989681065, 6.768054243992083, 7.368003619019873, 7.986143001937307, 8.60384073597379, 9.187433106009848]",space,0.46001996600534767,,,,,,,CC,001,2019_Jul_22_1529,rev-kura_tap_2blocks,3.0.6,59.95861188142227,
./stimuli_1/tmp/vweak_90_1.wav,90,veryweak,0.8362780865168179,,,,,0,41,41,34,,,,,,,,,,,,,"['space', 'space', 'space', 'space', 'space', 'space', 'space', 'space', 'space', 'space', 'space', 'space', 'space', 'space']","[0.685424278024584, 1.2855062880553305, 2.0523806950077415, 2.819335728068836, 3.602432237006724, 4.35253403999377, 5.03614744998049, 5.752353359013796, 6.469271420035511, 7.22881449398119, 7.970020120032132, 8.65793125203345, 9.401361642056145, 10.087307383073494]",space,0.5864990459522232,,,,,,,CC,001,2019_Jul_22_1529,rev-kura_tap_2blocks,3.0.6,59.95861188142227,
./stimuli_1/tmp/medium_100_2.wav,100,medium,1.5709881706161974,,,,,0,42,42,44,,,,,,,,,,,,,"['space', 'space', 'space', 'space', 'space', 'space', 'space', 'space', 'space', 'space', 'space', 'space', 'space', 'space', 'space', 'space', 'space', 'space']","[0.21694694994948804, 0.9262512599816546, 1.5859596129739657, 2.1521008430281654, 2.657216615974903, 3.1528710409766063, 3.6859970029909164, 4.219647484016605, 4.786603269982152, 5.336475295946002, 5.890758179943077, 6.403183905989863, 7.001760495943017, 7.542235221015289, 8.086911487043835, 8.637893010047264, 9.203512661042623, 9.78763938404154]",space,0.3836688050068915,,,,,,,CC,001,2019_Jul_22_1529,rev-kura_tap_2blocks,3.0.6,59.95861188142227,
./stimuli_1/tmp/weak_110_1.wav,110,weak,2.302762081100819,,,,,0,43,43,3,,,,,,,,,,,,,"['space', 'space', 'space', 'space', 'space', 'space', 'space', 'space', 'space', 'space', 'space', 'space', 'space', 'space', 'space', 'space', 'space', 'space']","[0.20304832595866174, 0.6186897329753265, 1.185321836033836, 1.7862900929758325, 2.3520426700124517, 2.9089478199603036, 3.502426958992146, 4.102172974962741, 4.686306583927944, 5.251300754956901, 5.86150490201544, 6.453548160963692, 7.019331456976943, 7.635443222941831, 8.220770442974754, 8.810636712005362, 9.404365316964686, 9.953849420999177]",space,1.6170224740635604,,,,,,,CC,001,2019_Jul_22_1529,rev-kura_tap_2blocks,3.0.6,59.95861188142227,
./stimuli_1/tmp/strong_90_1.wav,90,strong,1.0878185010355936,,,,,0,44,44,41,,,,,,,,,,,,,"['space', 'space', 'space', 'space', 'space', 'space', 'space', 'space', 'space', 'space', 'space', 'space', 'space', 'space', 'space']","[0.38543853105511516, 0.9192109000869095, 1.675769413006492, 2.4029963720822707, 3.102570794057101, 3.7961563020944595, 4.519663335988298, 5.194678673055023, 5.903293304028921, 6.58668512001168, 7.270904635079205, 8.004033897072077, 8.71282447106205, 9.420748978038318, 10.16992889798712]",space,0.6517488040262833,,,,,,,CC,001,2019_Jul_22_1529,rev-kura_tap_2blocks,3.0.6,59.95861188142227,
./stimuli_1/tmp/vweak_95_2.wav,95,veryweak,1.1399322262275913,,,,,0,45,45,30,,,,,,,,,,,,,"['space', 'space', 'space', 'space', 'space', 'space', 'space', 'space', 'space', 'space', 'space', 'space', 'space', 'space', 'space', 'space', 'space']","[0.2688890499994159, 0.702989800949581, 1.2022643409436569, 1.8016766499495134, 2.469940245966427, 3.085837992024608, 3.7359147529350594, 4.374125001952052, 4.986949405982159, 5.63725439098198, 6.270045468932949, 6.908990039024502, 7.536781986942515, 8.176930080982856, 8.78750975895673, 9.388690743013285, 9.987469039973803]",space,0.5594234409509227,,,,,,,CC,001,2019_Jul_22_1529,rev-kura_tap_2blocks,3.0.6,59.95861188142227,
./stimuli_1/tmp/medium_90_2.wav,90,medium,2.1384331573709567,,,,,0,46,46,46,,,,,,,,,,,,,"['space', 'space', 'space', 'space', 'space', 'space', 'space', 'space', 'space', 'space', 'space', 'space', 'space', 'space', 'space', 'space']","[0.23662970901932567, 0.9372726560104638, 1.7763304190011695, 2.470067417016253, 3.1189371320651844, 3.8200557549716905, 4.501346666016616, 5.2201172050554305, 5.920505417976528, 6.5204739270266145, 7.220421085017733, 7.896139006013982, 8.588739683036692, 9.309979254961945, 10.004019299987704, 10.687557594967075]",space,0.9929315280169249,,,,,,,CC,001,2019_Jul_22_1529,rev-kura_tap_2blocks,3.0.6,59.95861188142227,
./stimuli_1/tmp/strong_105_2.wav,105,strong,0.9615404084728899,,,,,0,47,47,31,,,,,,,,,,,,,"['space', 'space', 'space', 'space', 'space', 'space', 'space', 'space', 'space', 'space', 'space', 'space', 'space', 'space', 'space', 'space']","[0.25041029998101294, 0.6625235710525885, 1.2192221960285679, 1.859718727064319, 2.4698124940041453, 3.136632111039944, 3.8242632939945906, 4.470598480082117, 5.17033591598738, 5.787340254057199, 6.43774209509138, 7.093619105988182, 7.720928471069783, 8.37567909504287, 9.004524779040366, 9.634778804029338]",space,0.514043721021153,,,,,,,CC,001,2019_Jul_22_1529,rev-kura_tap_2blocks,3.0.6,59.95861188142227,
./stimuli_1/tmp/medium_105_2.wav,105,medium,0.8825097572066065,,,,,0,48,48,17,,,,,,,,,,,,,"['space', 'space', 'space', 'space', 'space', 'space', 'space', 'space', 'space', 'space', 'space', 'space', 'space', 'space', 'space', 'space']","[0.3023377900244668, 0.9571913660038263, 1.7017563700210303, 2.3348021620186046, 2.968809140031226, 3.5899926220299676, 4.184877882013097, 4.775727663072757, 5.3198219570331275, 5.936370542040095, 6.5354651840170845, 7.142680466058664, 7.7364492900669575, 8.436790668987669, 9.10356393607799, 9.76827174203936]",space,0.47953843395225704,,,,,,,CC,001,2019_Jul_22_1529,rev-kura_tap_2blocks,3.0.6,59.95861188142227,
./stimuli_1/tmp/weak_90_2.wav,90,weak,2.0384375203910188,,,,,0,49,49,23,,,,,,,,,,,,,"['space', 'space', 'space', 'space', 'space', 'space', 'space', 'space', 'space', 'space', 'space', 'space', 'space', 'space', 'space']","[0.24774027697276324, 1.0478490059031174, 1.7480496109928936, 2.398469474981539, 3.048396484926343, 3.7151818559505045, 4.364222828997299, 5.019806947908364, 5.631928481976502, 6.347846820950508, 7.03225984191522, 7.649250342976302, 8.282063480000943, 8.982441578991711, 9.65387891489081]",space,0.48619017598684877,,,,,,,CC,001,2019_Jul_22_1529,rev-kura_tap_2blocks,3.0.6,59.95861188142227,
,,,,,,,,,,,,,,,,,,,,,,,,,,,,space,28.65656059095636,,,,,CC,001,2019_Jul_22_1529,rev-kura_tap_2blocks,3.0.6,59.95861188142227,
./stimuli_2/tmp/perfect_100_1.wav,100,perfect,1.900582361571024,,,,,,,,,0,0,0,1,,,,,,,,,,,,,,,"['space', 'space', 'space', 'space', 'space', 'space', 'space', 'space', 'space', 'space', 'space', 'space', 'space', 'space', 'space', 'space']","[0.5698989969678223, 1.0359056919114664, 1.5869375428883359, 2.119758691987954, 2.743430384900421, 3.386490317992866, 3.9534632290014997, 4.5532713839784265, 5.154251505970024, 5.770687504904345, 6.353315837914124, 6.953649453935213, 7.554424923961051, 8.15488269191701, 8.759922546916641, 9.37113658990711]",space,0.44105472101364285,CC,001,2019_Jul_22_1529,rev-kura_tap_2blocks,3.0.6,59.95861188142227,
./stimuli_2/tmp/perfect_90_1.wav,90,perfect,0.9437088291454946,,,,,,,,,0,1,1,38,,,,,,,,,,,,,,,"['space', 'space', 'space', 'space', 'space', 'space', 'space', 'space', 'space', 'space', 'space', 'space', 'space', 'space']","[0.4582021910464391, 1.0526160079753026, 1.735709551954642, 2.4499627739423886, 3.0685821840306744, 3.735941787948832, 4.408761074999347, 5.069747503963299, 5.753219246049412, 6.419279481982812, 7.052675821934827, 7.720234896987677, 8.386807475006208, 9.012548697995953]",space,0.5175584000535309,CC,001,2019_Jul_22_1529,rev-kura_tap_2blocks,3.0.6,59.95861188142227,
./stimuli_2/tmp/weak_105_3.wav,105,weak,1.8785671226313851,,,,,,,,,0,2,2,49,,,,,,,,,,,,,,,"['space', 'space', 'space', 'space', 'space', 'space', 'space', 'space', 'space', 'space', 'space', 'space', 'space', 'space']","[0.20677612908184528, 0.9502042100066319, 1.70113050902728, 2.401294128037989, 3.1847609829856083, 3.9020813180832192, 4.601574065978639, 5.318650542991236, 5.96662695996929, 6.618969468050636, 7.302129514981061, 8.019368109991774, 8.70749505306594, 9.43559002596885]",space,0.36671022104565054,CC,001,2019_Jul_22_1529,rev-kura_tap_2blocks,3.0.6,59.95861188142227,
./stimuli_2/tmp/strong_110_3.wav,110,strong,2.128797507874421,,,,,,,,,0,3,3,6,,,,,,,,,,,,,,,"['space', 'space', 'space', 'space', 'space', 'space', 'space', 'space', 'space', 'space', 'space', 'space', 'space', 'space', 'space', 'space', 'space', 'space']","[0.20224374195095152, 0.7421622979454696, 1.2355003589764237, 1.7431668950011954, 2.2526222890010104, 2.735875653917901, 3.2409805989591405, 3.7691002269275486, 4.2685669789789245, 4.819899572990835, 5.369465823983774, 5.85265272797551, 6.40848677593749, 6.9371244999347255, 7.4367261899169534, 7.953517964924686, 8.486953928950243, 9.020327660022303]",space,0.5196160699706525,CC,001,2019_Jul_22_1529,rev-kura_tap_2blocks,3.0.6,59.95861188142227,
./stimuli_2/tmp/weak_105_4.wav,105,weak,2.3797932117961262,,,,,,,,,0,4,4,40,,,,,,,,,,,,,,,"['space', 'space', 'space', 'space', 'space', 'space', 'space', 'space', 'space', 'space', 'space', 'space', 'space', 'space', 'space']","[0.30170913494657725, 0.9750694209942594, 1.6513790390454233, 2.3085620530182496, 2.9689292539842427, 3.6193224870366976, 4.2700951299630105, 4.90216890303418, 5.486451891018078, 6.186344573972747, 6.852514510042965, 7.48687308805529, 8.086090825032443, 8.686375409015454, 9.270290232961997]",space,0.27794341393746436,CC,001,2019_Jul_22_1529,rev-kura_tap_2blocks,3.0.6,59.95861188142227,
./stimuli_2/tmp/vweak_95_4.wav,95,veryweak,1.2922043074511544,,,,,,,,,0,5,5,22,,,,,,,,,,,,,,,"['space', 'space', 'space', 'space', 'space', 'space', 'space', 'space', 'space', 'space', 'space', 'space', 'space', 'space', 'space', 'space']","[0.21853169600944966, 0.6849489220185205, 1.1862175751011819, 1.7917573400773108, 2.3864918450126424, 3.0191571190953255, 3.6511568260611966, 4.269422232056968, 4.861152431112714, 5.486780883045867, 6.103613491053693, 6.719214717042632, 7.320070724003017, 7.920571499038488, 8.520852264016867, 9.154277728055604]",space,0.3358028060756624,CC,001,2019_Jul_22_1529,rev-kura_tap_2blocks,3.0.6,59.95861188142227,
./stimuli_2/tmp/medium_90_3.wav,90,medium,2.469674326004891,,,,,,,,,0,6,6,43,,,,,,,,,,,,,,,"['space', 'space', 'space', 'space', 'space', 'space', 'space', 'space', 'space', 'space', 'space', 'space', 'space', 'space']","[0.2647546360967681, 1.0819966400740668, 1.7814517610240728, 2.448291886015795, 3.1151038790121675, 3.779395471094176, 4.465367497061379, 5.165860434062779, 5.798924631089903, 6.432641286985017, 7.071648298995569, 7.749440140090883, 8.399152311030775, 9.071772219031118]",space,0.13598633895162493,CC,001,2019_Jul_22_1529,rev-kura_tap_2blocks,3.0.6,59.95861188142227,
./stimuli_2/tmp/medium_105_3.wav,105,medium,0.9417007635762324,,,,,,,,,0,7,7,15,,,,,,,,,,,,,,,"['space', 'space', 'space', 'space', 'space', 'space', 'space', 'space', 'space', 'space', 'space', 'space', 'space', 'space', 'space', 'space', 'space']","[0.34582582593429834, 0.946468545938842, 1.4460585049819201, 1.9302336280234158, 2.38078740099445, 2.9467646919656545, 3.501993826008402, 4.062006733962335, 4.664079381967895, 5.297585795982741, 5.913336899015121, 6.502243867027573, 7.047642422025092, 7.6475139639806, 8.264449408045039, 8.880687081022188, 10.652719756006263]",space,0.5194018500624225,CC,001,2019_Jul_22_1529,rev-kura_tap_2blocks,3.0.6,59.95861188142227,
./stimuli_2/tmp/perfect_90_0.wav,90,perfect,1.8471350139820657,,,,,,,,,0,8,8,34,,,,,,,,,,,,,,,"['space', 'space', 'space', 'space', 'space', 'space', 'space', 'space', 'space', 'space', 'space', 'space', 'space', 'space', 'space']","[0.2744346259860322, 1.0169157489435747, 1.6732970299199224, 2.385273534920998, 3.0364633289864287, 3.703466346953064, 4.403029982931912, 5.017927381908521, 5.670131071005017, 6.369352587964386, 7.037112748948857, 7.687228016904555, 8.346190732903779, 9.003433482954279, 10.475949510931969]",space,2.019899855949916,CC,001,2019_Jul_22_1529,rev-kura_tap_2blocks,3.0.6,59.95861188142227,
./stimuli_2/tmp/strong_100_3.wav,100,strong,1.4654700353387642,,,,,,,,,0,9,9,41,,,,,,,,,,,,,,,"['space', 'space', 'space', 'space', 'space', 'space', 'space', 'space', 'space', 'space', 'space', 'space', 'space', 'space', 'space']","[0.2024914009962231, 0.7354504750110209, 1.3904641240369529, 2.018581146025099, 2.7199697750620544, 3.361086459015496, 4.0026309880195186, 4.6187387719983235, 5.26936078898143, 5.936384706990793, 6.586191900074482, 7.2363815400749445, 7.926974763977341, 8.58678490598686, 9.220699929981492]",space,0.06814914895221591,CC,001,2019_Jul_22_1529,rev-kura_tap_2blocks,3.0.6,59.95861188142227,
./stimuli_2/tmp/strong_105_4.wav,105,strong,1.0619213958525664,,,,,,,,,0,10,10,23,,,,,,,,,,,,,,,"['space', 'space', 'space', 'space', 'space', 'space', 'space', 'space', 'space', 'space', 'space', 'space', 'space', 'space', 'space', 'space', 'space', 'space']","[0.35205154004506767, 0.9403412269894034, 1.4686097090598196, 1.985205413075164, 2.552520851022564, 3.100433974992484, 3.673903829068877, 4.252042975043878, 4.835670983069576, 5.324333250988275, 5.902881134999916, 6.45189308305271, 7.019304963061586, 7.587047283072025, 8.219745962996967, 8.770541725098155, 9.370514077018015, 10.637001671013422]",space,1.985601366031915,CC,001,2019_Jul_22_1529,rev-kura_tap_2blocks,3.0.6,59.95861188142227,
./stimuli_2/tmp/perfect_110_1.wav,110,perfect,1.960810456770172,,,,,,,,,0,11,11,17,,,,,,,,,,,,,,,"['space', 'space', 'space', 'space', 'space', 'space', 'space', 'space', 'space', 'space', 'space', 'space', 'space', 'space', 'space', 'space']","[0.48342574993148446, 0.985073528951034, 1.5010241699637845, 2.0188558229710907, 2.5196925689233467, 3.072849165997468, 3.6199593748897314, 4.153393407934345, 4.703604327980429, 5.2526376319583505, 5.786523594986647, 6.360116163967177, 6.903661862947047, 7.469990314915776, 8.014314291998744, 8.53685397899244]",space,0.4442501129815355,CC,001,2019_Jul_22_1529,rev-kura_tap_2blocks,3.0.6,59.95861188142227,
./stimuli_2/tmp/strong_90_3.wav,90,strong,1.6244125943376004,,,,,,,,,0,12,12,37,,,,,,,,,,,,,,,"['space', 'space', 'space', 'space', 'space', 'space', 'space', 'space', 'space', 'space', 'space', 'space', 'space', 'space']","[0.48574959801044315, 1.0851841339608654, 1.9217947989236563, 2.63664467795752, 3.3196182789979503, 3.9617793809156865, 4.686034849029966, 5.3530269749462605, 6.069911581929773, 6.736119849956594, 7.43674612196628, 8.10297217394691, 8.82633014593739, 9.501831189962104]",space,0.5675585769349709,CC,001,2019_Jul_22_1529,rev-kura_tap_2blocks,3.0.6,59.95861188142227,
./stimuli_2/tmp/vweak_110_3.wav,110,veryweak,1.9493514140483303,,,,,,,,,0,13,13,25,,,,,,,,,,,,,,,"['space', 'space', 'space', 'space', 'space', 'space', 'space', 'space', 'space', 'space', 'space', 'space', 'space', 'space', 'space', 'space', 'space', 'space', 'space', 'space']","[0.3120469080749899, 0.7796626549679786, 1.195819086045958, 1.5466175930341706, 1.929815683979541, 2.4217125870054588, 2.8787951109698042, 3.3350459929788485, 3.8302632779814303, 4.330065028043464, 4.780564813991077, 5.2969471249962226, 5.8126721570733935, 6.247102349065244, 6.696102161076851, 7.196671684971079, 7.696345200994983, 8.263523063040338, 8.797487905016169, 9.344644078984857]",space,0.8022257059346884,CC,001,2019_Jul_22_1529,rev-kura_tap_2blocks,3.0.6,59.95861188142227,
./stimuli_2/tmp/strong_95_3.wav,95,strong,2.368023631857328,,,,,,,,,0,14,14,24,,,,,,,,,,,,,,,"['space', 'space', 'space', 'space', 'space', 'space', 'space', 'space', 'space', 'space', 'space', 'space', 'space', 'space', 'space']","[0.25260106602218, 0.8692331579513848, 1.46886959602125, 2.052606203011237, 2.6521981219993904, 3.2951574330218136, 3.919267624965869, 4.569828775944188, 5.152976403012872, 5.791611487977207, 6.435729220043868, 7.102995443041436, 7.736341102980077, 8.377964196028188, 8.986396559048444]",space,0.5032472930615768,CC,001,2019_Jul_22_1529,rev-kura_tap_2blocks,3.0.6,59.95861188142227,
./stimuli_2/tmp/medium_100_3.wav,100,medium,0.9227517929886035,,,,,,,,,0,15,15,45,,,,,,,,,,,,,,,"['space', 'space', 'space', 'space', 'space', 'space', 'space', 'space', 'space', 'space', 'space', 'space', 'space', 'space', 'space', 'space', 'space', 'space']","[0.4523305270122364, 0.9284016160527244, 1.4190960060805082, 1.8860856359824538, 2.402915047015995, 2.9458190640434623, 3.4697431550594047, 3.985503234085627, 4.509768682997674, 5.003760418039747, 5.5580975180491805, 6.069711460033432, 6.586925441049971, 7.119709340040572, 7.653362457989715, 8.152973031043075, 8.670314713031985, 9.270200134022161]",space,0.6050687959650531,CC,001,2019_Jul_22_1529,rev-kura_tap_2blocks,3.0.6,59.95861188142227,
./stimuli_2/tmp/weak_90_3.wav,90,weak,1.336733561564532,,,,,,,,,0,16,16,29,,,,,,,,,,,,,,,"['space', 'space', 'space', 'space', 'space', 'space', 'space', 'space', 'space', 'space', 'space', 'space', 'space', 'space']","[0.49174205400049686, 0.9522839080309495, 1.7020255590323359, 2.451625491026789, 3.1253654840402305, 3.784580412087962, 4.458722357056104, 5.136485316092148, 5.818082251003943, 6.45316154405009, 7.120260455063544, 7.836182255996391, 8.50916205800604, 9.152666159090586]",space,0.3702040839707479,CC,001,2019_Jul_22_1529,rev-kura_tap_2blocks,3.0.6,59.95861188142227,
./stimuli_2/tmp/vweak_105_3.wav,105,veryweak,1.505363686413271,,,,,,,,,0,17,17,7,,,,,,,,,,,,,,,"['space', 'space', 'space', 'space', 'space', 'space', 'space', 'space', 'space', 'space', 'space', 'space', 'space', 'space', 'space', 'space']","[0.2525512099964544, 0.6767423111014068, 1.2519639889942482, 1.7170528850983828, 2.278828905080445, 2.8514020669972524, 3.5010339360451326, 4.119327333057299, 4.786332435091026, 5.407480401103385, 6.035774098010734, 6.692994473036379, 7.319912470062263, 7.952764152083546, 8.519321592058986, 9.175376959028654]",space,0.4329578740289435,CC,001,2019_Jul_22_1529,rev-kura_tap_2blocks,3.0.6,59.95861188142227,
./stimuli_2/tmp/perfect_95_0.wav,95,perfect,2.0105466277142785,,,,,,,,,0,18,18,30,,,,,,,,,,,,,,,"['space', 'space', 'space', 'space', 'space', 'space', 'space', 'space', 'space', 'space', 'space', 'space', 'space', 'space', 'space']","[0.5029194270027801, 1.0372192930663005, 1.619671026011929, 2.235768612008542, 2.836155274999328, 3.5036764580290765, 4.153373191016726, 4.786964494036511, 5.410197381977923, 6.054519391967915, 6.671259572962299, 7.270864316029474, 7.903741877991706, 8.52042151603382, 9.171425741980784]",space,0.6856820010580122,CC,001,2019_Jul_22_1529,rev-kura_tap_2blocks,3.0.6,59.95861188142227,
./stimuli_2/tmp/strong_100_4.wav,100,strong,1.3398198733573277,,,,,,,,,0,19,19,48,,,,,,,,,,,,,,,"['space', 'space', 'space', 'space', 'space', 'space', 'space', 'space', 'space', 'space', 'space', 'space', 'space', 'space', 'space', 'space']","[0.3025054009631276, 0.7742179720662534, 1.3195011260686442, 1.9196089740144089, 2.5030390999745578, 3.11894942400977, 3.7699259320506826, 4.376921460032463, 4.969862236990593, 5.58670580398757, 6.203508737962693, 6.804273109068163, 7.412608657963574, 8.037495319964364, 8.67120409803465, 9.271383356070146]",space,0.41798184101935476,CC,001,2019_Jul_22_1529,rev-kura_tap_2blocks,3.0.6,59.95861188142227,
./stimuli_2/tmp/perfect_105_1.wav,105,perfect,1.9598890814615504,,,,,,,,,0,20,20,13,,,,,,,,,,,,,,,"['space', 'space', 'space', 'space', 'space', 'space', 'space', 'space', 'space', 'space', 'space', 'space', 'space', 'space', 'space', 'space']","[0.5117304709274322, 1.0848702009534463, 1.5790428039617836, 2.1294084799010307, 2.695849713985808, 3.228695288999006, 3.8437990369275212, 4.362741672899574, 4.929907413898036, 5.512243683915585, 6.063099899911322, 6.664633307955228, 7.24656087893527, 7.813389410963282, 8.39730728790164, 8.91419308190234]",space,0.2810694919899106,CC,001,2019_Jul_22_1529,rev-kura_tap_2blocks,3.0.6,59.95861188142227,
./stimuli_2/tmp/strong_90_4.wav,90,strong,0.9547797326956972,,,,,,,,,0,21,21,44,,,,,,,,,,,,,,,"['space', 'space', 'space', 'space', 'space', 'space', 'space', 'space', 'space', 'space', 'space', 'space', 'space', 'space']","[0.47003959806170315, 1.0696245440049097, 1.7865421610185876, 2.5849287650780752, 3.236440061009489, 3.909993553068489, 4.5371154370950535, 5.20359317609109, 5.870370329008438, 6.585638852091506, 7.253625568002462, 7.954040070995688, 8.620595374028198, 9.343215174041688]",space,0.477367535000667,CC,001,2019_Jul_22_1529,rev-kura_tap_2blocks,3.0.6,59.95861188142227,
./stimuli_2/tmp/strong_105_3.wav,105,strong,1.2846849156286215,,,,,,,,,0,22,22,31,,,,,,,,,,,,,,,"['space', 'space', 'space', 'space', 'space', 'space', 'space', 'space', 'space', 'space', 'space', 'space', 'space', 'space', 'space', 'space', 'space']","[0.38546800694894046, 0.9189383470220491, 1.4517179019749165, 1.9689646189799532, 2.534977406030521, 3.126922491006553, 3.685767889022827, 4.253096683998592, 4.843750759959221, 5.386699242983013, 5.969413985963911, 6.518678023014218, 7.127119128941558, 7.686509249033406, 8.220114280004054, 8.770250638015568, 9.336767831933685]",space,0.4194219309138134,CC,001,2019_Jul_22_1529,rev-kura_tap_2blocks,3.0.6,59.95861188142227,
./stimuli_2/tmp/weak_100_3.wav,100,weak,0.8397616430138637,,,,,,,,,0,23,23,21,,,,,,,,,,,,,,,"['space', 'space', 'space', 'space', 'space', 'space', 'space', 'space', 'space', 'space', 'space', 'space', 'space', 'space', 'space', 'space']","[0.35698184999637306, 0.8015100300544873, 1.2857935649808496, 1.9273027459857985, 2.519302483065985, 3.169460976962, 3.8356319710146636, 4.435831837006845, 5.0362913539865986, 5.68687938596122, 6.2700035009766, 6.90289088699501, 7.537278295028955, 8.20130582107231, 8.83749668695964, 9.44430904102046]",space,0.40965264092665166,CC,001,2019_Jul_22_1529,rev-kura_tap_2blocks,3.0.6,59.95861188142227,
./stimuli_2/tmp/vweak_100_3.wav,100,veryweak,0.8472696952655959,,,,,,,,,0,24,24,5,,,,,,,,,,,,,,,"['space', 'space', 'space', 'space', 'space', 'space', 'space', 'space', 'space', 'space', 'space', 'space', 'space', 'space', 'space']","[0.2192001190269366, 0.8188387090340257, 1.5172198930522427, 2.156912047066726, 2.8022031760774553, 3.452018712996505, 4.135553739033639, 4.792384428088553, 5.436294167069718, 6.103195542003959, 6.807742536067963, 7.435820020036772, 8.03687496308703, 8.586672940058634, 9.284996818052605]",space,0.43524168990552425,CC,001,2019_Jul_22_1529,rev-kura_tap_2blocks,3.0.6,59.95861188142227,
./stimuli_2/tmp/perfect_105_0.wav,105,perfect,2.471825489115851,,,,,,,,,0,25,25,10,,,,,,,,,,,,,,,"['space', 'space', 'space', 'space', 'space', 'space', 'space', 'space', 'space', 'space', 'space', 'space', 'space', 'space', 'space', 'space']","[0.2845888719893992, 0.959218165022321, 1.5025033720303327, 2.0691576059907675, 2.6526637279894203, 3.2195953220361844, 3.769382148049772, 4.360562280984595, 4.933534978074022, 5.486967878066935, 6.052780649974011, 6.620007683057338, 7.203360175015405, 7.787168903974816, 8.353156237048097, 8.937030264060013]",space,0.427081247093156,CC,001,2019_Jul_22_1529,rev-kura_tap_2blocks,3.0.6,59.95861188142227,
./stimuli_2/tmp/perfect_110_0.wav,110,perfect,1.6760608294086363,,,,,,,,,0,26,26,14,,,,,,,,,,,,,,,"['space', 'space', 'space', 'space', 'space', 'space', 'space', 'space', 'space', 'space', 'space', 'space', 'space', 'space', 'space', 'space']","[0.3364969399990514, 0.9270034959772602, 1.4707156179938465, 2.020105162053369, 2.552722042077221, 3.1197391720488667, 3.654085703077726, 4.203103429055773, 4.737123855971731, 5.270686296047643, 5.810658365022391, 6.352482115034945, 6.9047723159892485, 7.437572663999163, 7.972829830017872, 8.55204424704425]",space,0.39276354503817856,CC,001,2019_Jul_22_1529,rev-kura_tap_2blocks,3.0.6,59.95861188142227,
./stimuli_2/tmp/strong_95_4.wav,95,strong,1.3122188661972012,,,,,,,,,0,27,27,19,,,,,,,,,,,,,,,"['space', 'space', 'space', 'space', 'space', 'space', 'space', 'space', 'space', 'space', 'space', 'space', 'space', 'space']","[0.4189442900242284, 0.918852748000063, 1.5851635420694947, 2.319090593024157, 3.0189754670718685, 3.6355588959995657, 4.369921510107815, 5.0529064510483295, 5.75254555803258, 6.452752581099048, 7.13634669710882, 7.836467812070623, 8.537076739012264, 9.263443421106786]",space,0.3694147310452536,CC,001,2019_Jul_22_1529,rev-kura_tap_2blocks,3.0.6,59.95861188142227,
./stimuli_2/tmp/strong_110_4.wav,110,strong,1.9935472881648024,,,,,,,,,0,28,28,9,,,,,,,,,,,,,,,"['space', 'space', 'space', 'space', 'space', 'space', 'space', 'space', 'space', 'space', 'space', 'space', 'space', 'space', 'space', 'space']","[0.2908769299974665, 0.8188998110126704, 1.3865416009211913, 1.9617154740262777, 2.5694037210196257, 3.1535882599418983, 3.7533810019958764, 4.376455442979932, 4.954172012978233, 5.553616642020643, 6.1198174259625375, 6.703860145993531, 7.301500248955563, 7.929224938969128, 8.519763006013818, 9.113515420933254]",space,0.40234759298618883,CC,001,2019_Jul_22_1529,rev-kura_tap_2blocks,3.0.6,59.95861188142227,
./stimuli_2/tmp/weak_95_3.wav,95,weak,1.2112449492962023,,,,,,,,,0,29,29,36,,,,,,,,,,,,,,,"['space', 'space', 'space', 'space', 'space', 'space', 'space', 'space', 'space', 'space', 'space', 'space', 'space', 'space']","[0.3094993440899998, 0.7518326169811189, 1.3354291580617428, 2.052915683016181, 2.7357345760101452, 3.469135523075238, 4.119906203006394, 4.8356186740566045, 5.519834934035316, 6.203542418079451, 6.919773109024391, 7.6036837780848145, 8.319406256079674, 9.036970464978367]",space,0.6180081570055336,CC,001,2019_Jul_22_1529,rev-kura_tap_2blocks,3.0.6,59.95861188142227,
./stimuli_2/tmp/vweak_100_4.wav,100,veryweak,1.7061160215264062,,,,,,,,,0,30,30,2,,,,,,,,,,,,,,,"['space', 'space', 'space', 'space', 'space', 'space', 'space', 'space', 'space', 'space', 'space', 'space', 'space', 'space', 'space', 'space', 'space', 'space', 'space']","[0.2952326440718025, 0.7796869539888576, 1.2126528760418296, 1.717086349031888, 2.1296312850899994, 2.596661544055678, 3.122040718095377, 3.6623794180341065, 4.163783152005635, 4.677809890010394, 5.163057506084442, 5.713774784002453, 6.24670728307683, 6.829526023007929, 7.313167445012368, 7.81271311105229, 8.329418429988436, 8.880889273015782, 9.414026763057336]",space,0.4832459380850196,CC,001,2019_Jul_22_1529,rev-kura_tap_2blocks,3.0.6,59.95861188142227,
./stimuli_2/tmp/medium_110_3.wav,110,medium,1.2616218191127295,,,,,,,,,0,31,31,11,,,,,,,,,,,,,,,"['space', 'space', 'space', 'space', 'space', 'space', 'space', 'space', 'space', 'space', 'space', 'space', 'space', 'space', 'space']","[0.30922689102590084, 0.7356608310947195, 1.4029506100341678, 2.0596277330769226, 2.7020869090920314, 3.36000187008176, 3.9861465920694172, 4.603053112048656, 5.2028258360223845, 5.825424893992022, 6.436321124085225, 7.070206716074608, 7.687138140085153, 8.360154144000262, 8.953894398990087]",space,0.40686774300411344,CC,001,2019_Jul_22_1529,rev-kura_tap_2blocks,3.0.6,59.95861188142227,
./stimuli_2/tmp/medium_95_4.wav,95,medium,1.5689377747074644,,,,,,,,,0,32,32,27,,,,,,,,,,,,,,,"['space', 'space', 'space', 'space', 'space', 'space', 'space', 'space', 'space', 'space', 'space', 'space', 'space', 'space']","[0.23560658399946988, 0.9523784320335835, 1.6396560440771282, 2.420276105054654, 3.1023696360643953, 3.7869372740387917, 4.4538233240600675, 5.14242137898691, 5.83717502199579, 6.493658545077778, 7.170542972045951, 7.870652234996669, 8.554421502049081, 9.18738914502319]",space,0.5021106359781697,CC,001,2019_Jul_22_1529,rev-kura_tap_2blocks,3.0.6,59.95861188142227,
./stimuli_2/tmp/vweak_95_3.wav,95,veryweak,2.160580057702042,,,,,,,,,0,33,33,32,,,,,,,,,,,,,,,"['space', 'space', 'space', 'space', 'space', 'space', 'space', 'space', 'space', 'space', 'space', 'space', 'space', 'space', 'space', 'space']","[0.2187353529734537, 0.7355199500452727, 1.167111971997656, 1.7196636169683188, 2.3191333620343357, 2.957915017963387, 3.550941945053637, 4.1363797639496624, 4.776410926016979, 5.386904570041224, 5.96910647302866, 6.576930359005928, 7.169768093037419, 7.770513872965239, 8.387275245040655, 8.974487547995523]",space,0.32530096999835223,CC,001,2019_Jul_22_1529,rev-kura_tap_2blocks,3.0.6,59.95861188142227,
./stimuli_2/tmp/medium_110_4.wav,110,medium,1.2412593574024813,,,,,,,,,0,34,34,8,,,,,,,,,,,,,,,"['space', 'space', 'space', 'space', 'space', 'space', 'space', 'space', 'space', 'space', 'space', 'space', 'space', 'space', 'space', 'space']","[0.4519181060604751, 1.0022862650221214, 1.5524257749784738, 2.102918249089271, 2.635954560013488, 3.2025199950439855, 3.757243719068356, 4.319427399081178, 4.903206459013745, 5.500043912092224, 6.069408155977726, 6.619964987039566, 7.203052898985334, 7.802479965030216, 8.372779778088443, 8.920444243005477]",space,0.4004037679405883,CC,001,2019_Jul_22_1529,rev-kura_tap_2blocks,3.0.6,59.95861188142227,
./stimuli_2/tmp/weak_110_4.wav,110,weak,1.2158046753843554,,,,,,,,,0,35,35,4,,,,,,,,,,,,,,,"['space', 'space', 'space', 'space', 'space', 'space', 'space', 'space', 'space', 'space', 'space', 'space', 'space', 'space', 'space', 'space', 'space']","[0.3014970950316638, 0.77751853200607, 1.2835214009974152, 1.6905696170870215, 2.2196308110142127, 2.7528184030670673, 3.35728293703869, 3.8855488561093807, 4.486329659004696, 5.087069238070399, 5.652499576099217, 6.186456605093554, 6.7701621101005, 7.3461192400427535, 7.937271750997752, 8.537121767061763, 9.136657616007142]",space,0.28572140098549426,CC,001,2019_Jul_22_1529,rev-kura_tap_2blocks,3.0.6,59.95861188142227,
./stimuli_2/tmp/weak_100_4.wav,100,weak,1.8643156091783653,,,,,,,,,0,36,36,33,,,,,,,,,,,,,,,"['space', 'space', 'space', 'space', 'space', 'space', 'space', 'space', 'space', 'space', 'space', 'space', 'space', 'space', 'space']","[0.25273189099971205, 0.902089606039226, 1.6674615379888564, 2.2666163929970935, 2.9022179500898346, 3.519361037062481, 4.202388994046487, 4.808682686998509, 5.386144433054142, 6.035989336087368, 6.669395262026228, 7.319611928076483, 7.91957538202405, 8.569546121987514, 9.220322426059283]",space,0.5687222639098763,CC,001,2019_Jul_22_1529,rev-kura_tap_2blocks,3.0.6,59.95861188142227,
./stimuli_2/tmp/perfect_100_0.wav,100,perfect,1.3424117839845908,,,,,,,,,0,37,37,3,,,,,,,,,,,,,,,"['space', 'space', 'space', 'space', 'space', 'space', 'space', 'space', 'space', 'space', 'space', 'space', 'space', 'space', 'space', 'space']","[0.4514466969994828, 1.0349864499876276, 1.5695074939867482, 2.1690525480080396, 2.7524946390185505, 3.361112762009725, 4.002703206031583, 4.585976075031795, 5.153452121070586, 5.786068407003768, 6.3449568710057065, 6.9196209569927305, 7.553273549070582, 8.136595213087276, 8.73651406809222, 9.326385691994801]",space,0.3018758239923045,CC,001,2019_Jul_22_1529,rev-kura_tap_2blocks,3.0.6,59.95861188142227,
./stimuli_2/tmp/vweak_90_3.wav,90,veryweak,0.8098621072043313,,,,,,,,,0,38,38,42,,,,,,,,,,,,,,,"['space', 'space', 'space', 'space', 'space', 'space', 'space', 'space', 'space', 'space', 'space', 'space', 'space', 'space', 'space']","[0.4852650249376893, 0.8239425820065662, 1.303462004987523, 1.840520664001815, 2.5343290029559284, 3.1691308829467744, 3.7858874349622056, 4.458194748964161, 5.052791447960772, 5.686845229007304, 6.403871665941551, 7.086808654945344, 7.759360687923618, 8.369977322989143, 8.98666663293261]",space,0.3351147180655971,CC,001,2019_Jul_22_1529,rev-kura_tap_2blocks,3.0.6,59.95861188142227,
./stimuli_2/tmp/weak_95_4.wav,95,weak,1.59401142701977,,,,,,,,,0,39,39,46,,,,,,,,,,,,,,,"['space', 'space', 'space', 'space', 'space', 'space', 'space', 'space', 'space', 'space', 'space', 'space', 'space']","[0.21213755605276674, 0.7461203900165856, 1.335227629984729, 2.1962370210094377, 2.905210427939892, 3.6294333409750834, 4.396504392963834, 5.145915857050568, 5.896874531055801, 6.580065630958416, 7.330103761982173, 8.063852360006422, 8.76324806897901]",space,0.4914838280528784,CC,001,2019_Jul_22_1529,rev-kura_tap_2blocks,3.0.6,59.95861188142227,
./stimuli_2/tmp/medium_105_4.wav,105,medium,1.8823047760740792,,,,,,,,,0,40,40,28,,,,,,,,,,,,,,,"['space', 'space', 'space', 'space', 'space', 'space', 'space', 'space', 'space', 'space', 'space', 'space', 'space', 'space', 'space', 'space']","[0.21889238303992897, 0.8866812289925292, 1.4834076589904726, 2.041572962072678, 2.5530919960001484, 3.153095960034989, 3.7363923320081085, 4.269663144019432, 4.869969016988762, 5.469621735974215, 6.085957764997147, 6.674633276066743, 7.235780716990121, 7.82018609798979, 8.403747180011123, 9.003482604050077]",space,0.701654955977574,CC,001,2019_Jul_22_1529,rev-kura_tap_2blocks,3.0.6,59.95861188142227,
./stimuli_2/tmp/weak_110_3.wav,110,weak,1.4034951095242638,,,,,,,,,0,41,41,0,,,,,,,,,,,,,,,"['space', 'space', 'space', 'space', 'space', 'space', 'space', 'space', 'space', 'space', 'space', 'space', 'space', 'space', 'space', 'space']","[0.21948808804154396, 0.7522593840258196, 1.3529180530458689, 1.902153211995028, 2.595541551010683, 3.169762043049559, 4.16987602005247, 4.560387874953449, 5.069534976966679, 5.670390125014819, 6.269356247037649, 6.920976712950505, 7.57585809903685, 8.204757882049307, 8.82015295396559, 9.470419905963354]",space,0.38525358005426824,CC,001,2019_Jul_22_1529,rev-kura_tap_2blocks,3.0.6,59.95861188142227,
./stimuli_2/tmp/weak_90_4.wav,90,weak,2.0685733483084743,,,,,,,,,0,42,42,16,,,,,,,,,,,,,,,"['space', 'space', 'space', 'space', 'space', 'space', 'space', 'space', 'space', 'space', 'space', 'space', 'space', 'space']","[0.23534108593594283, 1.1090135729173198, 1.8526905729668215, 2.5364097648998722, 3.1449551429832354, 3.836435660952702, 4.5698119279695675, 5.22000642598141, 5.90405677689705, 6.610617789905518, 7.270371088990942, 7.986903946963139, 8.653593648923561, 9.2950941339368]",space,0.4690882769646123,CC,001,2019_Jul_22_1529,rev-kura_tap_2blocks,3.0.6,59.95861188142227,
./stimuli_2/tmp/medium_100_4.wav,100,medium,1.1108721091211078,,,,,,,,,0,43,43,35,,,,,,,,,,,,,,,"['space', 'space', 'space', 'space', 'space', 'space', 'space', 'space', 'space', 'space', 'space', 'space', 'space', 'space', 'space']","[0.36933720496017486, 0.9359834960196167, 1.557360072969459, 2.18565339804627, 2.8702514320611954, 3.486972577054985, 4.103459962061606, 4.7533084250753745, 5.420086138998158, 6.0205718950601295, 6.660480565042235, 7.336198750999756, 7.988180510001257, 8.653840773040429, 9.320079655968584]",space,0.5026221630396321,CC,001,2019_Jul_22_1529,rev-kura_tap_2blocks,3.0.6,59.95861188142227,
./stimuli_2/tmp/vweak_110_4.wav,110,veryweak,1.4056094097142195,,,,,,,,,0,44,44,20,,,,,,,,,,,,,,,"['space', 'space', 'space', 'space', 'space', 'space', 'space', 'space', 'space', 'space', 'space', 'space', 'space', 'space', 'space', 'space', 'space']","[0.5692254661116749, 1.1900941610801965, 1.7697029340779409, 2.35698503209278, 2.9528839660342783, 3.502592345001176, 4.069612730061635, 4.536035978002474, 5.0536755580687895, 5.536010161042213, 6.1203879120294005, 6.6694784730207175, 7.220095590106212, 7.811648241011426, 8.38683191104792, 8.854265822097659, 9.371274078032002]",space,0.48511718993540853,CC,001,2019_Jul_22_1529,rev-kura_tap_2blocks,3.0.6,59.95861188142227,
./stimuli_2/tmp/vweak_90_4.wav,90,veryweak,2.01675312210347,,,,,,,,,0,45,45,47,,,,,,,,,,,,,,,"['space', 'space', 'space', 'space', 'space', 'space', 'space', 'space', 'space', 'space', 'space', 'space', 'space', 'space']","[0.2506195349851623, 0.7560006190324202, 1.2690336080268025, 1.9528634269954637, 2.6191408300073817, 3.3693249989300966, 4.069153152988292, 4.786421447992325, 5.5029062000103295, 6.252988127991557, 7.0374135540332645, 7.770052048028447, 8.48662030394189, 9.21794072794728]",space,0.46918882604222745,CC,001,2019_Jul_22_1529,rev-kura_tap_2blocks,3.0.6,59.95861188142227,
./stimuli_2/tmp/perfect_95_1.wav,95,perfect,1.6931350678865988,,,,,,,,,0,46,46,26,,,,,,,,,,,,,,,"['space', 'space', 'space', 'space', 'space', 'space', 'space', 'space', 'space', 'space', 'space', 'space', 'space', 'space', 'space']","[0.4504422869067639, 1.0355189869878814, 1.6190958810038865, 2.218601651955396, 2.88862868596334, 3.5028202818939462, 4.136163538903929, 4.752788832993247, 5.402444292907603, 6.052721369895153, 6.709408234921284, 7.336933987913653, 7.929565880913287, 8.570249469950795, 9.184909182949923]",space,0.4275141799589619,CC,001,2019_Jul_22_1529,rev-kura_tap_2blocks,3.0.6,59.95861188142227,
./stimuli_2/tmp/vweak_105_4.wav,105,veryweak,1.6327958275835193,,,,,,,,,0,47,47,12,,,,,,,,,,,,,,,"['space', 'space', 'space', 'space', 'space', 'space', 'space', 'space', 'space', 'space', 'space', 'space', 'space', 'space', 'space', 'space']","[0.3030268519651145, 0.7861515699187294, 1.353038382017985, 1.9530050070025027, 2.5361958489520475, 3.1196070979349315, 3.72658541391138, 4.2371637729229406, 4.83672680798918, 5.403815409983508, 6.036751198000275, 6.620516926981509, 7.204257245990448, 7.8366793629247695, 8.485746545018628, 9.053681987919845]",space,0.4251676120329648,CC,001,2019_Jul_22_1529,rev-kura_tap_2blocks,3.0.6,59.95861188142227,
./stimuli_2/tmp/medium_95_3.wav,95,medium,0.9787884089584356,,,,,,,,,0,48,48,18,,,,,,,,,,,,,,,"['space', 'space', 'space', 'space', 'space', 'space', 'space', 'space', 'space', 'space', 'space', 'space', 'space', 'space', 'space']","[0.2188463630154729, 0.7369255879893899, 1.2864918630803004, 1.9197033890523016, 2.52013162500225, 3.2199792470782995, 3.9203875040402636, 4.504242205992341, 5.153386753052473, 5.8040462620556355, 6.434582369984128, 7.0698828040622175, 7.787011221982539, 8.376205433974974, 9.004128840984777]",space,0.288980977027677,CC,001,2019_Jul_22_1529,rev-kura_tap_2blocks,3.0.6,59.95861188142227,
./stimuli_2/tmp/medium_90_4.wav,90,medium,1.4187547606829107,,,,,,,,,0,49,49,39,,,,,,,,,,,,,,,"['space', 'space', 'space', 'space', 'space', 'space', 'space', 'space', 'space', 'space', 'space', 'space', 'space', 'space', 'space']","[0.2088691380340606, 0.7519102370133623, 1.2694713009987026, 1.8948014080524445, 2.5193317090161145, 3.136508155032061, 3.7866506410064176, 4.45304482197389, 5.069960276945494, 5.720177031005733, 6.371487956028432, 7.003083714051172, 7.653315554955043, 8.277725463965908, 8.870355556951836]",space,0.41883257299195975,CC,001,2019_Jul_22_1529,rev-kura_tap_2blocks,3.0.6,59.95861188142227,
