sndfile,tempo,cond,delay,trials_practice.thisRepN,trials_practice.thisTrialN,trials_practice.thisN,trials_practice.thisIndex,trials.thisRepN,trials.thisTrialN,trials.thisN,trials.thisIndex,trials_2.thisRepN,trials_2.thisTrialN,trials_2.thisN,trials_2.thisIndex,key_resp_2.keys,key_resp_2.rt,key_resp_4.keys,key_resp_4.rt,key_resp_3.keys,key_resp_3.rt,key_resp_7.keys,key_resp_7.rt,key_resp_9.keys,key_resp_9.rt,key_resp_5.keys,key_resp_5.rt,key_resp_8.keys,key_resp_8.rt,key_resp_10.keys,key_resp_10.rt,key_resp_6.keys,key_resp_6.rt,participant,session,date,expName,psychopyVersion,frameRate,
,,,,,,,,,,,,,,,,space,9.4886423839489,,,,,,,,,,,,,,,,,DDDD,001,2019_Jul_23_1227,rev-kura_tap_2blocks,3.0.6,59.942128511618236,
./stimuli_1/tmp/medium_110_1.wav,110,medium,0.970866786,0,0,0,2,,,,,,,,,,,"['space', 'space', 'space', 'space', 'space', 'space', 'space', 'space', 'space', 'space', 'space', 'space', 'space']","[2.9355790740810335, 3.485881455009803, 4.067495480994694, 4.686380751081742, 5.203909668023698, 5.803003098000772, 6.386799292988144, 6.927919117035344, 7.520030639017932, 8.053712144028395, 8.652054817066528, 9.203394412994385, 9.820716838003136]",space,1.8488364120712504,,,,,,,,,,,,,DDDD,001,2019_Jul_23_1227,rev-kura_tap_2blocks,3.0.6,59.942128511618236,
./stimuli_1/tmp/medium_100_1.wav,100,medium,1.797198505,0,1,1,0,,,,,,,,,,,"['space', 'space', 'space', 'space', 'space', 'space', 'space', 'space', 'space', 'space', 'space', 'space', 'space', 'space']","[0.5185098419897258, 0.9854737989371642, 1.7350795309757814, 2.3948957129614428, 3.0355622799834237, 3.6517111170105636, 4.318514597020112, 4.985898952931166, 5.602633400005288, 6.261058497009799, 6.936217371025123, 7.585047981003299, 8.259963279939257, 8.86944613896776]",space,2.1590939490124583,,,,,,,,,,,,,DDDD,001,2019_Jul_23_1227,rev-kura_tap_2blocks,3.0.6,59.942128511618236,
./stimuli_1/tmp/vweak_105_1.wav,105,veryweak,1.91267155,0,2,2,3,,,,,,,,,,,"['space', 'space', 'space', 'space', 'space', 'space', 'space', 'space', 'space', 'space', 'space', 'space', 'space', 'space', 'space', 'space', 'space', 'space']","[0.4025888069299981, 1.169165508938022, 1.8077410380356014, 2.3861716479295865, 2.953467914951034, 3.5530190400313586, 4.169793498935178, 4.7438622409245, 5.3536326489411294, 5.954324470018037, 6.536943390965462, 7.120686726993881, 7.686355207930319, 8.295408415957354, 8.902795132016763, 9.50398271495942, 10.17066959303338, 10.821426420938224]",space,2.83691941795405,,,,,,,,,,,,,DDDD,001,2019_Jul_23_1227,rev-kura_tap_2blocks,3.0.6,59.942128511618236,
./stimuli_1/tmp/medium_110_1.wav,110,medium,1.222685394,0,3,3,4,,,,,,,,,,,"['space', 'space', 'space', 'space', 'space', 'space', 'space', 'space', 'space', 'space', 'space', 'space', 'space', 'space', 'space', 'space', 'space']","[0.8528322590282187, 1.6859519419958815, 2.2691377970622852, 2.875630134018138, 3.4533201210433617, 4.019654425093904, 4.636118866037577, 5.217972084064968, 5.786748766084202, 6.341502124094404, 6.936924210051075, 7.536729704006575, 8.103663536021486, 8.703724306076765, 9.236495471093804, 9.859482079045847, 10.50317972106859]",space,0.15279339102562517,,,,,,,,,,,,,DDDD,001,2019_Jul_23_1227,rev-kura_tap_2blocks,3.0.6,59.942128511618236,
./stimuli_1/tmp/strong_90_1.wav,90,strong,1.013023596,0,4,4,1,,,,,,,,,,,"['space', 'space', 'space', 'space', 'space', 'space', 'space', 'space', 'space', 'space', 'space', 'space', 'space', 'space', 'space']","[0.5525769019732252, 1.0027661559870467, 1.6528926390456036, 2.3681393529986963, 3.0694575919769704, 3.778438776032999, 4.435752250021324, 5.136023908038624, 5.8859663649927825, 6.587172518018633, 7.319357963977382, 8.036269244039431, 8.720331163029186, 9.403341725934297, 10.177533691981807]",space,0.41957843594718724,,,,,,,,,,,,,DDDD,001,2019_Jul_23_1227,rev-kura_tap_2blocks,3.0.6,59.942128511618236,
,,,,,,,,,,,,,,,,,,,,,,space,34.59050060797017,,,,,,,,,,,DDDD,001,2019_Jul_23_1227,rev-kura_tap_2blocks,3.0.6,59.942128511618236,
./stimuli_1/tmp/weak_90_1.wav,90,weak,1.282481392037714,,,,,0,0,0,29,,,,,,,,,,,,,"['space', 'space', 'space', 'space', 'space', 'space', 'space', 'space', 'space', 'space', 'space', 'space', 'space', 'space']","[0.9863158380612731, 1.4201085150707513, 2.18614222004544, 2.9511722730239853, 3.5698913719970733, 4.092402045032941, 4.753282844088972, 5.38677429407835, 5.920658358023502, 6.4707583100534976, 7.02109024010133, 7.680438630050048, 8.3038220530143, 8.937449323013425]",space,0.6198248459259048,,,,,,,DDDD,001,2019_Jul_23_1227,rev-kura_tap_2blocks,3.0.6,59.942128511618236,
./stimuli_1/tmp/perfect_95_0.wav,95,perfect,1.4400885785760469,,,,,0,1,1,26,,,,,,,,,,,,,"['space', 'space', 'space', 'space', 'space', 'space', 'space', 'space', 'space']","[0.668780931038782, 1.2018618939910084, 1.7692336039617658, 2.4030415050219744, 3.032841313048266, 3.610555376042612, 4.236032883054577, 4.868473698967136, 5.503944664960727]",space,0.35171290405560285,,,,,,,DDDD,001,2019_Jul_23_1227,rev-kura_tap_2blocks,3.0.6,59.942128511618236,
./stimuli_1/tmp/medium_105_2.wav,105,medium,0.8825097572066065,,,,,0,2,2,17,,,,,,,,,,,,,"['space', 'space', 'space', 'space', 'space', 'space', 'space', 'space', 'space', 'space', 'space', 'space', 'space', 'space']","[1.1219495519762859, 1.7654248629696667, 2.2812416369561106, 2.9466008509043604, 3.487772786989808, 4.048736978904344, 4.565438296995126, 5.148938150960021, 5.713409609976225, 6.398533872910775, 7.113647465943359, 7.864879732951522, 8.48184960091021, 9.0539505709894]",space,0.6959879980422556,,,,,,,DDDD,001,2019_Jul_23_1227,rev-kura_tap_2blocks,3.0.6,59.942128511618236,
./stimuli_1/tmp/weak_100_2.wav,100,weak,0.9744812486321696,,,,,0,3,3,20,,,,,,,,,,,,,"['space', 'space', 'space', 'space', 'space', 'space', 'space', 'space', 'space', 'space', 'space', 'space', 'space', 'space', 'space', 'space']","[0.48502560099586844, 0.9018607140751556, 1.4169090520590544, 1.9352464490802959, 2.5191696590045467, 3.086070448043756, 3.7923188590211794, 4.40274612500798, 5.017658262979239, 5.653061849065125, 6.253224960993975, 6.78687336598523, 7.392309672082774, 8.020047129015438, 8.686869004974142, 9.292167355073616]",space,0.3350418120389804,,,,,,,DDDD,001,2019_Jul_23_1227,rev-kura_tap_2blocks,3.0.6,59.942128511618236,
./stimuli_1/tmp/medium_95_1.wav,95,medium,1.3706215803300168,,,,,0,4,4,19,,,,,,,,,,,,,"['space', 'space', 'space', 'space', 'space', 'space', 'space', 'space', 'space', 'space', 'space', 'space', 'space', 'space']","[0.40245651500299573, 0.9197441970463842, 1.5029976760270074, 2.1367923279758543, 2.8583649550564587, 3.4866571840830147, 4.1613133560167626, 4.886906094034202, 5.570374303031713, 6.254560315981507, 6.904638361069374, 7.636933992034756, 8.27676313300617, 8.988356482004747]",space,0.35170935303904116,,,,,,,DDDD,001,2019_Jul_23_1227,rev-kura_tap_2blocks,3.0.6,59.942128511618236,
./stimuli_1/tmp/medium_90_2.wav,90,medium,2.1384331573709567,,,,,0,5,5,46,,,,,,,,,,,,,"['space', 'space', 'space', 'space', 'space', 'space', 'space', 'space', 'space', 'space', 'space', 'space', 'space', 'space']","[0.43584811605978757, 0.9861472840420902, 1.7095257750479504, 2.3533734660595655, 3.0208676570327953, 3.719719032989815, 4.436922347988002, 5.153505216003396, 5.819092971039936, 6.484613643027842, 7.187442081049085, 7.876799878082238, 8.58772701700218, 9.224479597993195]",space,1.6685671609593555,,,,,,,DDDD,001,2019_Jul_23_1227,rev-kura_tap_2blocks,3.0.6,59.942128511618236,
./stimuli_1/tmp/weak_95_2.wav,95,weak,1.3391653351857111,,,,,0,6,6,38,,,,,,,,,,,,,"['space', 'space', 'space', 'space', 'space', 'space', 'space', 'space', 'space', 'space', 'space', 'space', 'space', 'space']","[0.40133548399899155, 1.0021988359512761, 1.4526802130276337, 2.052645953022875, 2.686035049962811, 3.336449253023602, 4.1033801570301875, 4.768831665976904, 5.419735476956703, 6.103377409977838, 6.886585009051487, 7.687011352973059, 8.369046695064753, 9.08728792204056]",space,0.5124083259142935,,,,,,,DDDD,001,2019_Jul_23_1227,rev-kura_tap_2blocks,3.0.6,59.942128511618236,
./stimuli_1/tmp/vweak_90_1.wav,90,veryweak,0.8362780865168179,,,,,0,7,7,34,,,,,,,,,,,,,"['space', 'space', 'space', 'space', 'space', 'space', 'space', 'space', 'space', 'space', 'space', 'space', 'space']","[0.6233414709568024, 1.202012600027956, 1.9568312759511173, 2.7027286649681628, 3.4351807379862294, 4.186838401015848, 4.902526960941032, 5.686432310962118, 6.452776261954568, 7.13710054603871, 7.8700419110246, 8.57955561496783, 9.287098334985785]",space,0.5603890339843929,,,,,,,DDDD,001,2019_Jul_23_1227,rev-kura_tap_2blocks,3.0.6,59.942128511618236,
./stimuli_1/tmp/strong_105_1.wav,105,strong,1.8750845453371756,,,,,0,8,8,25,,,,,,,,,,,,,"['space', 'space', 'space', 'space', 'space', 'space', 'space', 'space', 'space', 'space', 'space', 'space', 'space', 'space', 'space', 'space', 'space']","[0.46834286698140204, 1.1026908259373158, 1.6366615149891004, 2.1912049719830975, 2.7363444439833984, 3.2704728370299563, 3.8413441570010036, 4.353250261978246, 4.887744804029353, 5.403867417015135, 5.9870919729582965, 6.553635598975234, 7.086399963009171, 7.644996798946522, 8.153953486005776, 8.753747491980903, 9.303670514957048]",space,0.3526223369408399,,,,,,,DDDD,001,2019_Jul_23_1227,rev-kura_tap_2blocks,3.0.6,59.942128511618236,
./stimuli_1/tmp/strong_100_2.wav,100,strong,1.5994648074282498,,,,,0,9,9,42,,,,,,,,,,,,,"['space', 'space', 'space', 'space', 'space', 'space', 'space', 'space', 'space', 'space', 'space', 'space', 'space', 'space', 'space', 'space']","[0.4186309650540352, 0.7855384660651907, 1.1919750750530511, 1.801991714979522, 2.4020538240438327, 3.0348863949766383, 3.652029055985622, 4.275085504050367, 4.86929338099435, 5.4864314490696415, 6.102707106037997, 6.719627470010892, 7.352526303962804, 7.952875499962829, 8.587242161040194, 9.170763383968733]",space,0.4688002150505781,,,,,,,DDDD,001,2019_Jul_23_1227,rev-kura_tap_2blocks,3.0.6,59.942128511618236,
./stimuli_1/tmp/strong_100_1.wav,100,strong,1.2298337616078612,,,,,0,10,10,37,,,,,,,,,,,,,"['space', 'space', 'space', 'space', 'space', 'space', 'space', 'space', 'space', 'space', 'space', 'space', 'space', 'space', 'space']","[0.41935437300708145, 0.8363650350365788, 1.368305161013268, 2.0403994820080698, 2.6701822980539873, 3.3034745031036437, 3.9687591700349003, 4.628333972999826, 5.269604364060797, 5.936980187078007, 6.569625053089112, 7.2083287260029465, 7.853507117019035, 8.519685580045916, 9.208777372026816]",space,0.502739974996075,,,,,,,DDDD,001,2019_Jul_23_1227,rev-kura_tap_2blocks,3.0.6,59.942128511618236,
./stimuli_1/tmp/medium_90_1.wav,90,medium,1.3827594725962091,,,,,0,11,11,49,,,,,,,,,,,,,"['space', 'space', 'space', 'space', 'space', 'space', 'space', 'space', 'space', 'space', 'space', 'space', 'space', 'space']","[0.40225536096841097, 0.8234989369520918, 1.319405023008585, 2.0199259410146624, 2.7242107219062746, 3.4870294539723545, 4.167720788973384, 4.802137125981972, 5.506514940992929, 6.203055307967588, 6.9364949009614065, 7.652709065005183, 8.336980670923367, 9.03738320490811]",space,0.36934765498153865,,,,,,,DDDD,001,2019_Jul_23_1227,rev-kura_tap_2blocks,3.0.6,59.942128511618236,
./stimuli_1/tmp/perfect_110_0.wav,110,perfect,1.8837210676143408,,,,,0,12,12,16,,,,,,,,,,,,,"['space', 'space', 'space', 'space', 'space', 'space', 'space', 'space', 'space']","[0.4020239081000909, 0.784937966032885, 1.1068771720165387, 1.6527404490625486, 2.1859776130877435, 2.7571861890610307, 3.2871487960219383, 3.820095138042234, 4.402886681025848]",space,0.38539041799958795,,,,,,,DDDD,001,2019_Jul_23_1227,rev-kura_tap_2blocks,3.0.6,59.942128511618236,
./stimuli_1/tmp/vweak_110_1.wav,110,veryweak,1.3407186132175697,,,,,0,13,13,32,,,,,,,,,,,,,"['space', 'space', 'space', 'space', 'space', 'space', 'space', 'space', 'space', 'space', 'space', 'space', 'space', 'space', 'space']","[0.4574073579860851, 1.269788802950643, 1.8356626559980214, 2.2699404859449714, 2.7536623439518735, 3.4115620208904147, 4.186680554994382, 4.90239320800174, 5.493841624003835, 6.019997490919195, 6.520441297907382, 7.103994092904031, 7.803588164970279, 8.37534747691825, 8.936905054957606]",space,0.47316601395141333,,,,,,,DDDD,001,2019_Jul_23_1227,rev-kura_tap_2blocks,3.0.6,59.942128511618236,
./stimuli_1/tmp/weak_100_1.wav,100,weak,0.9200911357943652,,,,,0,14,14,15,,,,,,,,,,,,,"['space', 'space', 'space', 'space', 'space', 'space', 'space', 'space', 'space', 'space', 'space', 'space']","[2.268180390005, 2.886665433063172, 3.5005519640399143, 4.102407376980409, 4.7528075620066375, 5.268954855040647, 5.9027396410238, 6.523987999069504, 7.136736009037122, 7.736454804078676, 8.352665208978578, 9.036745527992025]",space,0.41160530503839254,,,,,,,DDDD,001,2019_Jul_23_1227,rev-kura_tap_2blocks,3.0.6,59.942128511618236,
./stimuli_1/tmp/perfect_105_1.wav,105,perfect,1.612711409659772,,,,,0,15,15,13,,,,,,,,,,,,,"['space', 'space', 'space', 'space', 'space', 'space', 'space', 'space']","[0.7689485610462725, 1.3684999500401318, 1.885590250021778, 2.485487497993745, 3.0188772319816053, 3.6352802889887244, 4.21039078803733, 4.769786998978816]",space,0.519543515983969,,,,,,,DDDD,001,2019_Jul_23_1227,rev-kura_tap_2blocks,3.0.6,59.942128511618236,
./stimuli_1/tmp/strong_110_1.wav,110,strong,2.342405954917332,,,,,0,16,16,8,,,,,,,,,,,,,"['space', 'space', 'space', 'space', 'space', 'space', 'space', 'space', 'space', 'space', 'space', 'space', 'space', 'space', 'space']","[0.8678276449209079, 1.6693154108943418, 2.2021471390035003, 2.82811567094177, 3.3851741258986294, 3.9858360649086535, 4.535491342889145, 5.1035159738967195, 5.71995946590323, 6.25393606396392, 6.827701047994196, 7.4530748289544135, 7.986073960899375, 8.58609986898955, 9.137316439999267]",space,0.5932735620299354,,,,,,,DDDD,001,2019_Jul_23_1227,rev-kura_tap_2blocks,3.0.6,59.942128511618236,
./stimuli_1/tmp/vweak_105_1.wav,105,veryweak,2.000868469173824,,,,,0,17,17,7,,,,,,,,,,,,,"['space', 'space', 'space', 'space', 'space', 'space', 'space', 'space', 'space', 'space', 'space', 'space', 'space', 'space', 'space']","[0.45238324895035475, 1.1029803809942678, 1.7684634749311954, 2.386033038957976, 2.96924563893117, 3.585017942939885, 4.135874888976105, 4.793022349011153, 5.352244239998981, 5.919887571944855, 6.453333501936868, 7.086389350006357, 7.720539122936316, 8.312758420943283, 8.887708800029941]",space,0.5664429970784113,,,,,,,DDDD,001,2019_Jul_23_1227,rev-kura_tap_2blocks,3.0.6,59.942128511618236,
./stimuli_1/tmp/medium_105_1.wav,105,medium,1.6663985327680324,,,,,0,18,18,21,,,,,,,,,,,,,"['space', 'space', 'space', 'space', 'space', 'space', 'space', 'space', 'space', 'space', 'space', 'space', 'space', 'space', 'space']","[1.4014635320054367, 1.8353656380204484, 2.3337232109624892, 2.919500026968308, 3.452274576993659, 4.0193368080072105, 4.5855202520033345, 5.127931241993792, 5.702886819955893, 6.319062873953953, 6.901985163916834, 7.502352974028327, 8.052478841971606, 8.636658189934678, 9.186824321979657]",space,0.5533354250947013,,,,,,,DDDD,001,2019_Jul_23_1227,rev-kura_tap_2blocks,3.0.6,59.942128511618236,
./stimuli_1/tmp/weak_95_1.wav,95,weak,1.9726481258285025,,,,,0,19,19,43,,,,,,,,,,,,,"['space', 'space', 'space', 'space', 'space', 'space', 'space', 'space', 'space', 'space', 'space', 'space', 'space']","[0.8191866429988295, 1.5341293150559068, 2.2524934840621427, 2.919272889965214, 3.636289590038359, 4.260591358062811, 4.919730231049471, 5.552306627039798, 6.2200623659882694, 6.893467543064617, 7.603140432038344, 8.292208841070533, 8.953959731967188]",space,0.3522447859868407,,,,,,,DDDD,001,2019_Jul_23_1227,rev-kura_tap_2blocks,3.0.6,59.942128511618236,
./stimuli_1/tmp/strong_95_2.wav,95,strong,1.1173507911145857,,,,,0,20,20,27,,,,,,,,,,,,,"['space', 'space', 'space', 'space', 'space', 'space', 'space', 'space', 'space', 'space', 'space', 'space', 'space']","[1.069440108956769, 1.785769609035924, 2.453192468965426, 3.119857229059562, 3.7526907050050795, 4.4368438749806955, 5.119818557053804, 5.7867696799803525, 6.486610983032733, 7.1200973719824106, 7.8117863580118865, 8.42089375096839, 9.119928086991422]",space,0.39229523902758956,,,,,,,DDDD,001,2019_Jul_23_1227,rev-kura_tap_2blocks,3.0.6,59.942128511618236,
./stimuli_1/tmp/weak_110_1.wav,110,weak,2.302762081100819,,,,,0,21,21,3,,,,,,,,,,,,,"['space', 'space', 'space', 'space', 'space', 'space', 'space', 'space', 'space', 'space', 'space', 'space', 'space', 'space', 'space']","[1.2351922550005838, 1.7689958510454744, 2.3523777700029314, 2.9195372390095145, 3.4695110640022904, 4.075361374067143, 4.685439925058745, 5.252772712032311, 5.834504603059031, 6.43590058805421, 7.0366130829788744, 7.6085469300160185, 8.170236560050398, 8.787041748990305, 9.40282230800949]",space,0.37633670098148286,,,,,,,DDDD,001,2019_Jul_23_1227,rev-kura_tap_2blocks,3.0.6,59.942128511618236,
./stimuli_1/tmp/strong_90_1.wav,90,strong,1.0878185010355936,,,,,0,22,22,41,,,,,,,,,,,,,"['space', 'space', 'space', 'space', 'space', 'space', 'space', 'space', 'space', 'space', 'space', 'space', 'space']","[0.886212190031074, 1.6407173679908738, 2.335849556955509, 3.05265370500274, 3.7690795050002635, 4.468995986040682, 5.186375729972497, 5.919959377963096, 6.569840825977735, 7.302920024958439, 8.019341493956745, 8.728132189018652, 9.420025171944872]",space,0.5522641260176897,,,,,,,DDDD,001,2019_Jul_23_1227,rev-kura_tap_2blocks,3.0.6,59.942128511618236,
./stimuli_1/tmp/weak_110_2.wav,110,weak,1.1450489585925383,,,,,0,23,23,0,,,,,,,,,,,,,"['space', 'space', 'space', 'space', 'space', 'space', 'space', 'space', 'space', 'space', 'space', 'space', 'space', 'space', 'space', 'space', 'space']","[0.7971140769077465, 1.7142373418901116, 2.2304206169210374, 2.730792539892718, 3.3310014460003003, 3.746831032913178, 4.197164164972492, 4.7049841459374875, 5.179835356888361, 5.63095825992059, 6.153438724926673, 6.581209599971771, 7.054059449932538, 7.54778768599499, 8.037479755934328, 8.5304647089215, 9.048779136966914]",space,0.5524547789245844,,,,,,,DDDD,001,2019_Jul_23_1227,rev-kura_tap_2blocks,3.0.6,59.942128511618236,
./stimuli_1/tmp/perfect_105_0.wav,105,perfect,2.376167666662905,,,,,0,24,24,11,,,,,,,,,,,,,"['space', 'space', 'space', 'space', 'space', 'space', 'space', 'space']","[0.7237091748975217, 1.2858468809863552, 1.8357098218984902, 2.419653491000645, 3.0030230049742386, 3.5525698428973556, 4.159361840924248, 4.736315736896358]",space,0.4031988779315725,,,,,,,DDDD,001,2019_Jul_23_1227,rev-kura_tap_2blocks,3.0.6,59.942128511618236,
./stimuli_1/tmp/strong_110_2.wav,110,strong,1.9369911731854192,,,,,0,25,25,6,,,,,,,,,,,,,"['space', 'space', 'space', 'space', 'space', 'space', 'space', 'space', 'space', 'space', 'space', 'space', 'space', 'space', 'space']","[0.9598856589291245, 1.652012791018933, 2.219191232929006, 2.819416209938936, 3.4121964479563758, 4.019184935954399, 4.603171057999134, 5.152954982011579, 5.7530047439504415, 6.392764303018339, 6.952957872999832, 7.502530372934416, 8.119962535914965, 8.686740661971271, 9.269895653938875]",space,0.4919989570043981,,,,,,,DDDD,001,2019_Jul_23_1227,rev-kura_tap_2blocks,3.0.6,59.942128511618236,
./stimuli_1/tmp/perfect_90_0.wav,90,perfect,1.6568604876231643,,,,,0,26,26,35,,,,,,,,,,,,,"['space', 'space', 'space', 'space', 'space', 'space', 'space', 'space', 'space']","[0.7192315639695153, 1.3022288549691439, 1.9856619089841843, 2.668430346995592, 3.319948299904354, 3.9860932019073516, 4.685967328958213, 5.284418369992636, 6.0201447459403425]",space,0.3851253920001909,,,,,,,DDDD,001,2019_Jul_23_1227,rev-kura_tap_2blocks,3.0.6,59.942128511618236,
./stimuli_1/tmp/weak_90_2.wav,90,weak,2.0384375203910188,,,,,0,27,27,23,,,,,,,,,,,,,"['space', 'space', 'space', 'space', 'space', 'space', 'space', 'space', 'space', 'space', 'space', 'space', 'space']","[1.168103864067234, 1.7356464120093733, 2.3693096661008894, 3.0685337600298226, 3.718865554081276, 4.353003223077394, 5.036411620094441, 5.619416068075225, 6.3031255340902135, 6.986572857014835, 7.635736195021309, 8.270040778093971, 8.92034865100868]",space,0.5640016959514469,,,,,,,DDDD,001,2019_Jul_23_1227,rev-kura_tap_2blocks,3.0.6,59.942128511618236,
./stimuli_1/tmp/medium_95_2.wav,95,medium,2.475357682924177,,,,,0,28,28,14,,,,,,,,,,,,,"['space', 'space', 'space', 'space', 'space', 'space', 'space', 'space', 'space', 'space', 'space', 'space', 'space']","[0.8005453669466078, 1.3201933759264648, 2.0031968969851732, 2.7701759779592976, 3.4099740039091557, 4.18732118292246, 4.87040627701208, 5.542829667916521, 6.2203887309879065, 6.953896082006395, 7.6373498879838735, 8.270619943970814, 8.979301117942668]",space,0.4184540780261159,,,,,,,DDDD,001,2019_Jul_23_1227,rev-kura_tap_2blocks,3.0.6,59.942128511618236,
./stimuli_1/tmp/weak_105_2.wav,105,weak,2.065051120273794,,,,,0,29,29,48,,,,,,,,,,,,,"['space', 'space', 'space', 'space', 'space', 'space', 'space', 'space', 'space', 'space', 'space', 'space', 'space', 'space', 'space', 'space']","[0.4594081559916958, 0.8777032910147682, 1.3452095940010622, 1.8629237259738147, 2.4115422329632565, 2.983895982033573, 3.645275905029848, 4.228847995051183, 4.962760125985369, 5.63695000403095, 6.245961637003347, 6.827522587031126, 7.412936188979074, 8.000927246990614, 8.579847585060634, 9.230039666057564]",space,0.5858802089933306,,,,,,,DDDD,001,2019_Jul_23_1227,rev-kura_tap_2blocks,3.0.6,59.942128511618236,
./stimuli_1/tmp/perfect_90_1.wav,90,perfect,0.8790589196072783,,,,,0,30,30,39,,,,,,,,,,,,,"['space', 'space', 'space', 'space', 'space', 'space', 'space', 'space', 'space']","[0.7763115810230374, 1.3176178559660912, 1.9695788059616461, 2.63571853202302, 3.319164833985269, 3.936013789032586, 4.625261742039584, 5.270826871972531, 5.953849688055925]",space,0.8238156560109928,,,,,,,DDDD,001,2019_Jul_23_1227,rev-kura_tap_2blocks,3.0.6,59.942128511618236,
./stimuli_1/tmp/perfect_110_1.wav,110,perfect,1.7704271467992068,,,,,0,31,31,18,,,,,,,,,,,,,"['space', 'space', 'space', 'space', 'space', 'space', 'space', 'space']","[0.7643519210396335, 1.170652482076548, 1.6814419319853187, 2.18298554897774, 2.7317898250184953, 3.2981794649967924, 3.8145452389726415, 4.348107209079899]",space,0.353124164044857,,,,,,,DDDD,001,2019_Jul_23_1227,rev-kura_tap_2blocks,3.0.6,59.942128511618236,
./stimuli_1/tmp/vweak_105_2.wav,105,veryweak,1.1450150374808907,,,,,0,32,32,9,,,,,,,,,,,,,"['space', 'space', 'space', 'space', 'space', 'space', 'space', 'space', 'space', 'space', 'space', 'space', 'space', 'space']","[0.7684326809830964, 1.2184413679642603, 1.883400450926274, 2.5350649659521878, 3.1913250249344856, 3.7858014160301536, 4.469403867027722, 5.136586415930651, 5.776756929932162, 6.402885362971574, 7.035895916982554, 7.643723669927567, 8.35198589193169, 8.93422409100458]",space,0.3527752630179748,,,,,,,DDDD,001,2019_Jul_23_1227,rev-kura_tap_2blocks,3.0.6,59.942128511618236,
./stimuli_1/tmp/vweak_100_2.wav,100,veryweak,0.9843923106260049,,,,,0,33,33,5,,,,,,,,,,,,,"['space', 'space', 'space', 'space', 'space', 'space', 'space', 'space', 'space', 'space', 'space', 'space', 'space', 'space']","[0.8249734729761258, 1.3852737549459562, 2.0205257069319487, 2.702456463011913, 3.302137196995318, 3.969637344009243, 4.568947847932577, 5.186572056962177, 5.853410771000199, 6.476296207983978, 7.069282482960261, 7.720068451948464, 8.369828101014718, 8.975713034975342]",space,0.5439831190742552,,,,,,,DDDD,001,2019_Jul_23_1227,rev-kura_tap_2blocks,3.0.6,59.942128511618236,
./stimuli_1/tmp/perfect_100_0.wav,100,perfect,2.1771183722066985,,,,,0,34,34,2,,,,,,,,,,,,,"['space', 'space', 'space', 'space', 'space', 'space', 'space', 'space']","[0.9024354609427974, 1.535562515957281, 2.1189843059983104, 2.670038779033348, 3.291247189976275, 3.9166798290098086, 4.469559079036117, 5.102412394946441]",space,0.5531386469956487,,,,,,,DDDD,001,2019_Jul_23_1227,rev-kura_tap_2blocks,3.0.6,59.942128511618236,
./stimuli_1/tmp/perfect_95_1.wav,95,perfect,0.8659592093324232,,,,,0,35,35,22,,,,,,,,,,,,,"['space', 'space', 'space', 'space', 'space', 'space', 'space', 'space']","[1.0354546650778502, 1.7015854000346735, 2.3405078580835834, 2.986344942008145, 3.618223340017721, 4.236008445033804, 4.857186502078548, 5.502393649076112]",space,0.7374831390334293,,,,,,,DDDD,001,2019_Jul_23_1227,rev-kura_tap_2blocks,3.0.6,59.942128511618236,
./stimuli_1/tmp/vweak_95_1.wav,95,veryweak,2.279644213301781,,,,,0,36,36,24,,,,,,,,,,,,,"['space', 'space', 'space', 'space', 'space', 'space', 'space', 'space', 'space', 'space', 'space', 'space', 'space', 'space', 'space']","[0.5019800330046564, 0.9858291869750246, 1.4690034500090405, 2.052562577999197, 2.6351389680057764, 3.235184201039374, 3.8504663279745728, 4.4357347909826785, 5.092209512018599, 5.6865886530140415, 6.3445637370459735, 6.953767362050712, 7.536959063028917, 8.120104008936323, 8.802522487007082]",space,0.5120042039779946,,,,,,,DDDD,001,2019_Jul_23_1227,rev-kura_tap_2blocks,3.0.6,59.942128511618236,
./stimuli_1/tmp/strong_90_2.wav,90,strong,1.29545815814535,,,,,0,37,37,36,,,,,,,,,,,,,"['space', 'space', 'space', 'space', 'space', 'space', 'space', 'space', 'space', 'space', 'space', 'space', 'space', 'space']","[0.902610071003437, 1.5531088780844584, 2.185259970021434, 2.8077924280660227, 3.452806155080907, 4.109694239101373, 4.785413385019638, 5.470652441028506, 6.087067662039772, 6.775257983012125, 7.436910349060781, 8.053267642040737, 8.703382198000327, 9.35313429008238]",space,0.5858259870437905,,,,,,,DDDD,001,2019_Jul_23_1227,rev-kura_tap_2blocks,3.0.6,59.942128511618236,
./stimuli_1/tmp/strong_105_2.wav,105,strong,0.9615404084728899,,,,,0,38,38,31,,,,,,,,,,,,,"['space', 'space', 'space', 'space', 'space', 'space', 'space', 'space', 'space', 'space', 'space', 'space', 'space', 'space']","[0.8190581129165366, 1.1914000819670036, 1.8192076749401167, 2.5189060679404065, 3.1357214469462633, 3.778468202915974, 4.436154862982221, 5.036154127912596, 5.720024941954762, 6.369896748918109, 7.003784505999647, 7.627709982916713, 8.303616873919964, 8.953513390966691]",space,0.5348949130857363,,,,,,,DDDD,001,2019_Jul_23_1227,rev-kura_tap_2blocks,3.0.6,59.942128511618236,
./stimuli_1/tmp/strong_95_1.wav,95,strong,1.2238592690797745,,,,,0,39,39,33,,,,,,,,,,,,,"['space', 'space', 'space', 'space', 'space', 'space', 'space', 'space', 'space', 'space', 'space', 'space', 'space', 'space', 'space']","[0.8535235500894487, 1.2696421620203182, 1.8533481049817055, 2.4533182410523295, 3.0697445750702173, 3.6700237640179694, 4.287468374008313, 4.858229059027508, 5.453565085073933, 6.070820856024511, 6.703958568978123, 7.270885465084575, 7.854178791982122, 8.537648332072422, 9.087523361085914]",space,0.5117270200280473,,,,,,,DDDD,001,2019_Jul_23_1227,rev-kura_tap_2blocks,3.0.6,59.942128511618236,
./stimuli_1/tmp/weak_105_1.wav,105,weak,2.3476680969619683,,,,,0,40,40,45,,,,,,,,,,,,,"['space', 'space', 'space', 'space', 'space', 'space', 'space', 'space', 'space', 'space', 'space', 'space', 'space', 'space']","[0.835748007055372, 1.4697561550419778, 1.9862417039694265, 2.5028159780194983, 3.1581042390316725, 3.7868141860235482, 4.469984292052686, 5.0698207300156355, 5.691526561975479, 6.370756653952412, 6.986672415048815, 7.627531195990741, 8.236496716970578, 9.004511423991062]",space,0.6421264060772955,,,,,,,DDDD,001,2019_Jul_23_1227,rev-kura_tap_2blocks,3.0.6,59.942128511618236,
./stimuli_1/tmp/medium_110_1.wav,110,medium,1.6223651347148935,,,,,0,41,41,10,,,,,,,,,,,,,"['space', 'space', 'space', 'space', 'space', 'space', 'space', 'space', 'space', 'space', 'space', 'space', 'space', 'space', 'space', 'space']","[0.4144390990259126, 1.031092346063815, 1.6483583659864962, 2.2479896990116686, 2.870778811047785, 3.481220173998736, 4.014886706019752, 4.615999620058574, 5.182228078017943, 5.748427576967515, 6.3701966849621385, 6.91548199695535, 7.498704022960737, 8.081741917994805, 8.631875007995404, 9.199064490036108]",space,0.5014670670498163,,,,,,,DDDD,001,2019_Jul_23_1227,rev-kura_tap_2blocks,3.0.6,59.942128511618236,
./stimuli_1/tmp/medium_110_2.wav,110,medium,1.962096670593472,,,,,0,42,42,12,,,,,,,,,,,,,"['space', 'space', 'space', 'space', 'space', 'space', 'space', 'space', 'space', 'space', 'space', 'space', 'space', 'space', 'space', 'space', 'space']","[0.4130672109313309, 0.879942882922478, 1.2795545679982752, 1.8457419159822166, 2.3968455910217017, 3.119823490967974, 3.64669263898395, 4.1640379269374534, 4.701744738034904, 5.263878942932934, 5.847220947034657, 6.464329720009118, 7.005247547989711, 7.514749419991858, 8.10681810497772, 8.680600245948881, 9.297320171957836]",space,0.5310337479459122,,,,,,,DDDD,001,2019_Jul_23_1227,rev-kura_tap_2blocks,3.0.6,59.942128511618236,
./stimuli_1/tmp/perfect_100_1.wav,100,perfect,2.462429502310373,,,,,0,43,43,1,,,,,,,,,,,,,"['space', 'space', 'space', 'space', 'space', 'space', 'space', 'space']","[0.8852237149840221, 1.5021684630773962, 2.11981303000357, 2.7192237559938803, 3.319883950985968, 3.886892660986632, 4.518856376991607, 5.120102365035564]",space,0.4689656120026484,,,,,,,DDDD,001,2019_Jul_23_1227,rev-kura_tap_2blocks,3.0.6,59.942128511618236,
./stimuli_1/tmp/vweak_110_2.wav,110,veryweak,1.2375564653250335,,,,,0,44,44,28,,,,,,,,,,,,,"['space', 'space', 'space', 'space', 'space', 'space', 'space', 'space', 'space', 'space', 'space', 'space', 'space', 'space', 'space', 'space']","[0.9784226889023557, 1.5451024289941415, 2.0616489519597962, 2.611612238921225, 3.159332744893618, 3.694533033994958, 4.244824992958456, 4.7956653439905494, 5.362123962957412, 5.995954982936382, 6.633807229925878, 7.328332154895179, 7.896505949902348, 8.47899770992808, 9.05142484093085, 10.980261244927533]",space,0.7353590369457379,,,,,,,DDDD,001,2019_Jul_23_1227,rev-kura_tap_2blocks,3.0.6,59.942128511618236,
./stimuli_1/tmp/vweak_100_1.wav,100,veryweak,1.441965324529146,,,,,0,45,45,4,,,,,,,,,,,,,"['space', 'space', 'space', 'space', 'space', 'space', 'space', 'space', 'space', 'space', 'space', 'space', 'space']","[0.8090717730810866, 1.8358844210160896, 2.3119371440261602, 2.768898676033132, 3.3440744440304115, 3.8699635789962485, 4.436216637026519, 5.063049004995264, 5.653755331062712, 6.169987376080826, 6.686676140059717, 7.269458575057797, 8.651697801076807]",space,0.4183517899364233,,,,,,,DDDD,001,2019_Jul_23_1227,rev-kura_tap_2blocks,3.0.6,59.942128511618236,
./stimuli_1/tmp/medium_100_1.wav,100,medium,0.9469441789171564,,,,,0,46,46,47,,,,,,,,,,,,,"['space', 'space', 'space', 'space', 'space', 'space', 'space', 'space', 'space', 'space', 'space', 'space', 'space']","[1.0921999160200357, 1.7756586410105228, 2.409474845044315, 3.0651676040142775, 3.6748570969793946, 4.326914947945625, 4.960028458968736, 5.609711803030223, 6.292555961990729, 6.926948872976936, 7.5771544829476625, 8.276581087964587, 8.876956664025784]",space,0.36816824809648097,,,,,,,DDDD,001,2019_Jul_23_1227,rev-kura_tap_2blocks,3.0.6,59.942128511618236,
./stimuli_1/tmp/vweak_95_2.wav,95,veryweak,1.1399322262275913,,,,,0,47,47,30,,,,,,,,,,,,,"['space', 'space', 'space', 'space', 'space', 'space', 'space', 'space', 'space', 'space', 'space', 'space', 'space', 'space', 'space']","[0.48544082895386964, 1.1049243989400566, 1.7685118209337816, 2.4190834820037708, 3.0740384840173647, 3.7183931149775162, 4.33583161898423, 4.952332980930805, 5.553418968920596, 6.1948551629902795, 6.803092042915523, 7.470723318983801, 8.077292226953432, 8.684435945935547, 9.320902480976656]",space,0.2610447610495612,,,,,,,DDDD,001,2019_Jul_23_1227,rev-kura_tap_2blocks,3.0.6,59.942128511618236,
./stimuli_1/tmp/vweak_90_2.wav,90,veryweak,1.0044987578235975,,,,,0,48,48,40,,,,,,,,,,,,,"['space', 'space', 'space', 'space', 'space', 'space', 'space', 'space', 'space', 'space', 'space', 'space', 'space', 'space', 'space']","[0.44333274103701115, 0.9528484250186011, 1.6192340599372983, 2.30236063094344, 2.9599973700242117, 3.5356405479833484, 4.170190977980383, 4.80327102902811, 5.403732761042193, 6.019747507991269, 6.670386996003799, 7.325199811952189, 8.054154325975105, 8.654048157040961, 9.32796528597828]",space,0.4909101340454072,,,,,,,DDDD,001,2019_Jul_23_1227,rev-kura_tap_2blocks,3.0.6,59.942128511618236,
./stimuli_1/tmp/medium_100_2.wav,100,medium,1.5709881706161974,,,,,0,49,49,44,,,,,,,,,,,,,"['space', 'space', 'space', 'space', 'space', 'space', 'space', 'space', 'space', 'space', 'space', 'space', 'space', 'space']","[0.4358036359772086, 0.9793099029920995, 1.652440701960586, 2.252963064936921, 3.153770566917956, 3.7031652219593525, 4.309109317953698, 5.069557662005536, 5.770709300995804, 6.426861742977053, 7.05428573791869, 7.671101079904474, 8.354529107920825, 8.987586242961697]",space,0.32687933393754065,,,,,,,DDDD,001,2019_Jul_23_1227,rev-kura_tap_2blocks,3.0.6,59.942128511618236,
,,,,,,,,,,,,,,,,,,,,,,,,,,,,space,4.607548639993183,,,,,DDDD,001,2019_Jul_23_1227,rev-kura_tap_2blocks,3.0.6,59.942128511618236,
./stimuli_2/tmp/perfect_110_0.wav,110,perfect,1.6760608294086363,,,,,,,,,0,0,0,14,,,,,,,,,,,,,,,"['space', 'space', 'space', 'space', 'space', 'space', 'space', 'space']","[0.7020460579078645, 1.154449505964294, 1.6863552168942988, 2.2025168699910864, 2.75318358594086, 3.2789811089169234, 3.8203604829031974, 4.337330028996803]",space,0.2929185879183933,DDDD,001,2019_Jul_23_1227,rev-kura_tap_2blocks,3.0.6,59.942128511618236,
./stimuli_2/tmp/strong_110_3.wav,110,strong,2.128797507874421,,,,,,,,,0,1,1,6,,,,,,,,,,,,,,,"['space', 'space', 'space', 'space', 'space', 'space', 'space', 'space', 'space', 'space']","[0.7198597779497504, 1.1193059158977121, 1.6862644508946687, 2.169598252978176, 2.6700690689031035, 3.203315808903426, 3.7195682890014723, 4.236563629936427, 4.769144722959027, 5.303896645898931]",space,0.4105289860162884,DDDD,001,2019_Jul_23_1227,rev-kura_tap_2blocks,3.0.6,59.942128511618236,
./stimuli_2/tmp/vweak_110_3.wav,110,veryweak,1.9493514140483303,,,,,,,,,0,2,2,25,,,,,,,,,,,,,,,"['space', 'space', 'space', 'space', 'space', 'space', 'space', 'space']","[0.4698267679195851, 1.152854015934281, 1.8700078019173816, 2.602582345949486, 3.320246635004878, 4.076478724949993, 4.819604112999514, 5.592620723997243]",space,0.4190057400846854,DDDD,001,2019_Jul_23_1227,rev-kura_tap_2blocks,3.0.6,59.942128511618236,
./stimuli_2/tmp/perfect_100_1.wav,100,perfect,1.900582361571024,,,,,,,,,0,3,3,1,,,,,,,,,,,,,,,"['space', 'space', 'space', 'space', 'space', 'space', 'space', 'space', 'space', 'space']","[0.569667856907472, 0.952888845000416, 1.519328321912326, 2.119827371905558, 2.7198688599746674, 3.31931894691661, 3.9077679939800873, 4.486889451975003, 5.085686681908555, 5.736143066897057]",space,0.4025436780648306,DDDD,001,2019_Jul_23_1227,rev-kura_tap_2blocks,3.0.6,59.942128511618236,
./stimuli_2/tmp/perfect_90_1.wav,90,perfect,0.9437088291454946,,,,,,,,,0,4,4,38,,,,,,,,,,,,,,,"['space', 'space', 'space', 'space', 'space', 'space', 'space', 'space']","[0.7636019380297512, 1.3137770959874615, 2.0194541149539873, 2.681194704025984, 3.331137486966327, 4.014455353026278, 4.647942311945371, 5.3308239850448444]",space,0.4337256859289482,DDDD,001,2019_Jul_23_1227,rev-kura_tap_2blocks,3.0.6,59.942128511618236,
./stimuli_2/tmp/strong_90_4.wav,90,strong,0.9547797326956972,,,,,,,,,0,5,5,44,,,,,,,,,,,,,,,"['space', 'space', 'space', 'space', 'space', 'space', 'space']","[1.1833663770230487, 1.808257938013412, 2.5189727910328656, 3.1847960660234094, 3.8523336639627814, 4.55288107402157, 5.210018901969306]",space,0.6035325101111084,DDDD,001,2019_Jul_23_1227,rev-kura_tap_2blocks,3.0.6,59.942128511618236,
./stimuli_2/tmp/weak_100_4.wav,100,weak,1.8643156091783653,,,,,,,,,0,6,6,33,,,,,,,,,,,,,,,"['space', 'space', 'space', 'space', 'space', 'space', 'space', 'space']","[0.9676293829688802, 1.602617428987287, 2.2354134009219706, 2.884675164008513, 3.474162186961621, 4.119196493993513, 4.7768045489210635, 5.335817462997511]",space,0.4348227239679545,DDDD,001,2019_Jul_23_1227,rev-kura_tap_2blocks,3.0.6,59.942128511618236,
./stimuli_2/tmp/perfect_100_0.wav,100,perfect,1.3424117839845908,,,,,,,,,0,7,7,3,,,,,,,,,,,,,,,"['space', 'space', 'space', 'space', 'space', 'space', 'space', 'space', 'space']","[0.5604206019779667, 0.9695871380390599, 1.5697300920728594, 2.1423966280417517, 2.719191665062681, 3.3197346630040556, 3.901770035037771, 4.519275001017377, 5.136943281977437]",space,0.5677605679957196,DDDD,001,2019_Jul_23_1227,rev-kura_tap_2blocks,3.0.6,59.942128511618236,
./stimuli_2/tmp/medium_105_3.wav,105,medium,0.9417007635762324,,,,,,,,,0,8,8,15,,,,,,,,,,,,,,,"['space', 'space', 'space', 'space', 'space', 'space', 'space', 'space']","[0.9348315329989418, 1.4856649009743705, 2.302193823037669, 2.952910013962537, 3.535094153950922, 4.190923225949518, 4.768589803017676, 5.361424430040643]",space,0.38337269600015134,DDDD,001,2019_Jul_23_1227,rev-kura_tap_2blocks,3.0.6,59.942128511618236,
./stimuli_2/tmp/vweak_110_4.wav,110,veryweak,1.4056094097142195,,,,,,,,,0,9,9,20,,,,,,,,,,,,,,,"['space', 'space', 'space', 'space', 'space', 'space', 'space', 'space', 'space']","[1.060470061027445, 1.7193528569769114, 2.3408104749396443, 2.9031774329487234, 3.420141836977564, 3.9367775779683143, 4.410016714013182, 4.952801492996514, 5.469549553003162]",space,0.5098547610687092,DDDD,001,2019_Jul_23_1227,rev-kura_tap_2blocks,3.0.6,59.942128511618236,
./stimuli_2/tmp/medium_110_4.wav,110,medium,1.2412593574024813,,,,,,,,,0,10,10,8,,,,,,,,,,,,,,,"['space', 'space', 'space', 'space', 'space', 'space', 'space', 'space', 'space', 'space']","[0.5181070639519021, 0.918637793045491, 1.4684880209388211, 2.0195677729789168, 2.585929951048456, 3.158497128984891, 3.7188773279776797, 4.302989840041846, 4.85733012703713, 5.402508980012499]",space,0.5208674930036068,DDDD,001,2019_Jul_23_1227,rev-kura_tap_2blocks,3.0.6,59.942128511618236,
./stimuli_2/tmp/weak_95_3.wav,95,weak,1.2112449492962023,,,,,,,,,0,11,11,36,,,,,,,,,,,,,,,"['space', 'space', 'space', 'space', 'space', 'space', 'space', 'space']","[0.8858090969733894, 1.2856613849289715, 2.035386352916248, 2.7861318989889696, 3.4677825829712674, 4.142501649912447, 4.787038873997517, 5.436931535950862]",space,0.6470915920799598,DDDD,001,2019_Jul_23_1227,rev-kura_tap_2blocks,3.0.6,59.942128511618236,
./stimuli_2/tmp/vweak_105_3.wav,105,veryweak,1.505363686413271,,,,,,,,,0,12,12,7,,,,,,,,,,,,,,,"['space', 'space', 'space', 'space', 'space', 'space', 'space', 'space', 'space']","[0.45930492610204965, 1.1532437840942293, 1.7202839771052822, 2.320279078092426, 2.969597595045343, 3.6037635480752215, 4.203340890002437, 4.910559454001486, 5.470879913074896]",space,0.6944196620024741,DDDD,001,2019_Jul_23_1227,rev-kura_tap_2blocks,3.0.6,59.942128511618236,
./stimuli_2/tmp/vweak_95_3.wav,95,veryweak,2.160580057702042,,,,,,,,,0,13,13,32,,,,,,,,,,,,,,,"['space', 'space', 'space', 'space', 'space', 'space', 'space', 'space', 'space']","[0.8847788029816002, 1.4187391819432378, 1.802603998919949, 2.335484665003605, 2.918186691007577, 3.5357186559122056, 4.192655576975085, 4.786391663947143, 5.335399574949406]",space,0.4290988879511133,DDDD,001,2019_Jul_23_1227,rev-kura_tap_2blocks,3.0.6,59.942128511618236,
./stimuli_2/tmp/medium_100_4.wav,100,medium,1.1108721091211078,,,,,,,,,0,14,14,35,,,,,,,,,,,,,,,"['space', 'space', 'space', 'space', 'space', 'space', 'space', 'space']","[0.8354893981013447, 1.4684793640626594, 2.0848992310930043, 2.759515153011307, 3.3857429220806807, 4.036011154064909, 4.702700355090201, 5.3366214010166]",space,0.5522101540118456,DDDD,001,2019_Jul_23_1227,rev-kura_tap_2blocks,3.0.6,59.942128511618236,
./stimuli_2/tmp/medium_95_4.wav,95,medium,1.5689377747074644,,,,,,,,,0,15,15,27,,,,,,,,,,,,,,,"['space', 'space', 'space', 'space', 'space', 'space', 'space']","[0.8851423179730773, 1.7045838909689337, 2.419401120976545, 3.1185743970563635, 3.8196967500261962, 4.452895796042867, 5.152884438983165]",space,0.5545733979670331,DDDD,001,2019_Jul_23_1227,rev-kura_tap_2blocks,3.0.6,59.942128511618236,
./stimuli_2/tmp/weak_90_4.wav,90,weak,2.0685733483084743,,,,,,,,,0,16,16,16,,,,,,,,,,,,,,,"['space', 'space', 'space', 'space', 'space', 'space', 'space', 'space', 'space']","[0.45326118799857795, 1.1253403689479455, 1.8534053049515933, 2.520479311933741, 3.169420465012081, 3.8536517759785056, 4.545234306016937, 5.203695492004044, 10.203394584008493]",space,0.8584381189430133,DDDD,001,2019_Jul_23_1227,rev-kura_tap_2blocks,3.0.6,59.942128511618236,
./stimuli_2/tmp/medium_105_4.wav,105,medium,1.8823047760740792,,,,,,,,,0,17,17,28,,,,,,,,,,,,,,,"['space', 'space', 'space', 'space', 'space', 'space', 'space', 'space', 'space']","[0.9071829119930044, 1.469232538016513, 1.9520340850576758, 2.5032195240492, 3.1020817210664973, 3.669335982063785, 4.252844967064448, 4.8364819349953905, 5.403032495058142]",space,0.5276733620557934,DDDD,001,2019_Jul_23_1227,rev-kura_tap_2blocks,3.0.6,59.942128511618236,
./stimuli_2/tmp/perfect_105_0.wav,105,perfect,2.471825489115851,,,,,,,,,0,18,18,10,,,,,,,,,,,,,,,"['space', 'space', 'space', 'space', 'space', 'space', 'space', 'space']","[0.8192674499005079, 1.3867812328971922, 1.9361553109483793, 2.4753237649565563, 3.0033738289494067, 3.5867360898992047, 4.152782363933511, 4.7372476710006595]",space,0.4069858120055869,DDDD,001,2019_Jul_23_1227,rev-kura_tap_2blocks,3.0.6,59.942128511618236,
./stimuli_2/tmp/perfect_105_1.wav,105,perfect,1.9598890814615504,,,,,,,,,0,19,19,13,,,,,,,,,,,,,,,"['space', 'space', 'space', 'space', 'space', 'space', 'space', 'space']","[0.8030709439190105, 1.3195636859163642, 1.8534885499393567, 2.436426557949744, 2.9862385590095073, 3.5871429699473083, 4.142570181982592, 4.7369679879629984]",space,0.5662198449717835,DDDD,001,2019_Jul_23_1227,rev-kura_tap_2blocks,3.0.6,59.942128511618236,
./stimuli_2/tmp/perfect_95_0.wav,95,perfect,2.0105466277142785,,,,,,,,,0,20,20,30,,,,,,,,,,,,,,,"['space', 'space', 'space', 'space', 'space', 'space', 'space', 'space']","[1.068972443928942, 1.7022888779174536, 2.3523942480096593, 2.9678818959509954, 3.594013029942289, 4.219807083951309, 4.86980941996444, 5.469205683912151]",space,0.44526767602656037,DDDD,001,2019_Jul_23_1227,rev-kura_tap_2blocks,3.0.6,59.942128511618236,
./stimuli_2/tmp/strong_100_4.wav,100,strong,1.3398198733573277,,,,,,,,,0,21,21,48,,,,,,,,,,,,,,,"['space', 'space', 'space', 'space', 'space', 'space', 'space', 'space', 'space']","[0.8089920119382441, 1.2862098929472268, 1.8367414829554036, 2.4609506599372253, 3.036936676944606, 3.653120332979597, 4.301634816918522, 4.905847796937451, 5.503998194006272]",space,0.44304404698777944,DDDD,001,2019_Jul_23_1227,rev-kura_tap_2blocks,3.0.6,59.942128511618236,
./stimuli_2/tmp/vweak_95_4.wav,95,veryweak,1.2922043074511544,,,,,,,,,0,22,22,22,,,,,,,,,,,,,,,"['space', 'space', 'space', 'space', 'space', 'space', 'space', 'space']","[1.1684792680898681, 1.759655274101533, 2.317494887043722, 2.9360752440989017, 3.55306032509543, 4.152384843095206, 4.736012751003727, 5.402906666044146]",space,0.5515050599351525,DDDD,001,2019_Jul_23_1227,rev-kura_tap_2blocks,3.0.6,59.942128511618236,
./stimuli_2/tmp/medium_90_4.wav,90,medium,1.4187547606829107,,,,,,,,,0,23,23,39,,,,,,,,,,,,,,,"['space', 'space', 'space', 'space', 'space', 'space', 'space', 'space', 'space']","[0.7859814129769802, 1.2263003030093387, 1.8200168380280957, 2.4898679399630055, 3.11980131897144, 3.7258973530260846, 4.369623220991343, 4.968527266057208, 5.720095998025499]",space,0.461829676060006,DDDD,001,2019_Jul_23_1227,rev-kura_tap_2blocks,3.0.6,59.942128511618236,
./stimuli_2/tmp/medium_110_3.wav,110,medium,1.2616218191127295,,,,,,,,,0,24,24,11,,,,,,,,,,,,,,,"['space', 'space', 'space', 'space', 'space', 'space', 'space', 'space', 'space']","[0.4527019690722227, 0.902063278015703, 1.3521310749929398, 1.9675524031044915, 2.6198459040606394, 3.26231246907264, 3.8692768370965496, 4.486570905079134, 5.120477010030299]",space,0.5023461380042136,DDDD,001,2019_Jul_23_1227,rev-kura_tap_2blocks,3.0.6,59.942128511618236,
./stimuli_2/tmp/strong_95_3.wav,95,strong,2.368023631857328,,,,,,,,,0,25,25,24,,,,,,,,,,,,,,,"['space', 'space', 'space', 'space', 'space', 'space', 'space', 'space', 'space']","[0.45212688599713147, 0.8354857380036265, 1.369604837964289, 1.9521841309033334, 2.603310950915329, 3.1867777470033616, 3.836747833993286, 4.502280854969285, 5.1024148729629815]",space,0.5576158899348229,DDDD,001,2019_Jul_23_1227,rev-kura_tap_2blocks,3.0.6,59.942128511618236,
./stimuli_2/tmp/vweak_105_4.wav,105,veryweak,1.6327958275835193,,,,,,,,,0,26,26,12,,,,,,,,,,,,,,,"['space', 'space', 'space', 'space', 'space', 'space', 'space', 'space', 'space']","[0.8340490519767627, 1.3194216749398038, 1.8852349360240623, 2.451697884942405, 3.019057872937992, 3.601342019974254, 4.1967511989641935, 4.770215352997184, 5.38449252396822]",space,0.5192226771032438,DDDD,001,2019_Jul_23_1227,rev-kura_tap_2blocks,3.0.6,59.942128511618236,
./stimuli_2/tmp/weak_110_4.wav,110,weak,1.2158046753843554,,,,,,,,,0,27,27,4,,,,,,,,,,,,,,,"['space', 'space', 'space', 'space', 'space', 'space', 'space', 'space']","[0.8512868180405349, 1.6519562649773434, 2.2527392139891163, 2.818841572967358, 3.3526324179256335, 3.903502034023404, 4.495370351942256, 5.102977309958078]",space,0.44082179001998156,DDDD,001,2019_Jul_23_1227,rev-kura_tap_2blocks,3.0.6,59.942128511618236,
./stimuli_2/tmp/strong_90_3.wav,90,strong,1.6244125943376004,,,,,,,,,0,28,28,37,,,,,,,,,,,,,,,"['space', 'space', 'space', 'space', 'space', 'space', 'space', 'space']","[1.069155344972387, 1.8690708879148588, 2.5533546899678186, 3.2705558319576085, 3.9368004499701783, 4.670820998959243, 5.353319453890435, 7.961080293986015]",space,0.674020929960534,DDDD,001,2019_Jul_23_1227,rev-kura_tap_2blocks,3.0.6,59.942128511618236,
./stimuli_2/tmp/strong_110_4.wav,110,strong,1.9935472881648024,,,,,,,,,0,29,29,9,,,,,,,,,,,,,,,"['space', 'space', 'space', 'space', 'space', 'space', 'space', 'space', 'space']","[0.8034084989922121, 1.2945529539138079, 1.8371240549022332, 2.4537784629501402, 3.0363343720091507, 3.6208825289504603, 4.220967689994723, 4.809580989996903, 5.386960690957494]",space,0.5038378710160032,DDDD,001,2019_Jul_23_1227,rev-kura_tap_2blocks,3.0.6,59.942128511618236,
./stimuli_2/tmp/vweak_90_4.wav,90,veryweak,2.01675312210347,,,,,,,,,0,30,30,47,,,,,,,,,,,,,,,"['space', 'space', 'space', 'space', 'space', 'space', 'space', 'space']","[0.4076757529983297, 0.9528395319357514, 2.0024752639001235, 2.685644867946394, 3.4023085749940947, 4.035402002977207, 4.719627480953932, 5.428537599975243]",space,0.4614567329408601,DDDD,001,2019_Jul_23_1227,rev-kura_tap_2blocks,3.0.6,59.942128511618236,
./stimuli_2/tmp/perfect_110_1.wav,110,perfect,1.960810456770172,,,,,,,,,0,31,31,17,,,,,,,,,,,,,,,"['space', 'space', 'space', 'space', 'space', 'space', 'space', 'space']","[0.7837037269491702, 1.1832901450106874, 1.6693517710082233, 2.202900515985675, 2.7704551379429176, 3.3025791510008276, 3.85257221898064, 4.419478390947916]",space,0.47127130604349077,DDDD,001,2019_Jul_23_1227,rev-kura_tap_2blocks,3.0.6,59.942128511618236,
./stimuli_2/tmp/strong_95_4.wav,95,strong,1.3122188661972012,,,,,,,,,0,32,32,19,,,,,,,,,,,,,,,"['space', 'space', 'space', 'space', 'space', 'space', 'space', 'space']","[0.8360963019076735, 1.4364398539764807, 2.1359096929663792, 2.8194576639216393, 3.5863761719083413, 4.286804058938287, 4.95285086100921, 5.703132130904123]",space,0.5939659579889849,DDDD,001,2019_Jul_23_1227,rev-kura_tap_2blocks,3.0.6,59.942128511618236,
./stimuli_2/tmp/strong_105_3.wav,105,strong,1.2846849156286215,,,,,,,,,0,33,33,31,,,,,,,,,,,,,,,"['space', 'space', 'space', 'space', 'space', 'space', 'space', 'space', 'space', 'space']","[0.4933156230254099, 0.9024771529948339, 1.3936745639657602, 1.9351925170049071, 2.5197019079932943, 3.0777596690459177, 3.6363996550207958, 4.203233725973405, 4.752463974058628, 5.319333289051428]",space,0.4366326649906114,DDDD,001,2019_Jul_23_1227,rev-kura_tap_2blocks,3.0.6,59.942128511618236,
./stimuli_2/tmp/perfect_95_1.wav,95,perfect,1.6931350678865988,,,,,,,,,0,34,34,26,,,,,,,,,,,,,,,"['space', 'space', 'space', 'space', 'space', 'space', 'space', 'space', 'space']","[0.6845537310000509, 1.1025713589042425, 1.7191326279425994, 2.359225734951906, 2.986217139987275, 3.6016967609757558, 4.236461277934723, 4.875795118976384, 5.486137255909853]",space,0.31167859595734626,DDDD,001,2019_Jul_23_1227,rev-kura_tap_2blocks,3.0.6,59.942128511618236,
./stimuli_2/tmp/medium_100_3.wav,100,medium,0.9227517929886035,,,,,,,,,0,35,35,45,,,,,,,,,,,,,,,"['space', 'space', 'space', 'space', 'space', 'space', 'space', 'space', 'space', 'space']","[0.8684051489690319, 1.3524605219718069, 1.8526646649697796, 2.3688999509904534, 2.8688673570286483, 3.4075212980387732, 3.9027842320501804, 4.467726308037527, 4.952434743987396, 5.502765796962194]",space,0.40274094289634377,DDDD,001,2019_Jul_23_1227,rev-kura_tap_2blocks,3.0.6,59.942128511618236,
./stimuli_2/tmp/weak_90_3.wav,90,weak,1.336733561564532,,,,,,,,,0,36,36,29,,,,,,,,,,,,,,,"['space', 'space', 'space', 'space', 'space', 'space', 'space', 'space']","[0.46064042299985886, 0.9529255920788273, 1.6525254260050133, 2.402163019985892, 3.075371180078946, 3.702711740974337, 4.385651445016265, 5.086584432981908]",space,0.46083965594880283,DDDD,001,2019_Jul_23_1227,rev-kura_tap_2blocks,3.0.6,59.942128511618236,
./stimuli_2/tmp/weak_110_3.wav,110,weak,1.4034951095242638,,,,,,,,,0,37,37,0,,,,,,,,,,,,,,,"['space', 'space', 'space', 'space', 'space', 'space', 'space', 'space', 'space']","[0.4022668380057439, 0.8696501320227981, 1.3189689690480009, 1.885527536040172, 2.5692617050372064, 3.136587713030167, 3.8355343530420214, 4.468674382078461, 5.0865892440779135]",space,0.5526757159968838,DDDD,001,2019_Jul_23_1227,rev-kura_tap_2blocks,3.0.6,59.942128511618236,
./stimuli_2/tmp/weak_95_4.wav,95,weak,1.59401142701977,,,,,,,,,0,38,38,46,,,,,,,,,,,,,,,"['space', 'space', 'space', 'space', 'space', 'space', 'space']","[0.7863152630161494, 1.3357299689669162, 2.135876975953579, 2.868887783959508, 3.6275876170257106, 4.420325685059652, 5.09404593706131]",space,0.46819298004265875,DDDD,001,2019_Jul_23_1227,rev-kura_tap_2blocks,3.0.6,59.942128511618236,
./stimuli_2/tmp/perfect_90_0.wav,90,perfect,1.8471350139820657,,,,,,,,,0,39,39,34,,,,,,,,,,,,,,,"['space', 'space', 'space', 'space', 'space', 'space', 'space', 'space', 'space']","[0.45217985298950225, 0.8251560640055686, 1.3020946530159563, 1.9758160900091752, 2.636125026969239, 3.319067848031409, 3.9770734789781272, 4.63583575701341, 5.289347533020191]",space,0.361206121975556,DDDD,001,2019_Jul_23_1227,rev-kura_tap_2blocks,3.0.6,59.942128511618236,
./stimuli_2/tmp/medium_95_3.wav,95,medium,0.9787884089584356,,,,,,,,,0,40,40,18,,,,,,,,,,,,,,,"['space', 'space', 'space', 'space', 'space', 'space', 'space', 'space']","[0.7513587920693681, 1.1857173671014607, 1.868563886033371, 2.5187226890120655, 3.1515902280807495, 3.7859923359937966, 4.469432233017869, 5.06943414802663]",space,0.48662314598914236,DDDD,001,2019_Jul_23_1227,rev-kura_tap_2blocks,3.0.6,59.942128511618236,
./stimuli_2/tmp/vweak_100_3.wav,100,veryweak,0.8472696952655959,,,,,,,,,0,41,41,5,,,,,,,,,,,,,,,"['space', 'space', 'space', 'space', 'space', 'space', 'space', 'space']","[0.9028709920821711, 1.4851017830660567, 2.1028816209873185, 2.810764217050746, 3.51738692400977, 4.119144383003004, 4.820320108090527, 5.403033429058269]",space,0.6334556879010051,DDDD,001,2019_Jul_23_1227,rev-kura_tap_2blocks,3.0.6,59.942128511618236,
./stimuli_2/tmp/strong_105_4.wav,105,strong,1.0619213958525664,,,,,,,,,0,42,42,23,,,,,,,,,,,,,,,"['space', 'space', 'space', 'space', 'space', 'space', 'space', 'space', 'space', 'space']","[0.41894413996487856, 0.835787198971957, 1.3856559300329536, 1.9189097470371053, 2.46957763901446, 3.0358999479794875, 3.609124256996438, 4.153549588052556, 4.752430425025523, 5.287085660966113]",space,0.5364367669681087,DDDD,001,2019_Jul_23_1227,rev-kura_tap_2blocks,3.0.6,59.942128511618236,
./stimuli_2/tmp/vweak_90_3.wav,90,veryweak,0.8098621072043313,,,,,,,,,0,43,43,42,,,,,,,,,,,,,,,"['space', 'space', 'space', 'space', 'space', 'space', 'space', 'space']","[0.8191130639752373, 1.4266004969831556, 1.9358927219873294, 2.519582047010772, 3.1355595249915496, 3.792070211027749, 4.386623724014498, 5.070071402005851]",space,0.42764597793575376,DDDD,001,2019_Jul_23_1227,rev-kura_tap_2blocks,3.0.6,59.942128511618236,
./stimuli_2/tmp/vweak_100_4.wav,100,veryweak,1.7061160215264062,,,,,,,,,0,44,44,2,,,,,,,,,,,,,,,"['space', 'space', 'space', 'space', 'space', 'space', 'space', 'space', 'space']","[0.4013070210348815, 0.8773888250580058, 1.6698540460783988, 2.1692954460158944, 2.6862520040012896, 3.2523389030247927, 3.893442993052304, 4.602546084090136, 5.151285286992788]",space,0.3853738970356062,DDDD,001,2019_Jul_23_1227,rev-kura_tap_2blocks,3.0.6,59.942128511618236,
./stimuli_2/tmp/weak_105_3.wav,105,weak,1.8785671226313851,,,,,,,,,0,45,45,49,,,,,,,,,,,,,,,"['space', 'space', 'space', 'space', 'space', 'space', 'space', 'space']","[0.5194062360096723, 1.0452836140757427, 1.7200827250489965, 2.4021836071042344, 3.178061586106196, 3.8533368200296536, 4.520309503073804, 5.236808048095554]",space,0.4192706869216636,DDDD,001,2019_Jul_23_1227,rev-kura_tap_2blocks,3.0.6,59.942128511618236,
./stimuli_2/tmp/weak_105_4.wav,105,weak,2.3797932117961262,,,,,,,,,0,46,46,40,,,,,,,,,,,,,,,"['space', 'space', 'space', 'space', 'space', 'space', 'space', 'space', 'space']","[0.48591613897588104, 1.085446401964873, 1.685834166011773, 2.302239854936488, 2.9855620219605044, 3.5855449389200658, 4.185553328949027, 4.852891700924374, 5.43600434192922]",space,0.637241623015143,DDDD,001,2019_Jul_23_1227,rev-kura_tap_2blocks,3.0.6,59.942128511618236,
./stimuli_2/tmp/medium_90_3.wav,90,medium,2.469674326004891,,,,,,,,,0,47,47,43,,,,,,,,,,,,,,,"['space', 'space', 'space', 'space', 'space', 'space', 'space', 'space']","[0.5180946209002286, 1.0850691699888557, 1.7864430159097537, 2.4205721239559352, 3.086324744974263, 3.7405886149499565, 4.419059535954148, 5.067670107004233]",space,0.3693834269652143,DDDD,001,2019_Jul_23_1227,rev-kura_tap_2blocks,3.0.6,59.942128511618236,
./stimuli_2/tmp/strong_100_3.wav,100,strong,1.4654700353387642,,,,,,,,,0,48,48,41,,,,,,,,,,,,,,,"['space', 'space', 'space', 'space', 'space', 'space', 'space', 'space']","[0.7443805709481239, 1.310852612950839, 1.9451684119412675, 2.5952795719495043, 3.294666219037026, 3.927161538042128, 4.569054450956173, 5.228937090025283]",space,0.5610757760005072,DDDD,001,2019_Jul_23_1227,rev-kura_tap_2blocks,3.0.6,59.942128511618236,
./stimuli_2/tmp/weak_100_3.wav,100,weak,0.8397616430138637,,,,,,,,,0,49,49,21,,,,,,,,,,,,,,,"['space', 'space', 'space', 'space', 'space', 'space', 'space', 'space', 'space']","[0.7696880979929119, 1.268674549064599, 1.88736664399039, 2.419583571027033, 3.002874579047784, 3.636512767057866, 4.179132141056471, 4.73633103701286, 5.286551516968757]",space,0.6069153971038759,DDDD,001,2019_Jul_23_1227,rev-kura_tap_2blocks,3.0.6,59.942128511618236,
