sndfile,tempo,cond,delay,trials_practice.thisRepN,trials_practice.thisTrialN,trials_practice.thisN,trials_practice.thisIndex,trials.thisRepN,trials.thisTrialN,trials.thisN,trials.thisIndex,trials_2.thisRepN,trials_2.thisTrialN,trials_2.thisN,trials_2.thisIndex,key_resp_2.keys,key_resp_2.rt,key_resp_4.keys,key_resp_4.rt,key_resp_3.keys,key_resp_3.rt,key_resp_7.keys,key_resp_7.rt,key_resp_9.keys,key_resp_9.rt,key_resp_5.keys,key_resp_5.rt,key_resp_8.keys,key_resp_8.rt,key_resp_10.keys,key_resp_10.rt,key_resp_6.keys,key_resp_6.rt,participant,session,date,expName,psychopyVersion,frameRate,
,,,,,,,,,,,,,,,,space,12.822731700027362,,,,,,,,,,,,,,,,,EE,001,2019_Jul_23_1310,rev-kura_tap_2blocks,3.0.6,60.319049021647565,
./stimuli_1/tmp/strong_90_1.wav,90,strong,1.013023596,0,0,0,1,,,,,,,,,,,"['space', 'space', 'space', 'space', 'space', 'space', 'space', 'space', 'space', 'space', 'space', 'space', 'space']","[0.786824146984145, 1.6699004489928484, 2.369511289987713, 3.0579190630232915, 3.7528224679408595, 4.503229363937862, 5.219856795039959, 5.886013046023436, 6.5915545870084316, 7.270288130035624, 8.00423077296, 8.72097451693844, 9.403896094998345]",space,2.020121574983932,,,,,,,,,,,,,EE,001,2019_Jul_23_1310,rev-kura_tap_2blocks,3.0.6,60.319049021647565,
./stimuli_1/tmp/vweak_105_1.wav,105,veryweak,1.91267155,0,1,1,3,,,,,,,,,,,"['space', 'space', 'space', 'space', 'space', 'space', 'space', 'space', 'space', 'space']","[3.702609866973944, 4.18698407500051, 4.8203385840170085, 5.420790975913405, 5.953444016980939, 6.554117153980769, 7.1541143549839035, 7.759546990972012, 8.387513945926912, 9.004491652012803]",space,1.7691677400143817,,,,,,,,,,,,,EE,001,2019_Jul_23_1310,rev-kura_tap_2blocks,3.0.6,60.319049021647565,
./stimuli_1/tmp/medium_100_1.wav,100,medium,1.797198505,0,2,2,0,,,,,,,,,,,"['space', 'space', 'space', 'space', 'space', 'space', 'space', 'space', 'space', 'space', 'space', 'space']","[1.8406285590026528, 2.3692481509642676, 3.019104547915049, 3.635563593939878, 4.256042213994078, 4.919419821002521, 5.568753768922761, 6.253090648911893, 6.885826517944224, 7.50191048393026, 8.16807982698083, 8.819640360889025]",space,1.6023290890734643,,,,,,,,,,,,,EE,001,2019_Jul_23_1310,rev-kura_tap_2blocks,3.0.6,60.319049021647565,
./stimuli_1/tmp/medium_110_1.wav,110,medium,1.222685394,0,3,3,4,,,,,,,,,,,"['space', 'space', 'space', 'space', 'space', 'space', 'space', 'space', 'space', 'space', 'space', 'space', 'space', 'space', 'space']","[1.252959597040899, 1.7905823610490188, 2.31974202406127, 2.9264509890927, 3.4698427990078926, 4.053062871098518, 4.6681192740798, 5.2037727939896286, 5.770405485061929, 6.370604671072215, 6.942404451081529, 7.537346814060584, 8.070269816089422, 8.720945168053731, 9.237015785998665]",space,0.5071977700572461,,,,,,,,,,,,,EE,001,2019_Jul_23_1310,rev-kura_tap_2blocks,3.0.6,60.319049021647565,
./stimuli_1/tmp/medium_110_1.wav,110,medium,0.970866786,0,4,4,2,,,,,,,,,,,"['space', 'space', 'space', 'space', 'space', 'space', 'space', 'space', 'space', 'space', 'space', 'space', 'space', 'space', 'space']","[1.1684361880179495, 1.701923443004489, 2.2855368370655924, 2.901777881081216, 3.50166828406509, 4.086252236040309, 4.669288299977779, 5.237109735026024, 5.8687732180114836, 6.436077511054464, 6.986120766028762, 7.595879222033545, 8.152957173064351, 8.717997474013828, 9.236747574992478]",space,0.970088676083833,,,,,,,,,,,,,EE,001,2019_Jul_23_1310,rev-kura_tap_2blocks,3.0.6,60.319049021647565,
,,,,,,,,,,,,,,,,,,,,,,space,5.057843878981657,,,,,,,,,,,EE,001,2019_Jul_23_1310,rev-kura_tap_2blocks,3.0.6,60.319049021647565,
./stimuli_1/tmp/medium_95_1.wav,95,medium,1.3706215803300168,,,,,0,0,0,19,,,,,,,,,,,,,"['space', 'space', 'space', 'space', 'space', 'space', 'space', 'space', 'space', 'space', 'space', 'space', 'space']","[0.8856689729727805, 1.4859850499778986, 2.168888848973438, 2.8530012200353667, 3.4693018529796973, 4.152032986981794, 4.885826978017576, 5.669306777999736, 6.302406423026696, 7.001560264034197, 7.678618574980646, 8.37001696403604, 9.036953001981601]",space,0.9195524209644645,,,,,,,EE,001,2019_Jul_23_1310,rev-kura_tap_2blocks,3.0.6,60.319049021647565,
./stimuli_1/tmp/medium_105_1.wav,105,medium,1.6663985327680324,,,,,0,1,1,21,,,,,,,,,,,,,"['space', 'space', 'space', 'space', 'space', 'space', 'space', 'space', 'space', 'space', 'space', 'space', 'space', 'space', 'space', 'space', 'space']","[0.3858513740124181, 0.9193461649119854, 1.302577450987883, 1.7352698179893196, 2.2527501169824973, 2.9020266329171136, 3.4365919589763507, 4.003392815939151, 4.603469508932903, 5.186387552996166, 5.769976006005891, 6.386393527965993, 6.919585027964786, 7.5562638939591125, 8.136741651920602, 8.66980740102008, 9.227914866991341]",space,0.5019987189443782,,,,,,,EE,001,2019_Jul_23_1310,rev-kura_tap_2blocks,3.0.6,60.319049021647565,
./stimuli_1/tmp/weak_100_2.wav,100,weak,0.9744812486321696,,,,,0,2,2,20,,,,,,,,,,,,,"['space', 'space', 'space', 'space', 'space', 'space', 'space', 'space', 'space', 'space', 'space', 'space', 'space', 'space', 'space']","[0.8854584189830348, 1.3851518729934469, 1.9529222790151834, 2.5195869780145586, 3.0863415150670335, 3.908099306980148, 4.535816592047922, 5.141421734006144, 5.7856667779851705, 6.337862181011587, 6.852537262020633, 7.5037305790465325, 8.12102272908669, 8.753150767995976, 9.308825149084441]",space,0.6014369130134583,,,,,,,EE,001,2019_Jul_23_1310,rev-kura_tap_2blocks,3.0.6,60.319049021647565,
./stimuli_1/tmp/strong_105_1.wav,105,strong,1.8750845453371756,,,,,0,3,3,25,,,,,,,,,,,,,"['space', 'space', 'space', 'space', 'space', 'space', 'space', 'space', 'space', 'space', 'space', 'space', 'space', 'space', 'space', 'space']","[1.1181377839529887, 1.5860798979410902, 2.1164999359752983, 2.6357493799878284, 3.2018403039546683, 3.794130182941444, 4.3862311110133305, 4.917606523958966, 5.411073339986615, 5.952273658011109, 6.51965403102804, 7.08678624802269, 7.6535164329689, 8.20307344396133, 8.753098072949797, 9.241229314939119]",space,0.451944037922658,,,,,,,EE,001,2019_Jul_23_1310,rev-kura_tap_2blocks,3.0.6,60.319049021647565,
./stimuli_1/tmp/vweak_105_1.wav,105,veryweak,2.000868469173824,,,,,0,4,4,7,,,,,,,,,,,,,"['space', 'space', 'space', 'space', 'space', 'space', 'space', 'space', 'space', 'space', 'space', 'space', 'space', 'space', 'space']","[0.45852125296369195, 1.1362213030224666, 1.874902375973761, 2.486069933976978, 3.0352893699891865, 3.602610843954608, 4.2359802450519055, 4.769523186958395, 5.38621550204698, 5.959415371995419, 6.535988101968542, 7.154007937991992, 7.70390539499931, 8.303851780947298, 8.887296500033699]",space,0.7623824370093644,,,,,,,EE,001,2019_Jul_23_1310,rev-kura_tap_2blocks,3.0.6,60.319049021647565,
./stimuli_1/tmp/vweak_105_2.wav,105,veryweak,1.1450150374808907,,,,,0,5,5,9,,,,,,,,,,,,,"['space', 'space', 'space', 'space', 'space', 'space', 'space', 'space', 'space', 'space', 'space', 'space', 'space', 'space', 'space']","[0.4463724890956655, 0.8626973540522158, 1.2800680610816926, 1.896177257061936, 2.6642872150987387, 3.3138858560705557, 3.897439042106271, 4.556620853021741, 5.17987468210049, 5.814030691049993, 6.546755481045693, 7.097534207045101, 7.737937530037016, 8.397632671054453, 8.980357565102167]",space,1.4331878169905394,,,,,,,EE,001,2019_Jul_23_1310,rev-kura_tap_2blocks,3.0.6,60.319049021647565,
./stimuli_1/tmp/perfect_110_0.wav,110,perfect,1.8837210676143408,,,,,0,6,6,16,,,,,,,,,,,,,"['space', 'space', 'space', 'space', 'space', 'space']","[1.8961335219210014, 2.269369099987671, 2.792006005998701, 3.3199106279062107, 3.8906910559162498, 4.402870434918441]",space,1.3734254679875448,,,,,,,EE,001,2019_Jul_23_1310,rev-kura_tap_2blocks,3.0.6,60.319049021647565,
./stimuli_1/tmp/perfect_95_0.wav,95,perfect,1.4400885785760469,,,,,0,7,7,26,,,,,,,,,,,,,"['space', 'space', 'space', 'space', 'space', 'space', 'space', 'space']","[1.0353651270270348, 1.7193092900561169, 2.3855962429661304, 3.034927573055029, 3.6189583509694785, 4.235651963041164, 4.885998907964677, 5.503213669988327]",space,0.5838323880452663,,,,,,,EE,001,2019_Jul_23_1310,rev-kura_tap_2blocks,3.0.6,60.319049021647565,
./stimuli_1/tmp/strong_95_2.wav,95,strong,1.1173507911145857,,,,,0,8,8,27,,,,,,,,,,,,,"['space', 'space', 'space', 'space', 'space', 'space', 'space', 'space', 'space', 'space', 'space', 'space', 'space']","[1.169384128996171, 1.9872685159789398, 2.5535599840804935, 3.169621567009017, 3.8370160100748762, 4.470070471055806, 5.152919476968236, 5.824810101999901, 6.486961905029602, 7.137471619993448, 7.77090710203629, 8.44619506096933, 9.086769868037663]",space,0.678754952037707,,,,,,,EE,001,2019_Jul_23_1310,rev-kura_tap_2blocks,3.0.6,60.319049021647565,
./stimuli_1/tmp/perfect_95_1.wav,95,perfect,0.8659592093324232,,,,,0,9,9,22,,,,,,,,,,,,,"['space', 'space', 'space', 'space', 'space', 'space', 'space', 'space']","[1.079773499048315, 1.7316341160330921, 2.3894686410203576, 2.9655441510258242, 3.664873835979961, 4.232184014981613, 4.836325851967558, 5.498194903018884]",space,0.7449925909750164,,,,,,,EE,001,2019_Jul_23_1310,rev-kura_tap_2blocks,3.0.6,60.319049021647565,
./stimuli_1/tmp/perfect_105_0.wav,105,perfect,2.376167666662905,,,,,0,10,10,11,,,,,,,,,,,,,"['space', 'space', 'space', 'space', 'space', 'space', 'space']","[1.4073915949556977, 1.852197405998595, 2.452493843040429, 3.0290799629874527, 3.6029430240159854, 4.170167483971454, 4.736464907997288]",space,0.7353271719766781,,,,,,,EE,001,2019_Jul_23_1310,rev-kura_tap_2blocks,3.0.6,60.319049021647565,
./stimuli_1/tmp/perfect_105_1.wav,105,perfect,1.612711409659772,,,,,0,11,11,13,,,,,,,,,,,,,"['space', 'space', 'space', 'space', 'space', 'space', 'space', 'space']","[0.8363431120524183, 1.2858538480941206, 1.8032819119980559, 2.42061629507225, 3.0448022740893066, 3.587384375045076, 4.153390535037033, 4.711559316026978]",space,0.8444832279346883,,,,,,,EE,001,2019_Jul_23_1310,rev-kura_tap_2blocks,3.0.6,60.319049021647565,
./stimuli_1/tmp/weak_95_1.wav,95,weak,1.9726481258285025,,,,,0,12,12,43,,,,,,,,,,,,,"['space', 'space', 'space', 'space', 'space', 'space', 'space', 'space', 'space', 'space', 'space', 'space', 'space']","[0.9183468009578064, 1.519245860981755, 2.2690005749464035, 2.90115834295284, 3.603230124921538, 4.203076440957375, 4.8769859538879246, 5.569952852907591, 6.203174837981351, 6.903310222900473, 7.703910825890489, 8.353474958916195, 9.053390071960166]",space,1.4522291409084573,,,,,,,EE,001,2019_Jul_23_1310,rev-kura_tap_2blocks,3.0.6,60.319049021647565,
./stimuli_1/tmp/perfect_110_1.wav,110,perfect,1.7704271467992068,,,,,0,13,13,18,,,,,,,,,,,,,"['space', 'space', 'space', 'space', 'space', 'space', 'space', 'space']","[0.8218890059506521, 1.2195788660319522, 1.6851919390028343, 2.207687195041217, 2.719287183950655, 3.302713552955538, 3.8695249939337373, 4.3693563039414585]",space,0.5337035079719499,,,,,,,EE,001,2019_Jul_23_1310,rev-kura_tap_2blocks,3.0.6,60.319049021647565,
./stimuli_1/tmp/strong_110_1.wav,110,strong,2.342405954917332,,,,,0,14,14,8,,,,,,,,,,,,,"['space', 'space', 'space', 'space', 'space', 'space', 'space', 'space', 'space', 'space', 'space', 'space', 'space', 'space', 'space']","[1.053537733037956, 1.6515103400452062, 2.2362857200205326, 2.8119231320451945, 3.3538158900337294, 3.9370126840658486, 4.520610100007616, 5.0878447780851275, 5.742118698079139, 6.254403275088407, 6.818942906102166, 7.386709011043422, 7.970455581089482, 8.588168365997262, 9.188194218091667]",space,0.8176765510579571,,,,,,,EE,001,2019_Jul_23_1310,rev-kura_tap_2blocks,3.0.6,60.319049021647565,
./stimuli_1/tmp/strong_110_2.wav,110,strong,1.9369911731854192,,,,,0,15,15,6,,,,,,,,,,,,,"['space', 'space', 'space', 'space', 'space', 'space', 'space', 'space', 'space', 'space', 'space', 'space', 'space', 'space', 'space']","[1.0694008470745757, 1.6166695019928738, 2.136208284064196, 2.8024333890061826, 3.3532706510741264, 3.9858635819982737, 4.569370849989355, 5.145979540073313, 5.753658001078293, 6.3194207809865475, 6.90317968907766, 7.519682085025124, 8.136560318991542, 8.696030016057193, 9.253803604049608]",space,1.1521002240478992,,,,,,,EE,001,2019_Jul_23_1310,rev-kura_tap_2blocks,3.0.6,60.319049021647565,
./stimuli_1/tmp/weak_90_1.wav,90,weak,1.282481392037714,,,,,0,16,16,29,,,,,,,,,,,,,"['space', 'space', 'space', 'space', 'space', 'space', 'space', 'space', 'space', 'space', 'space', 'space', 'space', 'space', 'space', 'space', 'space']","[0.9190527070313692, 1.3022013420704752, 2.119616172974929, 3.0696208049776033, 3.67519842996262, 4.119426766061224, 4.717847927007824, 5.419833716005087, 5.9522306229919195, 6.536696764989756, 7.020039824070409, 7.636217909981497, 8.020508446032181, 8.536913148011081, 8.85352964606136, 9.069781139027327, 9.326102897059172]",space,0.6672982199816033,,,,,,,EE,001,2019_Jul_23_1310,rev-kura_tap_2blocks,3.0.6,60.319049021647565,
./stimuli_1/tmp/perfect_100_1.wav,100,perfect,2.462429502310373,,,,,0,17,17,1,,,,,,,,,,,,,"['space', 'space', 'space', 'space', 'space', 'space', 'space', 'space']","[0.936002554022707, 1.5360569810727611, 2.0687637709779665, 2.7169274169718847, 3.208221449982375, 3.919409192050807, 4.519870324060321, 5.120359090040438]",space,1.2959480859572068,,,,,,,EE,001,2019_Jul_23_1310,rev-kura_tap_2blocks,3.0.6,60.319049021647565,
./stimuli_1/tmp/medium_105_2.wav,105,medium,0.8825097572066065,,,,,0,18,18,17,,,,,,,,,,,,,"['space', 'space', 'space', 'space', 'space', 'space', 'space', 'space', 'space', 'space', 'space', 'space', 'space', 'space', 'space', 'space']","[1.0789851379813626, 1.6854423909680918, 2.242182421963662, 2.8697119189891964, 3.50769625895191, 4.036541161010973, 4.553558214916848, 5.112790262908675, 5.703276332002133, 6.303861093008891, 6.770124436938204, 7.319920911919326, 7.65908185497392, 8.05357410700526, 8.38735168799758, 9.10389538994059]",space,0.7670724090421572,,,,,,,EE,001,2019_Jul_23_1310,rev-kura_tap_2blocks,3.0.6,60.319049021647565,
./stimuli_1/tmp/weak_105_2.wav,105,weak,2.065051120273794,,,,,0,19,19,48,,,,,,,,,,,,,"['space', 'space', 'space', 'space', 'space', 'space', 'space', 'space', 'space', 'space', 'space', 'space', 'space', 'space', 'space', 'space', 'space', 'space', 'space', 'space', 'space', 'space', 'space']","[1.085631354013458, 1.4683534799842164, 1.9416401240741834, 2.468521221075207, 3.117677645990625, 3.476869542035274, 3.8514745290158316, 4.202457847073674, 4.535825698985718, 4.81210123305209, 5.186290198005736, 5.435368821024895, 5.705816562986001, 5.985876466031186, 6.303282018983737, 6.836502742022276, 7.374630914069712, 7.592697793035768, 7.953061862033792, 8.637097058002837, 8.875303923035972, 9.074620694038458, 9.352769154007547]",space,0.683173600002192,,,,,,,EE,001,2019_Jul_23_1310,rev-kura_tap_2blocks,3.0.6,60.319049021647565,
./stimuli_1/tmp/weak_90_2.wav,90,weak,2.0384375203910188,,,,,0,20,20,23,,,,,,,,,,,,,"['space', 'space', 'space', 'space', 'space', 'space', 'space', 'space', 'space', 'space', 'space', 'space', 'space']","[1.0360282259061933, 1.719775648904033, 2.3359172398922965, 3.002776975976303, 3.6354121109470725, 4.336487413966097, 5.019981193938293, 5.618486488936469, 6.318433841923252, 6.903706146986224, 7.553334835916758, 8.35368621791713, 8.936419096891768]",space,0.5004616009537131,,,,,,,EE,001,2019_Jul_23_1310,rev-kura_tap_2blocks,3.0.6,60.319049021647565,
./stimuli_1/tmp/weak_100_1.wav,100,weak,0.9200911357943652,,,,,0,21,21,15,,,,,,,,,,,,,"['space', 'space', 'space', 'space', 'space', 'space', 'space', 'space', 'space', 'space', 'space', 'space', 'space', 'space', 'space', 'space', 'space']","[1.1018361389869824, 1.6860948610119522, 2.336321552982554, 2.9531254620524123, 3.5532230370445177, 4.069781342055649, 4.619915566057898, 5.119618079974316, 5.986028447048739, 6.520254624076188, 7.153488270007074, 7.806561051052995, 8.020806562970392, 8.270680094021372, 8.637038248009048, 9.004386942018755, 9.321956390049309]",space,0.36092564405407757,,,,,,,EE,001,2019_Jul_23_1310,rev-kura_tap_2blocks,3.0.6,60.319049021647565,
./stimuli_1/tmp/strong_90_2.wav,90,strong,1.29545815814535,,,,,0,22,22,36,,,,,,,,,,,,,"['space', 'space', 'space', 'space', 'space', 'space', 'space', 'space', 'space', 'space', 'space', 'space', 'space', 'space']","[0.9341503790346906, 1.5525778329465538, 2.2359029150102288, 2.869000514037907, 3.557086457964033, 4.18562328198459, 4.869955159956589, 5.518975685001351, 6.143142392975278, 6.803483605966903, 7.402963595930487, 8.094654924003407, 8.753860936965793, 9.359135332982987]",space,0.5356483439682052,,,,,,,EE,001,2019_Jul_23_1310,rev-kura_tap_2blocks,3.0.6,60.319049021647565,
./stimuli_1/tmp/medium_90_2.wav,90,medium,2.1384331573709567,,,,,0,23,23,46,,,,,,,,,,,,,"['space', 'space', 'space', 'space', 'space', 'space', 'space', 'space', 'space', 'space', 'space', 'space', 'space']","[1.184810723992996, 1.8187322529265657, 2.4187296389136463, 3.1359502399573103, 3.752447312930599, 4.457622424932197, 5.153184721944854, 5.852714937995188, 6.486543511971831, 7.202464203001, 7.853104071924463, 8.550719961989671, 9.270193610922433]",space,0.5855355350067839,,,,,,,EE,001,2019_Jul_23_1310,rev-kura_tap_2blocks,3.0.6,60.319049021647565,
./stimuli_1/tmp/medium_100_2.wav,100,medium,1.5709881706161974,,,,,0,24,24,44,,,,,,,,,,,,,"['space', 'space', 'space', 'space', 'space', 'space', 'space', 'space', 'space', 'space', 'space', 'space', 'space', 'space', 'space', 'space']","[1.073922288022004, 1.6477833170210943, 2.0810888070845976, 2.579780246014707, 3.0649136879947037, 3.664744563982822, 4.181830811081454, 4.6812170600751415, 5.163426014012657, 5.715054600033909, 6.331636067014188, 6.983375568059273, 7.481994185014628, 7.939879705081694, 8.532873584073968, 9.016160050057806]",space,0.7399882359895855,,,,,,,EE,001,2019_Jul_23_1310,rev-kura_tap_2blocks,3.0.6,60.319049021647565,
./stimuli_1/tmp/vweak_110_2.wav,110,veryweak,1.2375564653250335,,,,,0,25,25,28,,,,,,,,,,,,,"['space', 'space', 'space', 'space', 'space', 'space', 'space', 'space', 'space', 'space', 'space', 'space', 'space', 'space', 'space', 'space']","[1.0935701730195433, 1.6936380340484902, 2.1129356560995802, 2.611453236080706, 3.094210183015093, 3.615011802990921, 4.143786936998367, 4.6611621680203825, 5.127921391045675, 5.566606443026103, 6.061162159079686, 6.861396393040195, 7.378569836029783, 8.01188170304522, 8.450321907061152, 8.97931609407533]",space,0.4534902130253613,,,,,,,EE,001,2019_Jul_23_1310,rev-kura_tap_2blocks,3.0.6,60.319049021647565,
./stimuli_1/tmp/vweak_95_1.wav,95,veryweak,2.279644213301781,,,,,0,26,26,24,,,,,,,,,,,,,"['space', 'space', 'space', 'space', 'space', 'space', 'space', 'space', 'space', 'space', 'space', 'space', 'space', 'space']","[0.9181761549552903, 1.5067098829895258, 2.0692390729673207, 2.6692257820395753, 3.235976489027962, 3.826632317970507, 4.485166448983364, 5.119724316056818, 5.719574343995191, 6.2862374590476975, 6.940559952985495, 7.519317221012898, 8.220956278033555, 8.802708977949806]",space,0.8250794300111011,,,,,,,EE,001,2019_Jul_23_1310,rev-kura_tap_2blocks,3.0.6,60.319049021647565,
./stimuli_1/tmp/medium_110_1.wav,110,medium,1.6223651347148935,,,,,0,27,27,10,,,,,,,,,,,,,"['space', 'space', 'space', 'space', 'space', 'space', 'space', 'space', 'space', 'space', 'space', 'space', 'space', 'space', 'space']","[1.1187950279563665, 1.736225830973126, 2.2184111370006576, 2.8517664030659944, 3.4709151689894497, 4.001368707045913, 4.634971741004847, 5.168307948973961, 5.8032961380667984, 6.3682378369849175, 6.9024566729785874, 7.494910974986851, 8.06890834402293, 8.68649239197839, 9.236405864008702]",space,0.636157903005369,,,,,,,EE,001,2019_Jul_23_1310,rev-kura_tap_2blocks,3.0.6,60.319049021647565,
./stimuli_1/tmp/perfect_90_0.wav,90,perfect,1.6568604876231643,,,,,0,28,28,35,,,,,,,,,,,,,"['space', 'space', 'space', 'space', 'space', 'space', 'space', 'space', 'space', 'space']","[0.7905559570062906, 1.3191152471117675, 2.002707839012146, 2.685731864068657, 3.336241348995827, 3.98709161602892, 4.620104794041254, 5.353625615010969, 6.019862231099978, 6.586457160068676]",space,0.469602370983921,,,,,,,EE,001,2019_Jul_23_1310,rev-kura_tap_2blocks,3.0.6,60.319049021647565,
./stimuli_1/tmp/strong_100_2.wav,100,strong,1.5994648074282498,,,,,0,29,29,42,,,,,,,,,,,,,"['space', 'space', 'space', 'space', 'space', 'space', 'space', 'space', 'space', 'space', 'space', 'space', 'space', 'space', 'space']","[0.7776619760552421, 1.234926157980226, 1.783907748060301, 2.4529361840104684, 3.053005791036412, 3.6755741679808125, 4.252911631017923, 4.852692038053647, 5.469789155060425, 6.103308956953697, 6.719359650043771, 7.307754831039347, 7.936404186999425, 8.55362724000588, 9.186334711033851]",space,1.1347996019758284,,,,,,,EE,001,2019_Jul_23_1310,rev-kura_tap_2blocks,3.0.6,60.319049021647565,
./stimuli_1/tmp/strong_100_1.wav,100,strong,1.2298337616078612,,,,,0,30,30,37,,,,,,,,,,,,,"['space', 'space', 'space', 'space', 'space', 'space', 'space', 'space', 'space', 'space', 'space', 'space', 'space', 'space']","[0.8408856869209558, 1.4022311889566481, 2.052288193954155, 2.686343307956122, 3.386017231969163, 3.986454903963022, 4.6202896379400045, 5.31999294902198, 5.952906845021062, 6.553398579941131, 7.167762671946548, 7.903782819979824, 8.57072092301678, 9.169879950000905]",space,1.9929210259579122,,,,,,,EE,001,2019_Jul_23_1310,rev-kura_tap_2blocks,3.0.6,60.319049021647565,
./stimuli_1/tmp/vweak_90_1.wav,90,veryweak,0.8362780865168179,,,,,0,31,31,34,,,,,,,,,,,,,"['space', 'space', 'space', 'space', 'space', 'space', 'space', 'space', 'space', 'space', 'space', 'space']","[1.2184793499764055, 2.1034477109787986, 2.853081575012766, 3.5867837329860777, 4.3365729979705065, 5.003043781034648, 5.753813175950199, 6.469992319936864, 7.202812083996832, 7.938080050982535, 8.710006776964292, 9.520492449984886]",space,0.5852342250291258,,,,,,,EE,001,2019_Jul_23_1310,rev-kura_tap_2blocks,3.0.6,60.319049021647565,
./stimuli_1/tmp/weak_110_2.wav,110,weak,1.1450489585925383,,,,,0,32,32,0,,,,,,,,,,,,,"['space', 'space', 'space', 'space', 'space', 'space', 'space', 'space', 'space', 'space', 'space', 'space', 'space', 'space', 'space', 'space', 'space']","[0.9951909190276638, 1.5356006879592314, 2.1019041229737923, 2.618844063952565, 3.1082900939509273, 3.6023287469288334, 4.118880140944384, 4.63655794900842, 5.136263842927292, 5.63583646400366, 6.152510148938745, 6.611496282974258, 7.0697121599223465, 7.603279753937386, 8.136682905023918, 8.637001417926513, 9.1048837719718]",space,0.6859541879966855,,,,,,,EE,001,2019_Jul_23_1310,rev-kura_tap_2blocks,3.0.6,60.319049021647565,
./stimuli_1/tmp/weak_95_2.wav,95,weak,1.3391653351857111,,,,,0,33,33,38,,,,,,,,,,,,,"['space', 'space', 'space', 'space', 'space', 'space', 'space', 'space', 'space', 'space', 'space', 'space', 'space']","[0.7835901259677485, 1.3837286899797618, 2.1028884509578347, 2.753269978915341, 3.4386823589447886, 4.2025889329379424, 4.907178531982936, 5.586347147007473, 6.3190305170137435, 6.987130573950708, 7.7869609909830615, 8.437616081908345, 9.112061866908334]",space,0.6416429069358855,,,,,,,EE,001,2019_Jul_23_1310,rev-kura_tap_2blocks,3.0.6,60.319049021647565,
./stimuli_1/tmp/perfect_90_1.wav,90,perfect,0.8790589196072783,,,,,0,34,34,39,,,,,,,,,,,,,"['space', 'space', 'space', 'space', 'space', 'space', 'space', 'space']","[0.7855718799401075, 1.3530238679377362, 2.0350826249923557, 2.720027282019146, 3.422204044996761, 4.703240104019642, 5.352664810954593, 6.004035759018734]",space,0.4856414831010625,,,,,,,EE,001,2019_Jul_23_1310,rev-kura_tap_2blocks,3.0.6,60.319049021647565,
./stimuli_1/tmp/vweak_90_2.wav,90,veryweak,1.0044987578235975,,,,,0,35,35,40,,,,,,,,,,,,,"['space', 'space', 'space', 'space', 'space', 'space', 'space', 'space', 'space', 'space', 'space', 'space', 'space', 'space']","[0.9736479320563376, 1.5868383130291477, 2.203014738042839, 2.919046004069969, 3.4526036500465125, 4.093890689080581, 4.90318492508959, 5.402675547054969, 6.1539559290977195, 6.753910226048902, 7.420918539050035, 8.154173396993428, 8.73680964007508, 9.35379286808893]",space,0.583413082989864,,,,,,,EE,001,2019_Jul_23_1310,rev-kura_tap_2blocks,3.0.6,60.319049021647565,
./stimuli_1/tmp/medium_95_2.wav,95,medium,2.475357682924177,,,,,0,36,36,14,,,,,,,,,,,,,"['space', 'space', 'space', 'space', 'space', 'space', 'space', 'space', 'space', 'space', 'space', 'space', 'space']","[0.8689578729681671, 1.3169674819801003, 2.136637178948149, 2.819624711992219, 3.5092908679507673, 4.1869533020071685, 4.869372201967053, 5.520401149988174, 6.2536356669152156, 6.936868496937677, 7.586900413967669, 8.253786270972341, 8.938143645995297]",space,0.6186031729448587,,,,,,,EE,001,2019_Jul_23_1310,rev-kura_tap_2blocks,3.0.6,60.319049021647565,
./stimuli_1/tmp/medium_100_1.wav,100,medium,0.9469441789171564,,,,,0,37,37,47,,,,,,,,,,,,,"['space', 'space', 'space', 'space', 'space', 'space', 'space', 'space', 'space', 'space', 'space', 'space', 'space']","[1.0442558659706265, 1.7264261050149798, 2.3943244779948145, 3.0281668229727075, 3.6945176100125536, 4.326939614024013, 4.982883392949589, 5.578432174981572, 6.325250227935612, 6.999299130984582, 7.645083960960619, 8.28441328194458, 8.894615784985945]",space,1.235512831946835,,,,,,,EE,001,2019_Jul_23_1310,rev-kura_tap_2blocks,3.0.6,60.319049021647565,
./stimuli_1/tmp/medium_110_2.wav,110,medium,1.962096670593472,,,,,0,38,38,12,,,,,,,,,,,,,"['space', 'space', 'space', 'space', 'space', 'space', 'space', 'space', 'space', 'space', 'space', 'space', 'space']","[0.8889569010352716, 1.286783288931474, 1.8699912159936503, 2.402424453990534, 3.2384663890115917, 3.720554903964512, 4.3037179129896685, 4.653603516984731, 5.253553134971298, 5.770368373952806, 6.720257256994955, 7.75437644100748, 8.704768322990276]",space,1.6511007160879672,,,,,,,EE,001,2019_Jul_23_1310,rev-kura_tap_2blocks,3.0.6,60.319049021647565,
./stimuli_1/tmp/vweak_95_2.wav,95,veryweak,1.1399322262275913,,,,,0,39,39,30,,,,,,,,,,,,,"['space', 'space', 'space', 'space', 'space', 'space', 'space', 'space', 'space', 'space', 'space', 'space', 'space', 'space']","[1.1680237840628251, 1.8861390210222453, 2.5031508289976045, 3.1528261000057682, 3.768417877960019, 4.385536881047301, 5.0024380050599575, 5.616964043001644, 6.2076005530543625, 6.836311738006771, 7.502764755045064, 8.103279546950944, 8.741945730987936, 9.35273975005839]",space,0.4179204140091315,,,,,,,EE,001,2019_Jul_23_1310,rev-kura_tap_2blocks,3.0.6,60.319049021647565,
./stimuli_1/tmp/perfect_100_0.wav,100,perfect,2.1771183722066985,,,,,0,40,40,2,,,,,,,,,,,,,"['space', 'space', 'space', 'space', 'space', 'space', 'space', 'space']","[0.9499892080202699, 1.5352470399811864, 2.1526887479703873, 2.80279274599161, 3.3525528110330924, 3.952741735964082, 4.569620540016331, 5.202772118966095]",space,0.8503095199121162,,,,,,,EE,001,2019_Jul_23_1310,rev-kura_tap_2blocks,3.0.6,60.319049021647565,
./stimuli_1/tmp/strong_105_2.wav,105,strong,0.9615404084728899,,,,,0,41,41,31,,,,,,,,,,,,,"['space', 'space', 'space', 'space', 'space', 'space', 'space', 'space', 'space', 'space', 'space', 'space', 'space', 'space', 'space', 'space', 'space', 'space', 'space', 'space', 'space', 'space']","[1.1702900379896164, 1.8429176260251552, 2.5537615759531036, 3.220070002018474, 3.88703111698851, 4.203664651024155, 4.520943035022356, 4.843867672025226, 5.16969980194699, 5.503886135993525, 5.804713375982828, 6.154625070979819, 6.4369171189609915, 6.753852732013911, 7.054267424973659, 7.404783136909828, 7.737458784948103, 8.044799612020142, 8.371451189974323, 8.687486780923791, 9.002648334018886, 9.321716267964803]",space,0.8669133689254522,,,,,,,EE,001,2019_Jul_23_1310,rev-kura_tap_2blocks,3.0.6,60.319049021647565,
./stimuli_1/tmp/vweak_110_1.wav,110,veryweak,1.3407186132175697,,,,,0,42,42,32,,,,,,,,,,,,,"['space', 'space', 'space', 'space', 'space', 'space', 'space', 'space', 'space', 'space', 'space', 'space', 'space', 'space', 'space', 'space', 'space']","[1.0196214010939002, 1.5859434260055423, 2.0200599069939926, 2.6526140780188143, 3.0699129920685664, 3.61998164805118, 4.2357509810244665, 4.636594131006859, 5.57033825002145, 5.9032272070180625, 6.503675571992062, 6.937083636992611, 7.370835851994343, 7.803999050986022, 8.286906670080498, 8.789464258006774, 9.437417876091786]",space,0.533425112022087,,,,,,,EE,001,2019_Jul_23_1310,rev-kura_tap_2blocks,3.0.6,60.319049021647565,
./stimuli_1/tmp/vweak_100_1.wav,100,veryweak,1.441965324529146,,,,,0,43,43,4,,,,,,,,,,,,,"['space', 'space', 'space', 'space', 'space', 'space', 'space', 'space', 'space', 'space', 'space']","[0.869243873981759, 1.8735418010037392, 3.1696101130219176, 4.636280089034699, 5.603221275960095, 6.036691250046715, 6.7193705280078575, 7.102998874965124, 7.700962214963511, 8.653553612995893, 9.73674356203992]",space,0.5172490449622273,,,,,,,EE,001,2019_Jul_23_1310,rev-kura_tap_2blocks,3.0.6,60.319049021647565,
./stimuli_1/tmp/strong_95_1.wav,95,strong,1.2238592690797745,,,,,0,44,44,33,,,,,,,,,,,,,"['space', 'space', 'space', 'space', 'space', 'space', 'space', 'space', 'space', 'space', 'space', 'space', 'space', 'space', 'space']","[0.8370943680638447, 1.2432330820010975, 1.8362654619850218, 2.4194351959740743, 3.0865436389576644, 3.6786845329916105, 4.270743179018609, 4.85965960402973, 5.453781966003589, 6.092682813992724, 6.6709405849687755, 7.271331861033104, 7.904095503967255, 8.520725782960653, 9.12130896304734]",space,2.352907645981759,,,,,,,EE,001,2019_Jul_23_1310,rev-kura_tap_2blocks,3.0.6,60.319049021647565,
./stimuli_1/tmp/strong_90_1.wav,90,strong,1.0878185010355936,,,,,0,45,45,41,,,,,,,,,,,,,"['space', 'space', 'space', 'space', 'space', 'space', 'space', 'space', 'space', 'space', 'space', 'space', 'space']","[0.8702762109460309, 1.6730110039934516, 2.436282193986699, 3.137048071017489, 3.8091222159564495, 4.503341980976984, 5.226644342998043, 5.887334714992903, 6.603740295977332, 7.354428331949748, 7.987658487982117, 8.670930486987345, 9.395200144965202]",space,0.8023733450099826,,,,,,,EE,001,2019_Jul_23_1310,rev-kura_tap_2blocks,3.0.6,60.319049021647565,
./stimuli_1/tmp/weak_110_1.wav,110,weak,2.302762081100819,,,,,0,46,46,3,,,,,,,,,,,,,"['space', 'space', 'space', 'space', 'space', 'space', 'space', 'space', 'space', 'space', 'space', 'space', 'space', 'space', 'space', 'space']","[0.8192912429803982, 1.2187578480225056, 1.7196976830018684, 2.325522277969867, 2.853705878020264, 3.4340626869816333, 4.034577197977342, 4.657996949041262, 5.21989037306048, 5.836408423027024, 6.403711345978081, 6.987453242065385, 7.570573517004959, 8.153094153967686, 8.73755699407775, 9.309429413988255]",space,1.0398637839825824,,,,,,,EE,001,2019_Jul_23_1310,rev-kura_tap_2blocks,3.0.6,60.319049021647565,
./stimuli_1/tmp/weak_105_1.wav,105,weak,2.3476680969619683,,,,,0,47,47,45,,,,,,,,,,,,,"['space', 'space', 'space', 'space', 'space', 'space', 'space', 'space', 'space', 'space', 'space', 'space', 'space', 'space', 'space']","[0.49431295809336007, 0.8854237660998479, 1.4584861320909113, 1.6859598560258746, 2.402352264034562, 3.1676376790273935, 3.7704263390041888, 4.462609719019383, 5.0864583681104705, 5.986992808058858, 6.42833403905388, 7.136812318000011, 7.925132138072513, 8.504190278006718, 9.287020016112365]",space,0.6855632410151884,,,,,,,EE,001,2019_Jul_23_1310,rev-kura_tap_2blocks,3.0.6,60.319049021647565,
./stimuli_1/tmp/vweak_100_2.wav,100,veryweak,0.9843923106260049,,,,,0,48,48,5,,,,,,,,,,,,,"['space', 'space', 'space', 'space', 'space', 'space', 'space', 'space', 'space', 'space', 'space', 'space', 'space', 'space']","[0.8424627400236204, 1.3698657370405272, 2.020687212003395, 2.7530050000641495, 3.2946246929932386, 3.987064787070267, 4.554256914998405, 5.2042186700273305, 5.8211059890454635, 6.453641697065905, 7.120487148989923, 7.770663268049248, 8.420262034982443, 9.088838326977566]",space,3.4696912019280717,,,,,,,EE,001,2019_Jul_23_1310,rev-kura_tap_2blocks,3.0.6,60.319049021647565,
./stimuli_1/tmp/medium_90_1.wav,90,medium,1.3827594725962091,,,,,0,49,49,49,,,,,,,,,,,,,"['space', 'space', 'space', 'space', 'space', 'space', 'space', 'space', 'space', 'space', 'space', 'space', 'space']","[0.7785295239882544, 1.295345293940045, 2.0615037649404258, 2.7957175159826875, 3.5203379819868132, 4.179164562025107, 4.862485092016868, 5.595645710942335, 6.295607808046043, 6.968943904037587, 7.662771078990772, 8.362635471043177, 9.02914461295586]",space,2.244246982038021,,,,,,,EE,001,2019_Jul_23_1310,rev-kura_tap_2blocks,3.0.6,60.319049021647565,
,,,,,,,,,,,,,,,,,,,,,,,,,,,,space,6.274563850951381,,,,,EE,001,2019_Jul_23_1310,rev-kura_tap_2blocks,3.0.6,60.319049021647565,
./stimuli_2/tmp/perfect_105_0.wav,105,perfect,2.471825489115851,,,,,,,,,0,0,0,10,,,,,,,,,,,,,,,"['space', 'space', 'space', 'space', 'space', 'space', 'space', 'space']","[0.8194564220029861, 1.3362147660227492, 1.885196484043263, 2.470069607021287, 3.052617722074501, 3.644307685084641, 4.202813942101784, 4.769737842027098]",space,0.5520070649217814,EE,001,2019_Jul_23_1310,rev-kura_tap_2blocks,3.0.6,60.319049021647565,
./stimuli_2/tmp/strong_90_3.wav,90,strong,1.6244125943376004,,,,,,,,,0,1,1,37,,,,,,,,,,,,,,,"['space', 'space', 'space', 'space', 'space', 'space', 'space', 'space']","[1.0600456120446324, 1.861012379056774, 2.592572258086875, 3.228373315068893, 3.975693983025849, 4.6941945580765605, 5.3617050549946725, 6.0119171070400625]",space,0.4860835860017687,EE,001,2019_Jul_23_1310,rev-kura_tap_2blocks,3.0.6,60.319049021647565,
./stimuli_2/tmp/medium_110_3.wav,110,medium,1.2616218191127295,,,,,,,,,0,2,2,11,,,,,,,,,,,,,,,"['space', 'space', 'space', 'space', 'space', 'space', 'space', 'space', 'space']","[0.952464891015552, 1.3698008080245927, 1.9344056859845296, 2.685988893965259, 3.286791892023757, 3.90263644605875, 4.485790612059645, 5.1700269429711625, 5.787089170073159]",space,0.6015806440263987,EE,001,2019_Jul_23_1310,rev-kura_tap_2blocks,3.0.6,60.319049021647565,
./stimuli_2/tmp/perfect_90_0.wav,90,perfect,1.8471350139820657,,,,,,,,,0,3,3,34,,,,,,,,,,,,,,,"['space', 'space', 'space', 'space', 'space', 'space', 'space', 'space', 'space']","[0.7525174869224429, 1.3187954589957371, 2.0027375009376556, 2.6353862669784576, 3.3862181740114465, 4.043991946964525, 4.670108724967577, 5.320321852923371, 6.019143227022141]",space,0.511806369991973,EE,001,2019_Jul_23_1310,rev-kura_tap_2blocks,3.0.6,60.319049021647565,
./stimuli_2/tmp/medium_110_4.wav,110,medium,1.2412593574024813,,,,,,,,,0,4,4,8,,,,,,,,,,,,,,,"['space', 'space', 'space', 'space', 'space', 'space', 'space', 'space', 'space', 'space']","[0.9016002240823582, 1.4356405180878937, 1.952744442038238, 2.5688851249869913, 3.138275396078825, 3.736202734988183, 4.252279288019054, 4.802492131013423, 5.369131884071976, 5.969926392077468]",space,0.6360007160110399,EE,001,2019_Jul_23_1310,rev-kura_tap_2blocks,3.0.6,60.319049021647565,
./stimuli_2/tmp/perfect_95_1.wav,95,perfect,1.6931350678865988,,,,,,,,,0,5,5,26,,,,,,,,,,,,,,,"['space', 'space', 'space', 'space', 'space', 'space', 'space', 'space']","[0.8193923839135095, 1.1027065030066296, 1.7529017359483987, 2.3689976829336956, 3.0608110119355842, 3.652212681947276, 4.909093194990419, 5.51936970395036]",space,0.5586052900180221,EE,001,2019_Jul_23_1310,rev-kura_tap_2blocks,3.0.6,60.319049021647565,
./stimuli_2/tmp/vweak_105_3.wav,105,veryweak,1.505363686413271,,,,,,,,,0,6,6,7,,,,,,,,,,,,,,,"['space', 'space', 'space', 'space', 'space', 'space', 'space', 'space']","[1.1523707669693977, 1.6861571359913796, 2.3186921440064907, 3.069311734987423, 3.7354666009778157, 4.25209790491499, 4.88590065902099, 5.477621768950485]",space,1.176314504002221,EE,001,2019_Jul_23_1310,rev-kura_tap_2blocks,3.0.6,60.319049021647565,
./stimuli_2/tmp/perfect_90_1.wav,90,perfect,0.9437088291454946,,,,,,,,,0,7,7,38,,,,,,,,,,,,,,,"['space', 'space', 'space', 'space', 'space', 'space', 'space', 'space', 'space']","[0.8193899909965694, 1.3072446540463716, 2.0359295399393886, 2.70306636497844, 3.386460148030892, 3.993372999946587, 4.703487379010767, 5.336058326996863, 6.027203590027057]",space,0.34765821194741875,EE,001,2019_Jul_23_1310,rev-kura_tap_2blocks,3.0.6,60.319049021647565,
./stimuli_2/tmp/strong_95_3.wav,95,strong,2.368023631857328,,,,,,,,,0,8,8,24,,,,,,,,,,,,,,,"['space', 'space', 'space', 'space', 'space', 'space', 'space', 'space', 'space']","[0.791658011963591, 1.219277894939296, 1.9702801959356293, 2.753948960918933, 3.2786817549495026, 3.9034297269536182, 4.470544459996745, 5.154190581990406, 5.744584122905508]",space,1.6897479980252683,EE,001,2019_Jul_23_1310,rev-kura_tap_2blocks,3.0.6,60.319049021647565,
./stimuli_2/tmp/weak_105_3.wav,105,weak,1.8785671226313851,,,,,,,,,0,9,9,49,,,,,,,,,,,,,,,"['space', 'space', 'space', 'space', 'space', 'space', 'space', 'space', 'space']","[0.7690410630311817, 1.119539855979383, 1.774143239017576, 2.417840123991482, 3.212558259954676, 3.8531220300355926, 4.552458913996816, 5.302639088942669, 5.986315228976309]",space,0.3853726319503039,EE,001,2019_Jul_23_1310,rev-kura_tap_2blocks,3.0.6,60.319049021647565,
./stimuli_2/tmp/strong_95_4.wav,95,strong,1.3122188661972012,,,,,,,,,0,10,10,19,,,,,,,,,,,,,,,"['space', 'space', 'space', 'space', 'space', 'space', 'space', 'space']","[0.7694748080102727, 1.4354720930568874, 2.169117334065959, 2.80246639798861, 3.5190029200166464, 4.195640917052515, 4.853151884977706, 5.545027659041807]",space,0.8307908460265025,EE,001,2019_Jul_23_1310,rev-kura_tap_2blocks,3.0.6,60.319049021647565,
./stimuli_2/tmp/medium_95_3.wav,95,medium,0.9787884089584356,,,,,,,,,0,11,11,18,,,,,,,,,,,,,,,"['space', 'space', 'space', 'space', 'space', 'space', 'space', 'space']","[1.2417760499520227, 1.868750432971865, 2.535343636991456, 3.1842704419977963, 3.828352167038247, 4.503003683988936, 5.135561604984105, 5.761384657933377]",space,0.4689489819575101,EE,001,2019_Jul_23_1310,rev-kura_tap_2blocks,3.0.6,60.319049021647565,
./stimuli_2/tmp/weak_110_3.wav,110,weak,1.4034951095242638,,,,,,,,,0,12,12,0,,,,,,,,,,,,,,,"['space', 'space', 'space', 'space', 'space', 'space', 'space', 'space', 'space']","[0.868499274016358, 1.3359409240074456, 1.8891713110497221, 2.602466023992747, 3.4615928269922733, 3.9684698439668864, 4.524287311010994, 5.43640033097472, 5.885741131962277]",space,0.7190754039911553,EE,001,2019_Jul_23_1310,rev-kura_tap_2blocks,3.0.6,60.319049021647565,
./stimuli_2/tmp/perfect_110_1.wav,110,perfect,1.960810456770172,,,,,,,,,0,13,13,17,,,,,,,,,,,,,,,"['space', 'space', 'space', 'space', 'space', 'space', 'space', 'space']","[0.7860558499814942, 1.2547186850570142, 1.7359043309697881, 2.293004740960896, 2.802980010979809, 3.336744762957096, 3.8530577019555494, 4.409248403040692]",space,2.4632932189852,EE,001,2019_Jul_23_1310,rev-kura_tap_2blocks,3.0.6,60.319049021647565,
./stimuli_2/tmp/weak_90_4.wav,90,weak,2.0685733483084743,,,,,,,,,0,14,14,16,,,,,,,,,,,,,,,"['space', 'space', 'space', 'space', 'space', 'space', 'space', 'space', 'space']","[0.5477089500054717, 1.1296542229829356, 1.7648430749541149, 2.4310244530206546, 3.0807106009451672, 3.8538418100215495, 4.5126653329934925, 5.198168135015294, 5.88905081001576]",space,0.4852272269781679,EE,001,2019_Jul_23_1310,rev-kura_tap_2blocks,3.0.6,60.319049021647565,
./stimuli_2/tmp/weak_100_3.wav,100,weak,0.8397616430138637,,,,,,,,,0,15,15,21,,,,,,,,,,,,,,,"['space', 'space', 'space', 'space', 'space', 'space', 'space', 'space', 'space', 'space']","[0.5528061459772289, 1.2195687239291146, 1.917530530015938, 2.4524938239483163, 2.9343165659811348, 3.691737992921844, 4.219436154002324, 4.820169472950511, 5.3697400889359415, 6.036725096986629]",space,0.6518728869268671,EE,001,2019_Jul_23_1310,rev-kura_tap_2blocks,3.0.6,60.319049021647565,
./stimuli_2/tmp/strong_90_4.wav,90,strong,0.9547797326956972,,,,,,,,,0,16,16,44,,,,,,,,,,,,,,,"['space', 'space', 'space', 'space', 'space', 'space', 'space', 'space']","[1.0357375090243295, 1.8192607149248943, 2.5256892220349982, 3.1353893380146474, 3.885873756953515, 4.569303222000599, 5.236409705947153, 5.886711134924553]",space,0.6540001389803365,EE,001,2019_Jul_23_1310,rev-kura_tap_2blocks,3.0.6,60.319049021647565,
./stimuli_2/tmp/perfect_110_0.wav,110,perfect,1.6760608294086363,,,,,,,,,0,17,17,14,,,,,,,,,,,,,,,"['space', 'space', 'space', 'space', 'space', 'space', 'space', 'space']","[0.7076648439979181, 1.2531225680140778, 1.7193951269146055, 2.2603738349862397, 2.768779902951792, 3.3358065619831905, 3.8746375679038465, 4.403262262931094]",space,0.836980601074174,EE,001,2019_Jul_23_1310,rev-kura_tap_2blocks,3.0.6,60.319049021647565,
./stimuli_2/tmp/medium_105_4.wav,105,medium,1.8823047760740792,,,,,,,,,0,18,18,28,,,,,,,,,,,,,,,"['space', 'space', 'space', 'space', 'space', 'space', 'space', 'space', 'space', 'space']","[0.78533870796673, 1.3368182400008664, 1.867735954001546, 2.4696665549417958, 3.0575882089324296, 3.6362742559285834, 4.20336932700593, 4.769860649947077, 5.402847214019857, 5.969828000990674]",space,0.6518919760128483,EE,001,2019_Jul_23_1310,rev-kura_tap_2blocks,3.0.6,60.319049021647565,
./stimuli_2/tmp/vweak_100_3.wav,100,veryweak,0.8472696952655959,,,,,,,,,0,19,19,5,,,,,,,,,,,,,,,"['space', 'space', 'space', 'space', 'space', 'space', 'space', 'space']","[0.8511834529927, 1.5186413968913257, 2.1521544739371166, 2.935072747990489, 3.6200495848897845, 4.2351233379449695, 4.834800511947833, 5.4855085999006405]",space,0.5360050599556416,EE,001,2019_Jul_23_1310,rev-kura_tap_2blocks,3.0.6,60.319049021647565,
./stimuli_2/tmp/perfect_100_1.wav,100,perfect,1.900582361571024,,,,,,,,,0,20,20,1,,,,,,,,,,,,,,,"['space', 'space', 'space', 'space', 'space', 'space', 'space', 'space']","[0.9689082660479471, 1.5866308209951967, 2.1525994039839134, 2.736504823085852, 3.352831298019737, 3.953311407007277, 4.55293739400804, 5.153672342072241]",space,0.8864147320855409,EE,001,2019_Jul_23_1310,rev-kura_tap_2blocks,3.0.6,60.319049021647565,
./stimuli_2/tmp/vweak_95_3.wav,95,veryweak,2.160580057702042,,,,,,,,,0,21,21,32,,,,,,,,,,,,,,,"['space', 'space', 'space', 'space', 'space', 'space', 'space', 'space', 'space']","[0.985381116042845, 1.7922659440664575, 2.352843118016608, 3.0029531830223277, 3.6033721370622516, 4.25355771498289, 4.853432227042504, 5.426188823999837, 5.953652509022504]",space,0.6695652740309015,EE,001,2019_Jul_23_1310,rev-kura_tap_2blocks,3.0.6,60.319049021647565,
./stimuli_2/tmp/vweak_95_4.wav,95,veryweak,1.2922043074511544,,,,,,,,,0,22,22,22,,,,,,,,,,,,,,,"['space', 'space', 'space', 'space', 'space', 'space', 'space', 'space']","[1.0859859390184283, 1.7863418280612677, 2.3754865269875154, 3.0865835590520874, 3.7006373760523275, 4.317777237039991, 5.053525079041719, 5.50285813503433]",space,0.4245287450030446,EE,001,2019_Jul_23_1310,rev-kura_tap_2blocks,3.0.6,60.319049021647565,
./stimuli_2/tmp/strong_100_4.wav,100,strong,1.3398198733573277,,,,,,,,,0,23,23,48,,,,,,,,,,,,,,,"['space', 'space', 'space', 'space', 'space', 'space', 'space', 'space', 'space']","[0.6017370909685269, 1.2189713519765064, 1.8402840009657666, 2.502030545962043, 3.119521404034458, 3.75757020607125, 4.351098724058829, 4.969023767043836, 5.586323395022191]",space,0.6922909569693729,EE,001,2019_Jul_23_1310,rev-kura_tap_2blocks,3.0.6,60.319049021647565,
./stimuli_2/tmp/medium_105_3.wav,105,medium,0.9417007635762324,,,,,,,,,0,24,24,15,,,,,,,,,,,,,,,"['space', 'space', 'space', 'space', 'space', 'space', 'space', 'space', 'space', 'space', 'space']","[0.5523243170464411, 1.0028952889842913, 1.4195816139690578, 1.8044748860411346, 2.3697220479371026, 2.88650498399511, 3.5922644139500335, 4.07020839699544, 4.487204486038536, 5.260946688940749, 5.819893031963147]",space,0.43680713698267937,EE,001,2019_Jul_23_1310,rev-kura_tap_2blocks,3.0.6,60.319049021647565,
./stimuli_2/tmp/strong_105_4.wav,105,strong,1.0619213958525664,,,,,,,,,0,25,25,23,,,,,,,,,,,,,,,"['space', 'space', 'space', 'space', 'space', 'space', 'space', 'space', 'space', 'space', 'space']","[0.6192350159399211, 0.8689799989806488, 1.3695824249880388, 1.9179575128946453, 2.485627419897355, 3.0359741899883375, 3.6417413579765707, 4.185949279926717, 4.803314320975915, 5.35306454799138, 5.903494916972704]",space,0.9672338020754978,EE,001,2019_Jul_23_1310,rev-kura_tap_2blocks,3.0.6,60.319049021647565,
./stimuli_2/tmp/medium_95_4.wav,95,medium,1.5689377747074644,,,,,,,,,0,26,26,27,,,,,,,,,,,,,,,"['space', 'space', 'space', 'space', 'space', 'space', 'space', 'space', 'space']","[0.9187426690477878, 1.6692080299835652, 2.433778373990208, 3.1520155899925157, 3.7903121780836955, 4.453483464079909, 5.169871204998344, 5.825292874011211, 8.18604382907506]",space,0.38569103204645216,EE,001,2019_Jul_23_1310,rev-kura_tap_2blocks,3.0.6,60.319049021647565,
./stimuli_2/tmp/weak_95_3.wav,95,weak,1.2112449492962023,,,,,,,,,0,27,27,36,,,,,,,,,,,,,,,"['space', 'space', 'space', 'space', 'space', 'space', 'space', 'space']","[0.8020241529447958, 1.3448349318932742, 2.069196337950416, 2.775897371931933, 3.5024759899824858, 4.193511132965796, 4.836699365987442, 5.502515213913284]",space,0.7533971159718931,EE,001,2019_Jul_23_1310,rev-kura_tap_2blocks,3.0.6,60.319049021647565,
./stimuli_2/tmp/strong_105_3.wav,105,strong,1.2846849156286215,,,,,,,,,0,28,28,31,,,,,,,,,,,,,,,"['space', 'space', 'space', 'space', 'space', 'space', 'space', 'space', 'space', 'space', 'space']","[0.5519517740467563, 0.9022974680410698, 1.3854681589873508, 1.968399299075827, 2.5361375220818445, 3.1021243850700557, 3.694829797022976, 4.286105363047682, 4.836505587096326, 5.418608352076262, 5.969723231042735]",space,0.5357364680385217,EE,001,2019_Jul_23_1310,rev-kura_tap_2blocks,3.0.6,60.319049021647565,
./stimuli_2/tmp/medium_90_4.wav,90,medium,1.4187547606829107,,,,,,,,,0,29,29,39,,,,,,,,,,,,,,,"['space', 'space', 'space', 'space', 'space', 'space', 'space', 'space', 'space']","[0.7694284819299355, 1.2425353520084172, 1.8529002909781411, 2.5200679659610614, 3.1530824579531327, 3.787464303895831, 4.420803817920387, 5.0876424089074135, 5.7036017859354615]",space,0.9814856139710173,EE,001,2019_Jul_23_1310,rev-kura_tap_2blocks,3.0.6,60.319049021647565,
./stimuli_2/tmp/medium_100_4.wav,100,medium,1.1108721091211078,,,,,,,,,0,30,30,35,,,,,,,,,,,,,,,"['space', 'space', 'space', 'space', 'space', 'space', 'space', 'space', 'space']","[0.8450647339923307, 1.5023340440820903, 2.170140299014747, 2.7908380610169843, 3.453636520076543, 4.0700328620150685, 4.720240514026955, 5.353524614009075, 6.0361395759973675]",space,0.9437864450737834,EE,001,2019_Jul_23_1310,rev-kura_tap_2blocks,3.0.6,60.319049021647565,
./stimuli_2/tmp/weak_100_4.wav,100,weak,1.8643156091783653,,,,,,,,,0,31,31,33,,,,,,,,,,,,,,,"['space', 'space', 'space', 'space', 'space', 'space', 'space', 'space']","[0.897621072945185, 1.6595489110331982, 2.3098534930031747, 2.9153161729918793, 3.5431456599617377, 4.20991471898742, 4.861407788004726, 5.443172006052919]",space,0.6688944739289582,EE,001,2019_Jul_23_1310,rev-kura_tap_2blocks,3.0.6,60.319049021647565,
./stimuli_2/tmp/strong_110_3.wav,110,strong,2.128797507874421,,,,,,,,,0,32,32,6,,,,,,,,,,,,,,,"['space', 'space', 'space', 'space', 'space', 'space', 'space', 'space', 'space', 'space', 'space', 'space']","[0.7786937219789252, 1.2337797889485955, 1.6697853729128838, 2.169247698970139, 2.6719338709954172, 3.2026632769266143, 3.5027794669149444, 3.7530946530168876, 4.27766432298813, 4.820998144918121, 5.329035812988877, 5.869425588985905]",space,0.8009441349422559,EE,001,2019_Jul_23_1310,rev-kura_tap_2blocks,3.0.6,60.319049021647565,
./stimuli_2/tmp/vweak_90_3.wav,90,veryweak,0.8098621072043313,,,,,,,,,0,33,33,42,,,,,,,,,,,,,,,"['space', 'space', 'space', 'space', 'space', 'space', 'space', 'space', 'space']","[0.7571448959643021, 1.351849238970317, 1.90201492595952, 2.535896779038012, 3.159252149052918, 3.767713909968734, 4.36958121904172, 4.951098134974018, 5.552771518006921]",space,0.7530724230455235,EE,001,2019_Jul_23_1310,rev-kura_tap_2blocks,3.0.6,60.319049021647565,
./stimuli_2/tmp/perfect_100_0.wav,100,perfect,1.3424117839845908,,,,,,,,,0,34,34,3,,,,,,,,,,,,,,,"['space', 'space', 'space', 'space', 'space', 'space', 'space', 'space']","[0.9194268860155717, 1.5355079430155456, 2.1261253150878474, 2.7198229170171544, 3.3856987060280517, 4.002456072019413, 4.570393803995103, 5.1625847620889544]",space,1.1422891929978505,EE,001,2019_Jul_23_1310,rev-kura_tap_2blocks,3.0.6,60.319049021647565,
./stimuli_2/tmp/medium_90_3.wav,90,medium,2.469674326004891,,,,,,,,,0,35,35,43,,,,,,,,,,,,,,,"['space', 'space', 'space', 'space', 'space', 'space', 'space', 'space', 'space']","[1.1527627240866423, 1.8026731500867754, 2.4358045960543677, 3.075988644035533, 3.7697662070859224, 4.45271947607398, 5.069876283057965, 5.519871367025189, 5.868969424976967]",space,0.8093389190034941,EE,001,2019_Jul_23_1310,rev-kura_tap_2blocks,3.0.6,60.319049021647565,
./stimuli_2/tmp/strong_110_4.wav,110,strong,1.9935472881648024,,,,,,,,,0,36,36,9,,,,,,,,,,,,,,,"['space', 'space', 'space', 'space', 'space', 'space', 'space', 'space', 'space']","[0.8020211060065776, 1.3083587810397148, 1.819432269083336, 2.5030246070818976, 3.1207742820261046, 3.702972896047868, 4.3037960910005495, 4.893883857061155, 5.5370023410068825]",space,0.6930075940908864,EE,001,2019_Jul_23_1310,rev-kura_tap_2blocks,3.0.6,60.319049021647565,
./stimuli_2/tmp/vweak_110_4.wav,110,veryweak,1.4056094097142195,,,,,,,,,0,37,37,20,,,,,,,,,,,,,,,"['space', 'space', 'space', 'space', 'space', 'space', 'space', 'space', 'space']","[1.1185681549832225, 1.7181099799927324, 2.2686023509595543, 2.7355475599179044, 3.258575330954045, 3.9024880699580535, 4.403020964004099, 4.95252839801833, 5.451959014986642]",space,1.1350807240232825,EE,001,2019_Jul_23_1310,rev-kura_tap_2blocks,3.0.6,60.319049021647565,
./stimuli_2/tmp/vweak_90_4.wav,90,veryweak,2.01675312210347,,,,,,,,,0,38,38,47,,,,,,,,,,,,,,,"['space', 'space', 'space', 'space']","[1.5033404231071472, 2.8857437380356714, 4.21117934002541, 5.603415330057032]",space,0.5983544209739193,EE,001,2019_Jul_23_1310,rev-kura_tap_2blocks,3.0.6,60.319049021647565,
./stimuli_2/tmp/strong_100_3.wav,100,strong,1.4654700353387642,,,,,,,,,0,39,39,41,,,,,,,,,,,,,,,"['space', 'space', 'space', 'space', 'space', 'space', 'space', 'space', 'space']","[0.9849381280364469, 1.3522877639625221, 2.0339964509475976, 2.669472709996626, 3.369185414048843, 4.034566355985589, 4.671131522045471, 5.3078223740449175, 5.953125044004992]",space,0.6855653630336747,EE,001,2019_Jul_23_1310,rev-kura_tap_2blocks,3.0.6,60.319049021647565,
./stimuli_2/tmp/vweak_105_4.wav,105,veryweak,1.6327958275835193,,,,,,,,,0,40,40,12,,,,,,,,,,,,,,,"['space', 'space', 'space', 'space', 'space']","[1.0861515949945897, 2.0026344779180363, 3.135894341976382, 4.219702903996222, 5.408967861905694]",space,1.5185863010119647,EE,001,2019_Jul_23_1310,rev-kura_tap_2blocks,3.0.6,60.319049021647565,
./stimuli_2/tmp/vweak_100_4.wav,100,veryweak,1.7061160215264062,,,,,,,,,0,41,41,2,,,,,,,,,,,,,,,"['space', 'space', 'space', 'space', 'space', 'space', 'space']","[1.4024164220318198, 2.736766269081272, 3.292079701088369, 3.8030428040074185, 4.318642495083623, 5.219255027011968, 5.869552789023146]",space,0.9198035061126575,EE,001,2019_Jul_23_1310,rev-kura_tap_2blocks,3.0.6,60.319049021647565,
./stimuli_2/tmp/weak_90_3.wav,90,weak,1.336733561564532,,,,,,,,,0,42,42,29,,,,,,,,,,,,,,,"['space', 'space', 'space', 'space', 'space', 'space', 'space', 'space']","[1.1695202949922532, 1.7697908150730655, 2.50357622501906, 3.2203433010727167, 3.7862875330029055, 4.45354512904305, 5.204151667072438, 5.820460533024743]",space,0.6736602950841188,EE,001,2019_Jul_23_1310,rev-kura_tap_2blocks,3.0.6,60.319049021647565,
./stimuli_2/tmp/weak_95_4.wav,95,weak,1.59401142701977,,,,,,,,,0,43,43,46,,,,,,,,,,,,,,,"['space', 'space', 'space', 'space', 'space', 'space', 'space']","[1.3355330569902435, 2.1306352390674874, 3.096536949975416, 3.781808299012482, 4.614265560056083, 5.263841659063473, 5.964964888058603]",space,0.6282811799319461,EE,001,2019_Jul_23_1310,rev-kura_tap_2blocks,3.0.6,60.319049021647565,
./stimuli_2/tmp/vweak_110_3.wav,110,veryweak,1.9493514140483303,,,,,,,,,0,44,44,25,,,,,,,,,,,,,,,"['space', 'space', 'space', 'space', 'space', 'space', 'space', 'space']","[0.9358160429401323, 1.6031456210184842, 1.9285923920106143, 2.5191813019337133, 3.035655166953802, 4.1536588029703125, 5.2030843700049445, 6.953519593924284]",space,1.0552065159427002,EE,001,2019_Jul_23_1310,rev-kura_tap_2blocks,3.0.6,60.319049021647565,
./stimuli_2/tmp/weak_105_4.wav,105,weak,2.3797932117961262,,,,,,,,,0,45,45,40,,,,,,,,,,,,,,,"['space', 'space', 'space', 'space', 'space', 'space', 'space', 'space']","[1.1511751249199733, 1.7171179769793525, 2.4583555709104985, 3.134577263961546, 3.717691953992471, 4.55218146299012, 4.986565241008066, 5.719806019915268]",space,0.5773762649623677,EE,001,2019_Jul_23_1310,rev-kura_tap_2blocks,3.0.6,60.319049021647565,
./stimuli_2/tmp/perfect_105_1.wav,105,perfect,1.9598890814615504,,,,,,,,,0,46,46,13,,,,,,,,,,,,,,,"['space', 'space', 'space', 'space', 'space', 'space', 'space', 'space', 'space']","[0.4859562710626051, 0.8193965760292485, 1.2857279690215364, 1.8529047659831122, 2.4863222469575703, 3.0743258979637176, 3.6037883990211412, 4.16918779106345, 4.753042115014978]",space,0.7789716030238196,EE,001,2019_Jul_23_1310,rev-kura_tap_2blocks,3.0.6,60.319049021647565,
./stimuli_2/tmp/medium_100_3.wav,100,medium,0.9227517929886035,,,,,,,,,0,47,47,45,,,,,,,,,,,,,,,"['space', 'space', 'space', 'space', 'space', 'space', 'space', 'space', 'space', 'space', 'space']","[0.9133904410991818, 1.3666771370917559, 1.8477862071013078, 2.3970751110464334, 2.940139555023052, 3.4808900610078126, 3.972883838112466, 4.5122942180605605, 5.0059007570380345, 5.548320342088118, 6.097537925001234]",space,0.6108919850084931,EE,001,2019_Jul_23_1310,rev-kura_tap_2blocks,3.0.6,60.319049021647565,
./stimuli_2/tmp/perfect_95_0.wav,95,perfect,2.0105466277142785,,,,,,,,,0,48,48,30,,,,,,,,,,,,,,,"['space', 'space', 'space', 'space', 'space', 'space', 'space', 'space']","[1.0463487199740484, 1.7694297669222578, 2.4610730489948764, 3.06338343990501, 3.696083470946178, 4.279617402004078, 4.96345759590622, 5.563562382943928]",space,0.5854785159463063,EE,001,2019_Jul_23_1310,rev-kura_tap_2blocks,3.0.6,60.319049021647565,
./stimuli_2/tmp/weak_110_4.wav,110,weak,1.2158046753843554,,,,,,,,,0,49,49,4,,,,,,,,,,,,,,,"['space', 'space', 'space', 'space', 'space', 'space']","[0.5027705070096999, 1.0435201880754903, 1.9692004279932007, 3.386569260037504, 4.552738422993571, 5.658884232980199]",space,0.5580637860111892,EE,001,2019_Jul_23_1310,rev-kura_tap_2blocks,3.0.6,60.319049021647565,
