sndfile,tempo,cond,delay,trials_practice.thisRepN,trials_practice.thisTrialN,trials_practice.thisN,trials_practice.thisIndex,trials.thisRepN,trials.thisTrialN,trials.thisN,trials.thisIndex,trials_2.thisRepN,trials_2.thisTrialN,trials_2.thisN,trials_2.thisIndex,key_resp_2.keys,key_resp_2.rt,key_resp_4.keys,key_resp_4.rt,key_resp_3.keys,key_resp_3.rt,key_resp_7.keys,key_resp_7.rt,key_resp_9.keys,key_resp_9.rt,key_resp_5.keys,key_resp_5.rt,key_resp_8.keys,key_resp_8.rt,key_resp_10.keys,key_resp_10.rt,key_resp_6.keys,key_resp_6.rt,participant,session,date,expName,psychopyVersion,frameRate,
,,,,,,,,,,,,,,,,space,8.61206355295144,,,,,,,,,,,,,,,,,FF,001,2019_Jul_23_1350,rev-kura_tap_2blocks,3.0.6,60.15847751743551,
./stimuli_1/tmp/strong_90_1.wav,90,strong,1.013023596,0,0,0,1,,,,,,,,,,,"['space', 'space', 'space', 'space', 'space', 'space', 'space', 'space', 'space', 'space']","[3.186294738901779, 3.8701410299399868, 4.570861478918232, 5.303376363939606, 5.986578701995313, 6.694052429986186, 7.386809226940386, 8.103817400988191, 8.855083106900565, 9.57649147999473]",space,1.0378903789678589,,,,,,,,,,,,,FF,001,2019_Jul_23_1350,rev-kura_tap_2blocks,3.0.6,60.15847751743551,
./stimuli_1/tmp/medium_110_1.wav,110,medium,0.970866786,0,1,1,2,,,,,,,,,,,"['space', 'space', 'space', 'space', 'space', 'space', 'space', 'space', 'space', 'space', 'space', 'space', 'space', 'space']","[1.869510737946257, 2.4358083358965814, 3.0531371649121866, 3.5857641629409045, 4.152195998001844, 4.735680895973928, 5.2863136269152164, 5.870110471965745, 6.402363822911866, 6.986800562008284, 7.5704199319006875, 8.14283968298696, 8.753089789999649, 9.303644778905436]",space,0.744706321042031,,,,,,,,,,,,,FF,001,2019_Jul_23_1350,rev-kura_tap_2blocks,3.0.6,60.15847751743551,
./stimuli_1/tmp/medium_100_1.wav,100,medium,1.797198505,0,2,2,0,,,,,,,,,,,"['space', 'space', 'space', 'space', 'space', 'space', 'space', 'space', 'space', 'space', 'space', 'space']","[1.8860083559993654, 2.4869418280432, 3.1255583979655057, 3.7693777240347117, 4.437989101046696, 5.070172847015783, 5.720791787956841, 6.3535546930506825, 7.0039459459949285, 7.65447888802737, 8.323389715049416, 8.969078195979819]",space,0.8446059279376641,,,,,,,,,,,,,FF,001,2019_Jul_23_1350,rev-kura_tap_2blocks,3.0.6,60.15847751743551,
./stimuli_1/tmp/vweak_105_1.wav,105,veryweak,1.91267155,0,3,3,3,,,,,,,,,,,"['space', 'space', 'space', 'space', 'space', 'space', 'space', 'space', 'space', 'space', 'space', 'space', 'space']","[1.894625839078799, 2.4783857880393043, 3.0681713690282777, 3.662298504030332, 4.26227609498892, 4.861909335013479, 5.444985254085623, 6.012110430048779, 6.602891738992184, 7.195498847984709, 7.778491047094576, 8.345939574064687, 8.927487067994662]",space,0.5793275579344481,,,,,,,,,,,,,FF,001,2019_Jul_23_1350,rev-kura_tap_2blocks,3.0.6,60.15847751743551,
./stimuli_1/tmp/medium_110_1.wav,110,medium,1.222685394,0,4,4,4,,,,,,,,,,,"['space', 'space', 'space', 'space', 'space', 'space', 'space', 'space', 'space', 'space', 'space', 'space', 'space', 'space']","[1.8111690329387784, 2.387149738962762, 2.9866862619528547, 3.576766195939854, 4.169786600978114, 4.7367385879624635, 5.309056773898192, 5.886563164996915, 6.4536488419398665, 7.003882979974151, 7.61983334296383, 8.186856858897954, 8.760161989950575, 9.337196168955415]",space,0.9208808880066499,,,,,,,,,,,,,FF,001,2019_Jul_23_1350,rev-kura_tap_2blocks,3.0.6,60.15847751743551,
,,,,,,,,,,,,,,,,,,,,,,space,4.957958986982703,,,,,,,,,,,FF,001,2019_Jul_23_1350,rev-kura_tap_2blocks,3.0.6,60.15847751743551,
./stimuli_1/tmp/vweak_110_2.wav,110,veryweak,1.2375564653250335,,,,,0,0,0,28,,,,,,,,,,,,,"['space', 'space', 'space', 'space', 'space', 'space', 'space', 'space', 'space', 'space', 'space', 'space', 'space', 'space', 'space']","[2.2761599080404267, 2.719659244059585, 3.3028304160106927, 3.7777412440627813, 4.302280042087659, 4.802993568009697, 5.4358055259799585, 5.986183930072002, 6.536758363014087, 7.0361603810451925, 7.453495661029592, 7.986697589047253, 8.486544242012314, 9.003435722086579, 9.52057043008972]",space,0.507256114971824,,,,,,,FF,001,2019_Jul_23_1350,rev-kura_tap_2blocks,3.0.6,60.15847751743551,
./stimuli_1/tmp/strong_100_1.wav,100,strong,1.2298337616078612,,,,,0,1,1,37,,,,,,,,,,,,,"['space', 'space', 'space', 'space', 'space', 'space', 'space', 'space', 'space', 'space', 'space', 'space']","[2.135460746008903, 2.819791467045434, 3.4858233090490103, 4.109817371005192, 4.736324931960553, 5.3861302060540766, 6.070470078964718, 6.719689758028835, 7.351383720058948, 7.986956350971013, 8.670462804962881, 9.27036747802049]",space,0.7576367889996618,,,,,,,FF,001,2019_Jul_23_1350,rev-kura_tap_2blocks,3.0.6,60.15847751743551,
./stimuli_1/tmp/strong_105_2.wav,105,strong,0.9615404084728899,,,,,0,2,2,31,,,,,,,,,,,,,"['space', 'space', 'space', 'space', 'space', 'space', 'space', 'space', 'space', 'space', 'space', 'space']","[1.9029263629345223, 2.5357928270241246, 3.2027568239718676, 3.852803368936293, 4.487414243048988, 5.167652930947952, 5.78460486093536, 6.421074777026661, 7.027052863966674, 7.7033976670354605, 8.344043105957098, 8.97016472404357]",space,0.5265167660545558,,,,,,,FF,001,2019_Jul_23_1350,rev-kura_tap_2blocks,3.0.6,60.15847751743551,
./stimuli_1/tmp/strong_100_2.wav,100,strong,1.5994648074282498,,,,,0,3,3,42,,,,,,,,,,,,,"['space', 'space', 'space', 'space', 'space', 'space', 'space', 'space', 'space', 'space', 'space', 'space', 'space']","[1.9360763800796121, 2.503220000071451, 3.1038762790849432, 3.719764127046801, 4.3417404040228575, 4.919836854096502, 5.584606988006271, 6.187092730076984, 6.786727707018144, 7.394232643069699, 8.02055471308995, 8.620409441995434, 9.237222842057236]",space,0.926534115918912,,,,,,,FF,001,2019_Jul_23_1350,rev-kura_tap_2blocks,3.0.6,60.15847751743551,
./stimuli_1/tmp/perfect_100_0.wav,100,perfect,2.1771183722066985,,,,,0,4,4,2,,,,,,,,,,,,,"['space', 'space', 'space', 'space', 'space', 'space', 'space', 'space']","[1.6359975350787863, 2.157906605047174, 2.7863152190111578, 3.3699702210724354, 3.986788646085188, 4.569994679070078, 5.169891140074469, 5.867813442018814]",space,0.6526447830256075,,,,,,,FF,001,2019_Jul_23_1350,rev-kura_tap_2blocks,3.0.6,60.15847751743551,
./stimuli_1/tmp/medium_100_1.wav,100,medium,0.9469441789171564,,,,,0,5,5,47,,,,,,,,,,,,,"['space', 'space', 'space', 'space', 'space', 'space', 'space', 'space', 'space', 'space', 'space', 'space']","[1.7957548069534823, 2.4342452510027215, 3.086263151955791, 3.7587682369630784, 4.386592480004765, 5.0366012959275395, 5.703566640964709, 6.353655666927807, 6.953452427987941, 7.58695430890657, 8.26033457997255, 8.92086242500227]",space,0.5194828599924222,,,,,,,FF,001,2019_Jul_23_1350,rev-kura_tap_2blocks,3.0.6,60.15847751743551,
./stimuli_1/tmp/weak_110_1.wav,110,weak,2.302762081100819,,,,,0,6,6,3,,,,,,,,,,,,,"['space', 'space', 'space', 'space', 'space', 'space', 'space', 'space', 'space', 'space', 'space', 'space', 'space', 'space']","[1.8529296149499714, 2.409995283000171, 2.9693950809305534, 3.519917933968827, 4.08642578497529, 4.686809487990104, 5.286675647017546, 5.893563141929917, 6.470180625910871, 7.0703847599215806, 7.659605179913342, 8.237619449966587, 8.787268757936545, 9.370576743967831]",space,0.46287715598009527,,,,,,,FF,001,2019_Jul_23_1350,rev-kura_tap_2blocks,3.0.6,60.15847751743551,
./stimuli_1/tmp/weak_105_1.wav,105,weak,2.3476680969619683,,,,,0,7,7,45,,,,,,,,,,,,,"['space', 'space', 'space', 'space', 'space', 'space', 'space', 'space', 'space', 'space', 'space', 'space']","[2.58621542097535, 3.1863770020427182, 3.885865652002394, 4.534004881978035, 5.152716111042537, 5.810405655065551, 6.4205647620838135, 7.0532903369748965, 7.6771251920145005, 8.220060002058744, 8.744297079043463, 9.303493340034038]",space,0.4524882879341021,,,,,,,FF,001,2019_Jul_23_1350,rev-kura_tap_2blocks,3.0.6,60.15847751743551,
./stimuli_1/tmp/vweak_90_2.wav,90,veryweak,1.0044987578235975,,,,,0,8,8,40,,,,,,,,,,,,,"['space', 'space', 'space', 'space', 'space', 'space', 'space', 'space', 'space', 'space', 'space', 'space', 'space']","[1.6533439590130001, 2.2863579490222037, 2.937536168959923, 3.5698966359486803, 4.253574762027711, 4.91991648892872, 5.521420764038339, 6.15356621099636, 6.787187254987657, 7.411627326044254, 8.054509658017196, 8.68746177200228, 9.304144865018316]",space,0.5073163990164176,,,,,,,FF,001,2019_Jul_23_1350,rev-kura_tap_2blocks,3.0.6,60.15847751743551,
./stimuli_1/tmp/medium_110_2.wav,110,medium,1.962096670593472,,,,,0,9,9,12,,,,,,,,,,,,,"['space', 'space', 'space', 'space', 'space', 'space', 'space', 'space', 'space', 'space', 'space', 'space', 'space', 'space', 'space']","[1.4526642659911886, 1.9789431110257283, 2.602919640019536, 3.1858594740042463, 3.702427170937881, 4.219752940931357, 4.84363662393298, 5.4197576069273055, 5.953683616942726, 6.525324148940854, 7.103650165023282, 7.638084325939417, 8.186782049015164, 8.754049960989505, 9.336865691002458]",space,0.4640002999221906,,,,,,,FF,001,2019_Jul_23_1350,rev-kura_tap_2blocks,3.0.6,60.15847751743551,
./stimuli_1/tmp/perfect_90_0.wav,90,perfect,1.6568604876231643,,,,,0,10,10,35,,,,,,,,,,,,,"['space', 'space', 'space', 'space', 'space', 'space', 'space', 'space', 'space']","[1.3199162849923596, 2.05307611299213, 2.7005679979920387, 3.3697129919892177, 4.019521189038642, 4.686447885003872, 5.336841603042558, 5.987173549016006, 6.68556738703046]",space,0.48903430392965674,,,,,,,FF,001,2019_Jul_23_1350,rev-kura_tap_2blocks,3.0.6,60.15847751743551,
./stimuli_1/tmp/vweak_95_2.wav,95,veryweak,1.1399322262275913,,,,,0,11,11,30,,,,,,,,,,,,,"['space', 'space', 'space', 'space', 'space', 'space', 'space', 'space', 'space', 'space', 'space', 'space', 'space']","[1.9027453190647066, 2.5528142820112407, 3.1697885940084234, 3.786135475966148, 4.3867038930766284, 4.970205413992517, 5.636915224022232, 6.226351247983985, 6.836526582017541, 7.486963551025838, 8.154313271981664, 8.777028370066546, 9.387952769058757]",space,0.5187012850074098,,,,,,,FF,001,2019_Jul_23_1350,rev-kura_tap_2blocks,3.0.6,60.15847751743551,
./stimuli_1/tmp/weak_105_2.wav,105,weak,2.065051120273794,,,,,0,12,12,48,,,,,,,,,,,,,"['space', 'space', 'space', 'space', 'space', 'space', 'space', 'space', 'space', 'space', 'space', 'space', 'space', 'space']","[1.5353150129085407, 2.0694248569197953, 2.6574389539891854, 3.186475205933675, 3.769201456918381, 4.326717579970136, 4.9531607469543815, 5.603450816939585, 6.284516698913649, 6.8732250849716365, 7.469440724002197, 8.070102538913488, 8.692161187995225, 9.284609482972883]",space,0.5050854419823736,,,,,,,FF,001,2019_Jul_23_1350,rev-kura_tap_2blocks,3.0.6,60.15847751743551,
./stimuli_1/tmp/vweak_105_1.wav,105,veryweak,2.000868469173824,,,,,0,13,13,7,,,,,,,,,,,,,"['space', 'space', 'space', 'space', 'space', 'space', 'space', 'space', 'space', 'space', 'space', 'space', 'space']","[1.91698998096399, 2.468934456934221, 3.0533500359160826, 3.619869594927877, 4.2608104419196025, 4.852817647974007, 5.470672264927998, 6.0202796219382435, 6.569676391896792, 7.170934774912894, 7.754031089949422, 8.336895565968007, 8.928825508919545]",space,0.6850676009198651,,,,,,,FF,001,2019_Jul_23_1350,rev-kura_tap_2blocks,3.0.6,60.15847751743551,
./stimuli_1/tmp/perfect_110_1.wav,110,perfect,1.7704271467992068,,,,,0,14,14,18,,,,,,,,,,,,,"['space', 'space', 'space', 'space', 'space', 'space']","[1.6862993669928983, 2.2197039300808683, 2.786710729007609, 3.3092899239854887, 3.836762537015602, 4.436211358988658]",space,0.4845319740707055,,,,,,,FF,001,2019_Jul_23_1350,rev-kura_tap_2blocks,3.0.6,60.15847751743551,
./stimuli_1/tmp/perfect_105_0.wav,105,perfect,2.376167666662905,,,,,0,15,15,11,,,,,,,,,,,,,"['space', 'space', 'space', 'space', 'space', 'space', 'space', 'space']","[1.3510100210551172, 1.9360617940546945, 2.502675994997844, 3.036707342020236, 3.6583817560458556, 4.203630513977259, 4.803091343957931, 5.419740476994775]",space,0.6030907710082829,,,,,,,FF,001,2019_Jul_23_1350,rev-kura_tap_2blocks,3.0.6,60.15847751743551,
./stimuli_1/tmp/perfect_105_1.wav,105,perfect,1.612711409659772,,,,,0,16,16,13,,,,,,,,,,,,,"['space', 'space', 'space', 'space', 'space', 'space', 'space', 'space']","[1.3305803480325267, 1.9220311699900776, 2.480677379993722, 3.0311326540540904, 3.6312207060400397, 4.197671883972362, 4.747464123996906, 5.34758146898821]",space,1.2183812749572098,,,,,,,FF,001,2019_Jul_23_1350,rev-kura_tap_2blocks,3.0.6,60.15847751743551,
./stimuli_1/tmp/medium_95_2.wav,95,medium,2.475357682924177,,,,,0,17,17,14,,,,,,,,,,,,,"['space', 'space', 'space', 'space', 'space', 'space', 'space', 'space', 'space', 'space']","[2.8705686220200732, 3.4867247469956055, 4.186677422025241, 4.855858033057302, 5.503944797092117, 6.201726638013497, 6.904441685997881, 7.604369473061524, 8.286905688000843, 8.970296442043036]",space,0.49389222206082195,,,,,,,FF,001,2019_Jul_23_1350,rev-kura_tap_2blocks,3.0.6,60.15847751743551,
./stimuli_1/tmp/perfect_110_0.wav,110,perfect,1.8837210676143408,,,,,0,18,18,16,,,,,,,,,,,,,"['space', 'space', 'space', 'space', 'space', 'space', 'space']","[1.7282746409764513, 2.228668862953782, 2.793246845016256, 3.3115372919710353, 3.878985012997873, 4.411742214928381, 4.984825768973678]",space,0.4433486940106377,,,,,,,FF,001,2019_Jul_23_1350,rev-kura_tap_2blocks,3.0.6,60.15847751743551,
./stimuli_1/tmp/vweak_105_2.wav,105,veryweak,1.1450150374808907,,,,,0,19,19,9,,,,,,,,,,,,,"['space', 'space', 'space', 'space', 'space', 'space', 'space', 'space', 'space', 'space', 'space', 'space']","[1.9964011720148847, 2.6630543720675632, 3.2966714730719104, 3.9207180310040712, 4.547501325025223, 5.180732180015184, 5.780745786032639, 6.461831785039976, 7.088461793027818, 7.730712895048782, 8.40224207600113, 9.031032836064696]",space,0.8684804920339957,,,,,,,FF,001,2019_Jul_23_1350,rev-kura_tap_2blocks,3.0.6,60.15847751743551,
./stimuli_1/tmp/strong_105_1.wav,105,strong,1.8750845453371756,,,,,0,20,20,25,,,,,,,,,,,,,"['space', 'space', 'space', 'space', 'space', 'space', 'space', 'space', 'space', 'space', 'space', 'space', 'space', 'space', 'space']","[1.6856805719435215, 2.2077073289547116, 2.7193953639362007, 3.2522626449353993, 3.801785518997349, 4.3687913690228015, 4.902043611975387, 5.4570220889290795, 6.01946619595401, 6.536549779004417, 7.103490071021952, 7.653175345971249, 8.225431640981697, 8.7696548049571, 9.312819981947541]",space,0.4527667888905853,,,,,,,FF,001,2019_Jul_23_1350,rev-kura_tap_2blocks,3.0.6,60.15847751743551,
./stimuli_1/tmp/weak_90_2.wav,90,weak,2.0384375203910188,,,,,0,21,21,23,,,,,,,,,,,,,"['space', 'space', 'space', 'space', 'space', 'space', 'space', 'space', 'space', 'space', 'space', 'space']","[1.7951263668946922, 2.4206321999663487, 3.069454443990253, 3.7702696829801425, 4.362174388952553, 5.053885709960014, 5.701546290889382, 6.319785373983905, 6.971427684999071, 7.654577652923763, 8.303807488991879, 8.92491931898985]",space,0.5358212830033153,,,,,,,FF,001,2019_Jul_23_1350,rev-kura_tap_2blocks,3.0.6,60.15847751743551,
./stimuli_1/tmp/vweak_90_1.wav,90,veryweak,0.8362780865168179,,,,,0,22,22,34,,,,,,,,,,,,,"['space', 'space', 'space', 'space', 'space', 'space', 'space', 'space', 'space', 'space']","[2.1020074340049177, 2.83491054805927, 3.569576465059072, 4.285903520998545, 5.036546875024214, 5.785883833072148, 6.5269738010829315, 7.253453638055362, 7.942638464039192, 8.686484797042795]",space,0.4526070599677041,,,,,,,FF,001,2019_Jul_23_1350,rev-kura_tap_2blocks,3.0.6,60.15847751743551,
./stimuli_1/tmp/medium_95_1.wav,95,medium,1.3706215803300168,,,,,0,23,23,19,,,,,,,,,,,,,"['space', 'space', 'space', 'space', 'space', 'space', 'space', 'space', 'space', 'space', 'space', 'space']","[1.61997658200562, 2.2523494900669903, 2.9357830290682614, 3.6029087060596794, 4.219301817007363, 4.936424088082276, 5.618843137053773, 6.313228368991986, 6.9871524390764534, 7.703474362031557, 8.386696591041982, 9.07035946904216]",space,0.595307354000397,,,,,,,FF,001,2019_Jul_23_1350,rev-kura_tap_2blocks,3.0.6,60.15847751743551,
./stimuli_1/tmp/medium_105_1.wav,105,medium,1.6663985327680324,,,,,0,24,24,21,,,,,,,,,,,,,"['space', 'space', 'space', 'space', 'space', 'space', 'space', 'space', 'space', 'space', 'space', 'space', 'space', 'space']","[2.502827375079505, 2.9928857510676607, 3.50112853909377, 4.070093014044687, 4.635768867097795, 5.191748503013514, 5.786690392065793, 6.337241402012296, 6.920304023078643, 7.4737867270596325, 8.069865766097791, 8.636528018047102, 9.191352009074762, 9.753947937046178]",space,0.6419026310322806,,,,,,,FF,001,2019_Jul_23_1350,rev-kura_tap_2blocks,3.0.6,60.15847751743551,
./stimuli_1/tmp/vweak_95_1.wav,95,veryweak,2.279644213301781,,,,,0,25,25,24,,,,,,,,,,,,,"['space', 'space', 'space', 'space', 'space', 'space', 'space', 'space', 'space', 'space', 'space', 'space', 'space']","[2.1520722669083625, 2.7118677399121225, 3.3031731999944896, 3.902399126905948, 4.486096670967527, 5.1694930859375745, 5.769107817905024, 6.38699463091325, 7.002481860923581, 7.620176931959577, 8.236560773919336, 8.853080836008303, 9.419555697939359]",space,0.4570477210218087,,,,,,,FF,001,2019_Jul_23_1350,rev-kura_tap_2blocks,3.0.6,60.15847751743551,
./stimuli_1/tmp/medium_100_2.wav,100,medium,1.5709881706161974,,,,,0,26,26,44,,,,,,,,,,,,,"['space', 'space', 'space', 'space', 'space', 'space', 'space', 'space', 'space', 'space', 'space', 'space', 'space', 'space', 'space']","[1.6413005660288036, 2.1856895049568266, 2.71141989401076, 3.2190999209415168, 3.752710297005251, 4.269080312922597, 4.853412468917668, 5.337297064019367, 5.836253023007885, 6.403482751920819, 6.952931573963724, 7.5038284820038825, 8.070677109993994, 8.637677466962487, 9.138151927967556]",space,0.45241591602098197,,,,,,,FF,001,2019_Jul_23_1350,rev-kura_tap_2blocks,3.0.6,60.15847751743551,
./stimuli_1/tmp/strong_90_1.wav,90,strong,1.0878185010355936,,,,,0,27,27,41,,,,,,,,,,,,,"['space', 'space', 'space', 'space', 'space', 'space', 'space', 'space', 'space', 'space', 'space', 'space']","[1.7194692600751296, 2.436732312082313, 3.152943821041845, 3.8364406680921093, 4.569710402050987, 5.304196483106352, 5.986491825082339, 6.67422880709637, 7.3865419829962775, 8.087405579048209, 8.828964490094222, 9.520664120092988]",space,0.45247225800994784,,,,,,,FF,001,2019_Jul_23_1350,rev-kura_tap_2blocks,3.0.6,60.15847751743551,
./stimuli_1/tmp/vweak_100_1.wav,100,veryweak,1.441965324529146,,,,,0,28,28,4,,,,,,,,,,,,,"['space', 'space', 'space', 'space', 'space', 'space', 'space', 'space', 'space', 'space', 'space', 'space', 'space', 'space']","[2.436420736950822, 2.911731682019308, 3.3864430859684944, 3.8703023509588093, 4.445128716994077, 5.053804112016223, 5.620332341990434, 6.069537041941658, 6.587075744988397, 7.137357621919364, 7.620651607983746, 8.137277418980375, 8.721572811948135, 9.253727109986357]",space,0.4146398949669674,,,,,,,FF,001,2019_Jul_23_1350,rev-kura_tap_2blocks,3.0.6,60.15847751743551,
./stimuli_1/tmp/weak_90_1.wav,90,weak,1.282481392037714,,,,,0,29,29,29,,,,,,,,,,,,,"['space', 'space', 'space', 'space', 'space', 'space', 'space', 'space', 'space', 'space', 'space']","[3.002026465954259, 3.6365354660665616, 4.2268327550264075, 4.852669712039642, 5.485932192066684, 6.036241427063942, 6.6695792430546135, 7.288352734060027, 7.8856202870374545, 8.553424859070219, 9.170203863992356]",space,0.3527111989678815,,,,,,,FF,001,2019_Jul_23_1350,rev-kura_tap_2blocks,3.0.6,60.15847751743551,
./stimuli_1/tmp/perfect_90_1.wav,90,perfect,0.8790589196072783,,,,,0,30,30,39,,,,,,,,,,,,,"['space', 'space', 'space', 'space', 'space', 'space', 'space', 'space']","[2.069295934983529, 2.702852229005657, 3.3695087449159473, 4.002877680934034, 4.686313072917983, 5.384004590916447, 6.003926126984879, 6.686870113946497]",space,0.6025443549733609,,,,,,,FF,001,2019_Jul_23_1350,rev-kura_tap_2blocks,3.0.6,60.15847751743551,
./stimuli_1/tmp/strong_90_2.wav,90,strong,1.29545815814535,,,,,0,31,31,36,,,,,,,,,,,,,"['space', 'space', 'space', 'space', 'space', 'space', 'space', 'space', 'space', 'space', 'space', 'space', 'space']","[1.601912672049366, 2.2523836160544306, 2.8690253930399194, 3.4865138130262494, 4.170559026999399, 4.8025522029493, 5.452478540944867, 6.119496018975042, 6.769544739974663, 7.419878353946842, 8.087312637944706, 8.736735800048336, 9.420023084036075]",space,0.9693132688989863,,,,,,,FF,001,2019_Jul_23_1350,rev-kura_tap_2blocks,3.0.6,60.15847751743551,
./stimuli_1/tmp/vweak_100_2.wav,100,veryweak,0.9843923106260049,,,,,0,32,32,5,,,,,,,,,,,,,"['space', 'space', 'space', 'space', 'space', 'space', 'space', 'space', 'space', 'space', 'space', 'space', 'space']","[1.4362401550170034, 2.0704739070497453, 2.7030159280402586, 3.3611304219812155, 4.020876034046523, 4.603858454036526, 5.21999280503951, 5.845115312025882, 6.470605153008364, 7.10430475405883, 7.759916441980749, 8.387607592041604, 9.053829121985473]",space,0.669353187084198,,,,,,,FF,001,2019_Jul_23_1350,rev-kura_tap_2blocks,3.0.6,60.15847751743551,
./stimuli_1/tmp/medium_90_2.wav,90,medium,2.1384331573709567,,,,,0,33,33,46,,,,,,,,,,,,,"['space', 'space', 'space', 'space', 'space', 'space', 'space', 'space', 'space', 'space', 'space', 'space']","[1.8202136929612607, 2.486736704944633, 3.1451774600427598, 3.802953670034185, 4.487247126991861, 5.153147657983936, 5.83726736495737, 6.553003867040388, 7.187525512999855, 7.887244991958141, 8.553348590969108, 9.254751364002004]",space,0.6114958620164543,,,,,,,FF,001,2019_Jul_23_1350,rev-kura_tap_2blocks,3.0.6,60.15847751743551,
./stimuli_1/tmp/medium_110_1.wav,110,medium,1.6223651347148935,,,,,0,34,34,10,,,,,,,,,,,,,"['space', 'space', 'space', 'space', 'space', 'space', 'space', 'space', 'space', 'space', 'space', 'space', 'space', 'space']","[1.7862878409214318, 2.3521777800051495, 2.919522317009978, 3.4773960360325873, 4.070143274962902, 4.652292123995721, 5.252863364992663, 5.852925717947073, 6.41105252597481, 6.953062486951239, 7.553928353008814, 8.120688013965264, 8.68714098399505, 9.27059534296859]",space,0.4352375020971522,,,,,,,FF,001,2019_Jul_23_1350,rev-kura_tap_2blocks,3.0.6,60.15847751743551,
./stimuli_1/tmp/strong_95_2.wav,95,strong,1.1173507911145857,,,,,0,35,35,27,,,,,,,,,,,,,"['space', 'space', 'space', 'space', 'space', 'space', 'space', 'space', 'space', 'space', 'space', 'space']","[1.909858267987147, 2.60214074596297, 3.2202186649665236, 3.8588853200199082, 4.536641423008405, 5.202732420992106, 5.858043364947662, 6.519780637929216, 7.184419636963867, 7.876492431038059, 8.503887285012752, 9.1349011589773]",space,0.6191399829695001,,,,,,,FF,001,2019_Jul_23_1350,rev-kura_tap_2blocks,3.0.6,60.15847751743551,
./stimuli_1/tmp/weak_95_2.wav,95,weak,1.3391653351857111,,,,,0,36,36,38,,,,,,,,,,,,,"['space', 'space', 'space', 'space', 'space', 'space', 'space', 'space', 'space', 'space', 'space']","[2.178788871038705, 2.812509768991731, 3.419640386942774, 4.1286875560181215, 4.846530125010759, 5.577144298935309, 6.24598700099159, 6.980266954982653, 7.729414863977581, 8.417153895949014, 9.063152618939057]",space,0.574942865059711,,,,,,,FF,001,2019_Jul_23_1350,rev-kura_tap_2blocks,3.0.6,60.15847751743551,
./stimuli_1/tmp/strong_95_1.wav,95,strong,1.2238592690797745,,,,,0,37,37,33,,,,,,,,,,,,,"['space', 'space', 'space', 'space', 'space', 'space', 'space', 'space', 'space', 'space', 'space', 'space', 'space']","[1.8858262260910124, 2.5023758750176057, 3.1028339950134978, 3.6908896419918165, 4.319930258090608, 4.919695527059957, 5.518191282986663, 6.136557701043785, 6.735992782982066, 7.343727486091666, 7.919720089994371, 8.552905182004906, 9.171826421981677]",space,0.6027497129980475,,,,,,,FF,001,2019_Jul_23_1350,rev-kura_tap_2blocks,3.0.6,60.15847751743551,
./stimuli_1/tmp/weak_95_1.wav,95,weak,1.9726481258285025,,,,,0,38,38,43,,,,,,,,,,,,,"['space', 'space', 'space', 'space', 'space', 'space', 'space', 'space', 'space', 'space', 'space', 'space']","[1.6221103189745918, 2.3027035509003326, 2.985746192978695, 3.6691568439127877, 4.319964008987881, 4.970037430990487, 5.639391997945495, 6.30315964797046, 6.953317912993953, 7.61993064195849, 8.270821832935326, 8.936512777931057]",space,0.45245705696288496,,,,,,,FF,001,2019_Jul_23_1350,rev-kura_tap_2blocks,3.0.6,60.15847751743551,
./stimuli_1/tmp/strong_110_2.wav,110,strong,1.9369911731854192,,,,,0,39,39,6,,,,,,,,,,,,,"['space', 'space', 'space', 'space', 'space', 'space', 'space', 'space', 'space', 'space', 'space', 'space', 'space', 'space']","[1.7193253129953519, 2.2699410809436813, 2.8363742539659142, 3.4356156579451635, 4.036772870924324, 4.634979365975596, 5.2037782449042425, 5.803462425945327, 6.402053180965595, 6.977448022924364, 7.570224692928605, 8.170332435984164, 8.753324494929984, 9.360771017963998]",space,0.8363367230631411,,,,,,,FF,001,2019_Jul_23_1350,rev-kura_tap_2blocks,3.0.6,60.15847751743551,
./stimuli_1/tmp/perfect_95_1.wav,95,perfect,0.8659592093324232,,,,,0,40,40,22,,,,,,,,,,,,,"['space', 'space', 'space', 'space', 'space', 'space', 'space', 'space']","[1.709845043020323, 2.3871938310330734, 3.0373749890131876, 3.6589216040447354, 4.28667734505143, 4.9035307430895045, 5.521888796007261, 6.218862164998427]",space,0.602814033976756,,,,,,,FF,001,2019_Jul_23_1350,rev-kura_tap_2blocks,3.0.6,60.15847751743551,
./stimuli_1/tmp/weak_100_1.wav,100,weak,0.9200911357943652,,,,,0,41,41,15,,,,,,,,,,,,,"['space', 'space', 'space', 'space', 'space', 'space', 'space', 'space', 'space', 'space', 'space', 'space', 'space', 'space']","[1.8028147749137133, 2.4199101720005274, 3.002957799937576, 3.6036515180021524, 4.208139106980525, 4.836728114983998, 5.437055432004854, 6.020869792904705, 6.620298046967946, 7.221077934955247, 7.827423084992915, 8.37056799698621, 8.98712917091325, 9.554275698959827]",space,0.6704655500361696,,,,,,,FF,001,2019_Jul_23_1350,rev-kura_tap_2blocks,3.0.6,60.15847751743551,
./stimuli_1/tmp/medium_90_1.wav,90,medium,1.3827594725962091,,,,,0,42,42,49,,,,,,,,,,,,,"['space', 'space', 'space', 'space', 'space', 'space', 'space', 'space', 'space', 'space', 'space']","[2.202829312067479, 2.9339067860273644, 3.619177123066038, 4.326020768028684, 4.986108327051625, 5.586653002072126, 6.259142089053057, 7.003256815019995, 7.720653397031128, 8.46941041003447, 9.10340833303053]",space,0.5163757050177082,,,,,,,FF,001,2019_Jul_23_1350,rev-kura_tap_2blocks,3.0.6,60.15847751743551,
./stimuli_1/tmp/weak_100_2.wav,100,weak,0.9744812486321696,,,,,0,43,43,20,,,,,,,,,,,,,"['space', 'space', 'space', 'space', 'space', 'space', 'space', 'space', 'space', 'space', 'space', 'space', 'space']","[2.085983188939281, 2.6203448328888044, 3.2012017279630527, 3.8009777719853446, 4.426869470975362, 5.086913894978352, 5.670413966989145, 6.3077218369580805, 6.83807125792373, 7.426927700988017, 8.037580263917334, 8.654180720914155, 9.303382198908366]",space,0.543702017981559,,,,,,,FF,001,2019_Jul_23_1350,rev-kura_tap_2blocks,3.0.6,60.15847751743551,
./stimuli_1/tmp/perfect_95_0.wav,95,perfect,1.4400885785760469,,,,,0,44,44,26,,,,,,,,,,,,,"['space', 'space', 'space', 'space', 'space', 'space', 'space', 'space']","[1.785235708928667, 2.3422757999505848, 2.986196097917855, 3.6530886238906533, 4.268981810892001, 4.909491917933337, 5.536292348988354, 6.186557301902212]",space,1.6527344869682565,,,,,,,FF,001,2019_Jul_23_1350,rev-kura_tap_2blocks,3.0.6,60.15847751743551,
./stimuli_1/tmp/medium_105_2.wav,105,medium,0.8825097572066065,,,,,0,45,45,17,,,,,,,,,,,,,"['space', 'space', 'space', 'space', 'space', 'space', 'space', 'space', 'space', 'space', 'space', 'space', 'space']","[1.7855067709460855, 2.3362196589587256, 2.9859184559900314, 3.602769537945278, 4.219573774957098, 4.769864387926646, 5.269883943954483, 5.867839642916806, 6.435846691951156, 7.039342385018244, 7.67046523001045, 8.319568419945426, 8.970473782974295]",space,0.5691574179800227,,,,,,,FF,001,2019_Jul_23_1350,rev-kura_tap_2blocks,3.0.6,60.15847751743551,
./stimuli_1/tmp/weak_110_2.wav,110,weak,1.1450489585925383,,,,,0,46,46,0,,,,,,,,,,,,,"['space', 'space', 'space', 'space', 'space', 'space', 'space', 'space', 'space', 'space', 'space', 'space', 'space', 'space', 'space']","[2.2363733779639006, 2.7758676960365847, 3.302818046999164, 3.8028117089997977, 4.319396934937686, 4.842619176022708, 5.320111447945237, 5.859487398993224, 6.319833785993978, 6.854042366961949, 7.301526239956729, 7.776466464041732, 8.237721230951138, 8.753145021037199, 9.242715953034349]",space,1.1029835999943316,,,,,,,FF,001,2019_Jul_23_1350,rev-kura_tap_2blocks,3.0.6,60.15847751743551,
./stimuli_1/tmp/perfect_100_1.wav,100,perfect,2.462429502310373,,,,,0,47,47,1,,,,,,,,,,,,,"['space', 'space', 'space', 'space', 'space', 'space', 'space', 'space']","[1.5531393029959872, 2.1532030920498073, 2.7444585480261594, 3.370422768057324, 3.936220798990689, 4.519919482059777, 5.171109764021821, 5.803825912065804]",space,2.136765678995289,,,,,,,FF,001,2019_Jul_23_1350,rev-kura_tap_2blocks,3.0.6,60.15847751743551,
./stimuli_1/tmp/vweak_110_1.wav,110,veryweak,1.3407186132175697,,,,,0,48,48,32,,,,,,,,,,,,,"['space', 'space', 'space', 'space', 'space', 'space', 'space', 'space', 'space', 'space', 'space', 'space', 'space']","[2.8024237969657406, 3.319204160012305, 3.8918910599313676, 4.385691025992855, 4.919813705026172, 5.5198256119620055, 6.069179693004116, 6.585801764973439, 7.152737880940549, 7.703450734028593, 8.301597206038423, 8.942633962025866, 9.520555865950882]",space,0.6531069569755346,,,,,,,FF,001,2019_Jul_23_1350,rev-kura_tap_2blocks,3.0.6,60.15847751743551,
./stimuli_1/tmp/strong_110_1.wav,110,strong,2.342405954917332,,,,,0,49,49,8,,,,,,,,,,,,,"['space', 'space', 'space', 'space', 'space', 'space', 'space', 'space', 'space', 'space', 'space', 'space', 'space', 'space']","[1.781979267951101, 2.331046413979493, 2.948260579025373, 3.531648279982619, 4.098519413964823, 4.649164470960386, 5.198918738984503, 5.78155263105873, 6.387927394011058, 6.982002240023576, 7.532297012046911, 8.08211570198182, 8.632150179008022, 9.182643951033242]",space,0.7342834749724716,,,,,,,FF,001,2019_Jul_23_1350,rev-kura_tap_2blocks,3.0.6,60.15847751743551,
,,,,,,,,,,,,,,,,,,,,,,,,,,,,space,27.323630979051813,,,,,FF,001,2019_Jul_23_1350,rev-kura_tap_2blocks,3.0.6,60.15847751743551,
./stimuli_2/tmp/weak_110_4.wav,110,weak,1.2158046753843554,,,,,,,,,0,0,0,4,,,,,,,,,,,,,,,"['space', 'space', 'space', 'space', 'space', 'space', 'space', 'space', 'space', 'space', 'space', 'space', 'space']","[2.3034983369288966, 2.818968649022281, 3.403513013967313, 3.9432703759521246, 4.536119551979937, 5.086605816963129, 5.650377276935615, 6.203352035023272, 6.770205850945786, 7.403044641949236, 7.953623563982546, 8.536969449953176, 9.120832836953923]",space,1.05278410599567,FF,001,2019_Jul_23_1350,rev-kura_tap_2blocks,3.0.6,60.15847751743551,
./stimuli_2/tmp/weak_95_3.wav,95,weak,1.2112449492962023,,,,,,,,,0,1,1,36,,,,,,,,,,,,,,,"['space', 'space', 'space', 'space', 'space', 'space', 'space', 'space', 'space', 'space', 'space']","[2.1416575589682907, 2.7872918519424275, 3.4713084899121895, 4.125175523920916, 4.820640383986756, 5.520205511013046, 6.204233344993554, 6.905522360000759, 7.554789841989987, 8.23805350495968, 8.937841107952408]",space,0.5527404409367591,FF,001,2019_Jul_23_1350,rev-kura_tap_2blocks,3.0.6,60.15847751743551,
./stimuli_2/tmp/strong_90_3.wav,90,strong,1.6244125943376004,,,,,,,,,0,2,2,37,,,,,,,,,,,,,,,"['space', 'space', 'space', 'space', 'space', 'space', 'space', 'space', 'space', 'space', 'space']","[1.9532175600761548, 2.6417955780634657, 3.3030276050558314, 3.970740328077227, 4.641704512992874, 5.337244722060859, 6.0250814880710095, 6.736250500078313, 7.453817590023391, 8.092501493054442, 8.771180520066991]",space,1.1581103870412335,FF,001,2019_Jul_23_1350,rev-kura_tap_2blocks,3.0.6,60.15847751743551,
./stimuli_2/tmp/vweak_110_3.wav,110,veryweak,1.9493514140483303,,,,,,,,,0,3,3,25,,,,,,,,,,,,,,,"['space', 'space', 'space', 'space', 'space', 'space', 'space', 'space', 'space', 'space', 'space']","[3.5744657199829817, 4.103427225025371, 4.819372285972349, 5.386463542934507, 6.252574277925305, 6.82055008597672, 7.33692378597334, 7.853055447922088, 8.470102487015538, 9.042215778958052, 9.653747464995831]",space,0.885437683085911,FF,001,2019_Jul_23_1350,rev-kura_tap_2blocks,3.0.6,60.15847751743551,
./stimuli_2/tmp/weak_90_3.wav,90,weak,1.336733561564532,,,,,,,,,0,4,4,29,,,,,,,,,,,,,,,"['space', 'space', 'space', 'space', 'space', 'space', 'space', 'space', 'space', 'space', 'space', 'space']","[1.8518139719963074, 2.5028125419048592, 3.1695833679987118, 3.7376986478921026, 4.401926663937047, 5.050153883988969, 5.720742458943278, 6.452462987974286, 7.103414860903285, 7.8080401859479025, 8.470159187912941, 9.136360156931914]",space,0.7687196319457144,FF,001,2019_Jul_23_1350,rev-kura_tap_2blocks,3.0.6,60.15847751743551,
./stimuli_2/tmp/vweak_95_3.wav,95,veryweak,2.160580057702042,,,,,,,,,0,5,5,32,,,,,,,,,,,,,,,"['space', 'space', 'space', 'space', 'space', 'space', 'space', 'space', 'space', 'space', 'space', 'space', 'space']","[1.8183339490788057, 2.4408437360543758, 3.05242317810189, 3.6519390870817006, 4.269392061047256, 4.870767983025871, 5.474494687048718, 6.020277752075344, 6.619964332086965, 7.220326959039085, 7.834423807100393, 8.419904523994774, 9.008402300067246]",space,1.1806992620695382,FF,001,2019_Jul_23_1350,rev-kura_tap_2blocks,3.0.6,60.15847751743551,
./stimuli_2/tmp/perfect_110_0.wav,110,perfect,1.6760608294086363,,,,,,,,,0,6,6,14,,,,,,,,,,,,,,,"['space', 'space', 'space', 'space', 'space', 'space', 'space', 'space']","[1.7026638049865142, 2.257891964050941, 2.7704593630041927, 3.341089587076567, 3.869979189010337, 4.403214431018569, 4.9702565090265125, 5.519701934070326]",space,0.46934673411305994,FF,001,2019_Jul_23_1350,rev-kura_tap_2blocks,3.0.6,60.15847751743551,
./stimuli_2/tmp/weak_95_4.wav,95,weak,1.59401142701977,,,,,,,,,0,7,7,46,,,,,,,,,,,,,,,"['space', 'space', 'space', 'space', 'space', 'space', 'space', 'space', 'space']","[3.052060422953218, 3.719946537981741, 4.452907987986691, 5.120378024992533, 5.919787960941903, 6.653164624935016, 7.336279531940818, 8.036393877933733, 8.791402228991501]",space,2.3003331390209496,FF,001,2019_Jul_23_1350,rev-kura_tap_2blocks,3.0.6,60.15847751743551,
./stimuli_2/tmp/medium_95_4.wav,95,medium,1.5689377747074644,,,,,,,,,0,8,8,27,,,,,,,,,,,,,,,"['space', 'space', 'space', 'space', 'space', 'space', 'space', 'space', 'space', 'space', 'space', 'space']","[1.8030312850605696, 2.4692691090749577, 3.1363378560636193, 3.853400187101215, 4.536244542105123, 5.2023788440274075, 5.870281905052252, 6.486933672102168, 7.169939706102014, 7.853284880053252, 8.552888208068907, 9.237219933071174]",space,1.1190234640380368,FF,001,2019_Jul_23_1350,rev-kura_tap_2blocks,3.0.6,60.15847751743551,
./stimuli_2/tmp/vweak_95_4.wav,95,veryweak,1.2922043074511544,,,,,,,,,0,9,9,22,,,,,,,,,,,,,,,"['space', 'space', 'space', 'space', 'space', 'space', 'space', 'space', 'space', 'space', 'space', 'space', 'space']","[1.8481260519474745, 2.415183989913203, 3.019282191991806, 3.632110322942026, 4.215888197999448, 4.79829740896821, 5.449881092994474, 6.065925829927437, 6.700747316004708, 7.2662894719978794, 7.899619027972221, 8.55027899891138, 9.166080708964728]",space,1.301956151961349,FF,001,2019_Jul_23_1350,rev-kura_tap_2blocks,3.0.6,60.15847751743551,
./stimuli_2/tmp/vweak_110_4.wav,110,veryweak,1.4056094097142195,,,,,,,,,0,10,10,20,,,,,,,,,,,,,,,"['space', 'space', 'space', 'space', 'space', 'space', 'space', 'space', 'space', 'space', 'space', 'space', 'space', 'space', 'space']","[1.8032986080506817, 2.374678140040487, 2.8539233370684087, 3.3237867821007967, 3.8870236350921914, 4.454899959033355, 4.958538801060058, 5.470454604015686, 6.05807327106595, 6.604380123084411, 7.153072210028768, 7.687881380086765, 8.20448946102988, 8.753540000063367, 9.320995199028403]",space,0.8689248570008203,FF,001,2019_Jul_23_1350,rev-kura_tap_2blocks,3.0.6,60.15847751743551,
./stimuli_2/tmp/weak_100_3.wav,100,weak,0.8397616430138637,,,,,,,,,0,11,11,21,,,,,,,,,,,,,,,"['space', 'space', 'space', 'space', 'space', 'space', 'space', 'space', 'space', 'space', 'space', 'space', 'space', 'space']","[1.9858803139068186, 2.5190029109362513, 3.1025011629099026, 3.7066817519953474, 4.28530948900152, 4.886025511892512, 5.4362499169074, 6.003521826933138, 6.535935896914452, 7.103059782995842, 7.65312679100316, 8.23439368698746, 8.806669376906939, 9.38656799995806]",space,1.1202222580322996,FF,001,2019_Jul_23_1350,rev-kura_tap_2blocks,3.0.6,60.15847751743551,
./stimuli_2/tmp/strong_110_4.wav,110,strong,1.9935472881648024,,,,,,,,,0,12,12,9,,,,,,,,,,,,,,,"['space', 'space', 'space', 'space', 'space', 'space', 'space', 'space', 'space', 'space', 'space', 'space', 'space', 'space']","[1.9367118129739538, 2.520176785066724, 3.1074600650463253, 3.669988007983193, 4.2700699110282585, 4.86993555596564, 5.454043484060094, 6.0538292929995805, 6.674122277996503, 7.285547847044654, 7.868248841026798, 8.454331023036502, 9.071546485996805, 9.708707518992014]",space,0.7025111980037764,FF,001,2019_Jul_23_1350,rev-kura_tap_2blocks,3.0.6,60.15847751743551,
./stimuli_2/tmp/weak_105_4.wav,105,weak,2.3797932117961262,,,,,,,,,0,13,13,40,,,,,,,,,,,,,,,"['space', 'space', 'space', 'space', 'space', 'space', 'space', 'space', 'space', 'space', 'space', 'space', 'space']","[1.753346565994434, 2.420235091005452, 3.117235390935093, 3.6697494329418987, 4.303808070952073, 4.953782076947391, 5.536731258966029, 6.208216956933029, 6.8205196970375255, 7.386892440030351, 7.954416232998483, 8.604638410033658, 9.22083795000799]",space,1.385285728960298,FF,001,2019_Jul_23_1350,rev-kura_tap_2blocks,3.0.6,60.15847751743551,
./stimuli_2/tmp/strong_105_3.wav,105,strong,1.2846849156286215,,,,,,,,,0,14,14,31,,,,,,,,,,,,,,,"['space', 'space', 'space', 'space', 'space', 'space', 'space', 'space', 'space', 'space', 'space', 'space', 'space', 'space', 'space']","[1.4363844010513276, 2.0194822300691158, 2.6360690289875492, 3.2036522830603644, 3.736308998079039, 4.31940505001694, 4.870275721070357, 5.45338790898677, 6.003661530092359, 6.526080682990141, 7.071045252028853, 7.621925886021927, 8.203809258993715, 8.787961383000948, 9.337446704041213]",space,1.0219448789721355,FF,001,2019_Jul_23_1350,rev-kura_tap_2blocks,3.0.6,60.15847751743551,
./stimuli_2/tmp/perfect_100_1.wav,100,perfect,1.900582361571024,,,,,,,,,0,15,15,1,,,,,,,,,,,,,,,"['space', 'space', 'space', 'space', 'space', 'space', 'space', 'space']","[1.5893010590225458, 2.1699039340019226, 2.769017286016606, 3.3510056789964437, 3.97009234293364, 4.5462313540047035, 5.1529698899248615, 5.745550755993463]",space,1.2789782299660146,FF,001,2019_Jul_23_1350,rev-kura_tap_2blocks,3.0.6,60.15847751743551,
./stimuli_2/tmp/medium_95_3.wav,95,medium,0.9787884089584356,,,,,,,,,0,16,16,18,,,,,,,,,,,,,,,"['space', 'space', 'space', 'space', 'space', 'space', 'space', 'space', 'space', 'space', 'space', 'space']","[2.029351828037761, 2.6362987650791183, 3.2688674479722977, 3.886389247025363, 4.553019891027361, 5.1792026470648125, 5.829901401069947, 6.471081556053832, 7.103584010968916, 7.711189781082794, 8.37014624197036, 9.036583806038834]",space,0.5687373549444601,FF,001,2019_Jul_23_1350,rev-kura_tap_2blocks,3.0.6,60.15847751743551,
./stimuli_2/tmp/medium_110_3.wav,110,medium,1.2616218191127295,,,,,,,,,0,17,17,11,,,,,,,,,,,,,,,"['space', 'space', 'space', 'space', 'space', 'space', 'space', 'space', 'space', 'space', 'space', 'space']","[2.05257447110489, 2.6865317890187725, 3.2959897870896384, 3.919425298110582, 4.535980083048344, 5.175424141110852, 5.809613694087602, 6.419859443092719, 7.020242445054464, 7.697305997018702, 8.319419696112163, 8.93718255800195]",space,0.9365288659464568,FF,001,2019_Jul_23_1350,rev-kura_tap_2blocks,3.0.6,60.15847751743551,
./stimuli_2/tmp/strong_100_3.wav,100,strong,1.4654700353387642,,,,,,,,,0,18,18,41,,,,,,,,,,,,,,,"['space', 'space', 'space', 'space', 'space', 'space', 'space', 'space', 'space', 'space', 'space', 'space']","[2.118371592951007, 2.7687760370317847, 3.3906537799630314, 4.036033371929079, 4.686166969011538, 5.309419565019198, 5.944732867996208, 6.5689982490148395, 7.269562687957659, 7.894684389932081, 8.56355145398993, 9.203174358932301]",space,0.8435530799906701,FF,001,2019_Jul_23_1350,rev-kura_tap_2blocks,3.0.6,60.15847751743551,
./stimuli_2/tmp/perfect_105_0.wav,105,perfect,2.471825489115851,,,,,,,,,0,19,19,10,,,,,,,,,,,,,,,"['space', 'space', 'space', 'space', 'space', 'space', 'space']","[1.9521604820620269, 2.5094118600245565, 3.045509216026403, 3.603682224988006, 4.203236285015009, 4.760380215011537, 5.353334372048266]",space,0.701529914047569,FF,001,2019_Jul_23_1350,rev-kura_tap_2blocks,3.0.6,60.15847751743551,
./stimuli_2/tmp/vweak_105_3.wav,105,veryweak,1.505363686413271,,,,,,,,,0,20,20,7,,,,,,,,,,,,,,,"['space', 'space', 'space', 'space', 'space', 'space', 'space', 'space', 'space', 'space', 'space', 'space']","[2.510405781911686, 3.0530176298925653, 3.6785778789781034, 4.294602594920434, 4.935819684993476, 5.521359785925597, 6.177678250940517, 6.812035690993071, 7.455223946948536, 8.078617164981551, 8.66231025394518, 9.271303330897354]",space,0.92384962097276,FF,001,2019_Jul_23_1350,rev-kura_tap_2blocks,3.0.6,60.15847751743551,
./stimuli_2/tmp/weak_90_4.wav,90,weak,2.0685733483084743,,,,,,,,,0,21,21,16,,,,,,,,,,,,,,,"['space', 'space', 'space', 'space', 'space', 'space', 'space', 'space', 'space', 'space', 'space', 'space']","[1.975620987941511, 2.5764331439277157, 3.2535192439099774, 3.903534746961668, 4.5919921569293365, 5.2871204250259325, 5.904483683989383, 6.580040038912557, 7.269804602023214, 7.937157004023902, 8.67712655197829, 9.345170804997906]",space,0.8885931989643723,FF,001,2019_Jul_23_1350,rev-kura_tap_2blocks,3.0.6,60.15847751743551,
./stimuli_2/tmp/perfect_90_1.wav,90,perfect,0.9437088291454946,,,,,,,,,0,22,22,38,,,,,,,,,,,,,,,"['space', 'space', 'space', 'space', 'space', 'space', 'space', 'space']","[2.0521470330422744, 2.7455006489763036, 3.376311391009949, 4.043123521958478, 4.724133491981775, 5.342360210022889, 6.003460134961642, 6.677642963011749]",space,1.0420494159916416,FF,001,2019_Jul_23_1350,rev-kura_tap_2blocks,3.0.6,60.15847751743551,
./stimuli_2/tmp/perfect_105_1.wav,105,perfect,1.9598890814615504,,,,,,,,,0,23,23,13,,,,,,,,,,,,,,,"['space', 'space', 'space', 'space', 'space', 'space', 'space', 'space']","[1.3606383159058169, 1.9367035198956728, 2.485847229952924, 3.063037931919098, 3.603384408983402, 4.227607087930664, 4.787460871972144, 5.369105438934639]",space,0.601347284973599,FF,001,2019_Jul_23_1350,rev-kura_tap_2blocks,3.0.6,60.15847751743551,
./stimuli_2/tmp/medium_90_3.wav,90,medium,2.469674326004891,,,,,,,,,0,24,24,43,,,,,,,,,,,,,,,"['space', 'space', 'space', 'space', 'space', 'space', 'space', 'space', 'space', 'space', 'space', 'space']","[1.9297633999958634, 2.5606334049953148, 3.193441962939687, 3.826705410028808, 4.507424811949022, 5.177365562994964, 5.809638762031682, 6.470940905972384, 7.10390624194406, 7.754217492998578, 8.421124504995532, 9.092282635974698]",space,0.9194621309870854,FF,001,2019_Jul_23_1350,rev-kura_tap_2blocks,3.0.6,60.15847751743551,
./stimuli_2/tmp/perfect_100_0.wav,100,perfect,1.3424117839845908,,,,,,,,,0,25,25,3,,,,,,,,,,,,,,,"['space', 'space', 'space', 'space', 'space', 'space', 'space', 'space']","[1.569483196013607, 2.1695440839976072, 2.7760819219984114, 3.3694438880775124, 3.953012819052674, 4.576726101106033, 5.170016997028142, 5.801720801042393]",space,0.6101156630320475,FF,001,2019_Jul_23_1350,rev-kura_tap_2blocks,3.0.6,60.15847751743551,
./stimuli_2/tmp/medium_100_4.wav,100,medium,1.1108721091211078,,,,,,,,,0,26,26,35,,,,,,,,,,,,,,,"['space', 'space', 'space', 'space', 'space', 'space', 'space', 'space', 'space', 'space', 'space', 'space']","[2.25334740197286, 2.83625095395837, 3.4446119458880275, 4.086726120905951, 4.753427118994296, 5.379009263939224, 6.037564351921901, 6.654576436965726, 7.321508634951897, 7.971498874947429, 8.604842534987256, 9.23765270691365]",space,1.2358335979515687,FF,001,2019_Jul_23_1350,rev-kura_tap_2blocks,3.0.6,60.15847751743551,
./stimuli_2/tmp/vweak_90_4.wav,90,veryweak,2.01675312210347,,,,,,,,,0,27,27,47,,,,,,,,,,,,,,,"['space', 'space', 'space', 'space', 'space', 'space', 'space', 'space', 'space', 'space']","[2.8357095229439437, 3.483935790020041, 4.1027303310111165, 4.802886468009092, 5.520456761005335, 6.269328344031237, 7.037142468965612, 7.7947732949396595, 8.52926663402468, 9.281550190993585]",space,0.8918273909948766,FF,001,2019_Jul_23_1350,rev-kura_tap_2blocks,3.0.6,60.15847751743551,
./stimuli_2/tmp/medium_100_3.wav,100,medium,0.9227517929886035,,,,,,,,,0,28,28,45,,,,,,,,,,,,,,,"['space', 'space', 'space', 'space', 'space', 'space', 'space', 'space', 'space', 'space', 'space', 'space', 'space', 'space']","[2.4176153000444174, 2.886411853018217, 3.460840551997535, 3.9606493440223858, 4.48640306701418, 4.992813264019787, 5.536862728069536, 6.0195494670188054, 6.604301286046393, 7.143486396991648, 7.609694565995596, 8.136897486052476, 8.687486818991601, 9.153420015005395]",space,0.6540122500155121,FF,001,2019_Jul_23_1350,rev-kura_tap_2blocks,3.0.6,60.15847751743551,
./stimuli_2/tmp/perfect_95_0.wav,95,perfect,2.0105466277142785,,,,,,,,,0,29,29,30,,,,,,,,,,,,,,,"['space', 'space', 'space', 'space', 'space', 'space', 'space', 'space']","[1.8036559669999406, 2.4285552399232984, 3.0523027390008792, 3.684521830989979, 4.286122785997577, 4.937118483940139, 5.519841498928145, 6.236807461013086]",space,0.4118263509590179,FF,001,2019_Jul_23_1350,rev-kura_tap_2blocks,3.0.6,60.15847751743551,
./stimuli_2/tmp/perfect_95_1.wav,95,perfect,1.6931350678865988,,,,,,,,,0,30,30,26,,,,,,,,,,,,,,,"['space', 'space', 'space', 'space', 'space', 'space', 'space', 'space']","[1.7931328529957682, 2.4098038939991966, 3.04988493793644, 3.6867859839694574, 4.318152402993292, 4.933831590926275, 5.550177151919343, 6.220270994002931]",space,0.6525108519708738,FF,001,2019_Jul_23_1350,rev-kura_tap_2blocks,3.0.6,60.15847751743551,
./stimuli_2/tmp/strong_100_4.wav,100,strong,1.3398198733573277,,,,,,,,,0,31,31,48,,,,,,,,,,,,,,,"['space', 'space', 'space', 'space', 'space', 'space', 'space', 'space', 'space', 'space', 'space', 'space', 'space']","[1.9602876930730417, 2.544627074035816, 3.1602834860095754, 3.7945963330566883, 4.3864395410055295, 4.9932311760494485, 5.587457544053905, 6.203498014016077, 6.803737967973575, 7.42851811402943, 8.028600023011677, 8.652267685974948, 9.237549851066433]",space,1.1158578869653866,FF,001,2019_Jul_23_1350,rev-kura_tap_2blocks,3.0.6,60.15847751743551,
./stimuli_2/tmp/medium_105_4.wav,105,medium,1.8823047760740792,,,,,,,,,0,32,32,28,,,,,,,,,,,,,,,"['space', 'space', 'space', 'space', 'space', 'space', 'space', 'space', 'space', 'space', 'space', 'space', 'space', 'space']","[1.4366205129772425, 1.9704036930343136, 2.5696669219760224, 3.120370398974046, 3.679180157952942, 4.236997653031722, 4.820489684003405, 5.437349356012419, 6.003627139958553, 6.577250340953469, 7.204677326022647, 7.7873587240464985, 8.352594978990965, 8.969522402971052]",space,1.6179411379853263,FF,001,2019_Jul_23_1350,rev-kura_tap_2blocks,3.0.6,60.15847751743551,
./stimuli_2/tmp/strong_95_4.wav,95,strong,1.3122188661972012,,,,,,,,,0,33,33,19,,,,,,,,,,,,,,,"['space', 'space', 'space', 'space', 'space', 'space', 'space', 'space', 'space', 'space', 'space']","[2.31184589501936, 2.9524066580925137, 3.6866410420043394, 4.385839516064152, 5.075757150072604, 5.736130634089932, 6.403179259039462, 7.143738125101663, 7.786737128044479, 8.544749333057553, 9.220681420061737]",space,0.6114651249954477,FF,001,2019_Jul_23_1350,rev-kura_tap_2blocks,3.0.6,60.15847751743551,
./stimuli_2/tmp/strong_90_4.wav,90,strong,0.9547797326956972,,,,,,,,,0,34,34,44,,,,,,,,,,,,,,,"['space', 'space', 'space', 'space', 'space', 'space', 'space', 'space', 'space', 'space', 'space', 'space']","[1.852633760892786, 2.5281108339549974, 3.1854883329942822, 3.919855193933472, 4.576957037905231, 5.252956170006655, 5.953669927897863, 6.660468967980705, 7.36085718893446, 8.029680870939046, 8.686629237956367, 9.354274214943871]",space,0.7866214910754934,FF,001,2019_Jul_23_1350,rev-kura_tap_2blocks,3.0.6,60.15847751743551,
./stimuli_2/tmp/perfect_110_1.wav,110,perfect,1.960810456770172,,,,,,,,,0,35,35,17,,,,,,,,,,,,,,,"['space', 'space', 'space', 'space', 'space', 'space', 'space']","[1.718553603044711, 2.2525579740758985, 2.7862439890159294, 3.3103133720578626, 3.8862371490104124, 4.443771100020967, 4.963095078011975]",space,0.484351942082867,FF,001,2019_Jul_23_1350,rev-kura_tap_2blocks,3.0.6,60.15847751743551,
./stimuli_2/tmp/medium_110_4.wav,110,medium,1.2412593574024813,,,,,,,,,0,36,36,8,,,,,,,,,,,,,,,"['space', 'space', 'space', 'space', 'space', 'space', 'space', 'space', 'space', 'space', 'space', 'space', 'space', 'space']","[1.4852356789633632, 2.0927498739911243, 2.6685733179328963, 3.232988482923247, 3.816765081952326, 4.326653462019749, 4.92556711495854, 5.492861932027154, 6.042536527966149, 6.625885232002474, 7.184961378923617, 7.760180888930336, 8.327275841031224, 8.876340686925687]",space,2.1595844000112265,FF,001,2019_Jul_23_1350,rev-kura_tap_2blocks,3.0.6,60.15847751743551,
./stimuli_2/tmp/vweak_100_4.wav,100,veryweak,1.7061160215264062,,,,,,,,,0,37,37,2,,,,,,,,,,,,,,,"['space', 'space', 'space', 'space', 'space', 'space', 'space', 'space', 'space', 'space', 'space', 'space', 'space']","[2.2786649089539424, 2.746216448955238, 3.3376890189247206, 3.9292525380151346, 4.579756545950659, 5.186703864019364, 5.837574893026613, 6.455121168983169, 7.063504257006571, 7.8297877459554, 8.44659026095178, 9.030107332975604, 9.639892544946633]",space,0.41068106808234006,FF,001,2019_Jul_23_1350,rev-kura_tap_2blocks,3.0.6,60.15847751743551,
./stimuli_2/tmp/medium_90_4.wav,90,medium,1.4187547606829107,,,,,,,,,0,38,38,39,,,,,,,,,,,,,,,"['space', 'space', 'space', 'space', 'space', 'space', 'space', 'space', 'space', 'space', 'space', 'space']","[2.021253540995531, 2.6198175550671294, 3.2364760930649936, 3.843041270971298, 4.470089590060525, 5.0764988959999755, 5.687698284978978, 6.354344947030768, 7.003710190067068, 7.604016663972288, 8.261673315078951, 8.903782612993382]",space,0.5090830120025203,FF,001,2019_Jul_23_1350,rev-kura_tap_2blocks,3.0.6,60.15847751743551,
./stimuli_2/tmp/weak_110_3.wav,110,weak,1.4034951095242638,,,,,,,,,0,39,39,0,,,,,,,,,,,,,,,"['space', 'space', 'space', 'space', 'space', 'space', 'space', 'space', 'space', 'space', 'space', 'space']","[2.7712845450732857, 3.245036084088497, 3.911923111998476, 4.504739681025967, 5.111428987002, 5.695864272071049, 6.29630571603775, 6.905201856046915, 7.512514130095951, 8.162923152092844, 8.880092054023407, 9.537032085005194]",space,0.6190419100457802,FF,001,2019_Jul_23_1350,rev-kura_tap_2blocks,3.0.6,60.15847751743551,
./stimuli_2/tmp/strong_105_4.wav,105,strong,1.0619213958525664,,,,,,,,,0,40,40,23,,,,,,,,,,,,,,,"['space', 'space', 'space', 'space', 'space', 'space', 'space', 'space', 'space', 'space', 'space', 'space', 'space', 'space']","[1.4172356519848108, 1.9680282339686528, 2.502439317991957, 3.0690014619613066, 3.635997446021065, 4.193546423921362, 4.802252549910918, 5.3370656539918855, 5.942281119991094, 6.468894719961099, 7.070751881925389, 7.60314435895998, 8.219705101917498, 8.753496775985695]",space,0.8656575920758769,FF,001,2019_Jul_23_1350,rev-kura_tap_2blocks,3.0.6,60.15847751743551,
./stimuli_2/tmp/strong_110_3.wav,110,strong,2.128797507874421,,,,,,,,,0,41,41,6,,,,,,,,,,,,,,,"['space', 'space', 'space', 'space', 'space', 'space', 'space', 'space', 'space', 'space', 'space', 'space', 'space', 'space', 'space']","[1.6530666090548038, 2.2051451470470056, 2.6955017669824883, 3.2360798460431397, 3.703899699030444, 4.259108291007578, 4.7696399739943445, 5.303949856082909, 5.844272791058756, 6.353080832050182, 6.918582004029304, 7.396620776038617, 7.95452623302117, 8.469959740992635, 8.99500842706766]",space,0.995781681034714,FF,001,2019_Jul_23_1350,rev-kura_tap_2blocks,3.0.6,60.15847751743551,
./stimuli_2/tmp/vweak_100_3.wav,100,veryweak,0.8472696952655959,,,,,,,,,0,42,42,5,,,,,,,,,,,,,,,"['space', 'space', 'space', 'space', 'space', 'space', 'space', 'space', 'space', 'space', 'space', 'space', 'space']","[1.596405204036273, 2.196245300001465, 2.7789220010163262, 3.446936930064112, 4.137488982989453, 4.814041470061056, 5.487558925058693, 6.148251509061083, 6.815086889080703, 7.497062075999565, 8.148777908994816, 8.782722973031923, 9.414283775025979]",space,0.4937359399627894,FF,001,2019_Jul_23_1350,rev-kura_tap_2blocks,3.0.6,60.15847751743551,
./stimuli_2/tmp/vweak_90_3.wav,90,veryweak,0.8098621072043313,,,,,,,,,0,43,43,42,,,,,,,,,,,,,,,"['space', 'space', 'space', 'space', 'space', 'space', 'space', 'space', 'space', 'space', 'space', 'space', 'space']","[2.640218890970573, 3.2684052910190076, 3.893009108956903, 4.519144132034853, 5.100672348984517, 5.693511780002154, 6.2843773199710995, 6.851398334023543, 7.392202856019139, 7.8703724320512265, 8.435566990985535, 9.035123802954331, 9.603587978053838]",space,0.40071947197429836,FF,001,2019_Jul_23_1350,rev-kura_tap_2blocks,3.0.6,60.15847751743551,
./stimuli_2/tmp/medium_105_3.wav,105,medium,0.9417007635762324,,,,,,,,,0,44,44,15,,,,,,,,,,,,,,,"['space', 'space', 'space', 'space', 'space', 'space', 'space', 'space', 'space', 'space', 'space', 'space', 'space']","[2.4451040589483455, 3.0039555199909955, 3.543420585920103, 4.086677323910408, 4.668996569002047, 5.270174639998004, 5.88706415600609, 6.536328813992441, 7.175851648906246, 7.8210780889494345, 8.471289913984947, 8.996578168938868, 9.603590514976531]",space,0.46859516703989357,FF,001,2019_Jul_23_1350,rev-kura_tap_2blocks,3.0.6,60.15847751743551,
./stimuli_2/tmp/weak_100_4.wav,100,weak,1.8643156091783653,,,,,,,,,0,45,45,33,,,,,,,,,,,,,,,"['space', 'space', 'space', 'space', 'space', 'space', 'space', 'space', 'space', 'space', 'space', 'space', 'space']","[1.6589553180383518, 2.2534949160180986, 2.885552088962868, 3.5265315900323913, 4.152555953012779, 4.811329748947173, 5.402614591061138, 6.0545984680065885, 6.7050144240492955, 7.32008900702931, 7.954571801004931, 8.586156607954763, 9.229227517032996]",space,1.3935710579389706,FF,001,2019_Jul_23_1350,rev-kura_tap_2blocks,3.0.6,60.15847751743551,
./stimuli_2/tmp/weak_105_3.wav,105,weak,1.8785671226313851,,,,,,,,,0,46,46,49,,,,,,,,,,,,,,,"['space', 'space', 'space', 'space', 'space', 'space', 'space', 'space', 'space', 'space', 'space', 'space']","[1.885343078058213, 2.520358745008707, 3.236602893099189, 3.9045142950490117, 4.604257089085877, 5.287096320069395, 5.985620432998985, 6.637885872041807, 7.371181050082669, 8.052160123013891, 8.719713429105468, 9.396628696005791]",space,0.5098840389400721,FF,001,2019_Jul_23_1350,rev-kura_tap_2blocks,3.0.6,60.15847751743551,
./stimuli_2/tmp/perfect_90_0.wav,90,perfect,1.8471350139820657,,,,,,,,,0,47,47,34,,,,,,,,,,,,,,,"['space', 'space', 'space', 'space', 'space', 'space', 'space', 'space']","[2.0862033520825207, 2.7362368979956955, 3.386201717075892, 4.036359539022669, 4.7002185840392485, 5.3200025809928775, 6.034191061044112, 6.653357957024127]",space,0.885487386956811,FF,001,2019_Jul_23_1350,rev-kura_tap_2blocks,3.0.6,60.15847751743551,
./stimuli_2/tmp/vweak_105_4.wav,105,veryweak,1.6327958275835193,,,,,,,,,0,48,48,12,,,,,,,,,,,,,,,"['space', 'space', 'space', 'space', 'space', 'space', 'space', 'space', 'space', 'space', 'space', 'space', 'space', 'space']","[1.985897873993963, 2.5877542259404436, 3.1087835839716718, 3.684997358941473, 4.286662980914116, 4.836586072924547, 5.420687458012253, 6.019500856986269, 6.625590241979808, 7.220559736946598, 7.812604120932519, 8.404192465939559, 8.987658201949671, 9.653169074910693]",space,0.5010071179131046,FF,001,2019_Jul_23_1350,rev-kura_tap_2blocks,3.0.6,60.15847751743551,
./stimuli_2/tmp/strong_95_3.wav,95,strong,2.368023631857328,,,,,,,,,0,49,49,24,,,,,,,,,,,,,,,"['space', 'space', 'space', 'space', 'space', 'space', 'space', 'space', 'space', 'space', 'space', 'space']","[2.103695212979801, 2.7032739410642534, 3.318635627045296, 3.951829730067402, 4.6269457009620965, 5.221294978982769, 5.836860839975998, 6.475680332048796, 7.086866413010284, 7.717992527061142, 8.373708726023324, 8.954074130975641]",space,1.223445565905422,FF,001,2019_Jul_23_1350,rev-kura_tap_2blocks,3.0.6,60.15847751743551,
