sndfile,tempo,cond,delay,trials_practice.thisRepN,trials_practice.thisTrialN,trials_practice.thisN,trials_practice.thisIndex,trials.thisRepN,trials.thisTrialN,trials.thisN,trials.thisIndex,trials_2.thisRepN,trials_2.thisTrialN,trials_2.thisN,trials_2.thisIndex,key_resp_2.keys,key_resp_2.rt,key_resp_4.keys,key_resp_4.rt,key_resp_3.keys,key_resp_3.rt,key_resp_7.keys,key_resp_7.rt,key_resp_9.keys,key_resp_9.rt,key_resp_5.keys,key_resp_5.rt,key_resp_8.keys,key_resp_8.rt,key_resp_10.keys,key_resp_10.rt,key_resp_6.keys,key_resp_6.rt,participant,session,date,expName,psychopyVersion,frameRate,
,,,,,,,,,,,,,,,,space,15.805949541041628,,,,,,,,,,,,,,,,,GG,001,2019_Jul_23_1421,rev-kura_tap_2blocks,3.0.6,60.12230992311919,
./stimuli_1/tmp/vweak_105_1.wav,105,veryweak,1.91267155,0,0,0,3,,,,,,,,,,,"['space', 'space', 'space']","[8.403618187992834, 8.95422767905984, 9.521153634996153]",space,1.218364792992361,,,,,,,,,,,,,GG,001,2019_Jul_23_1421,rev-kura_tap_2blocks,3.0.6,60.12230992311919,
./stimuli_1/tmp/medium_100_1.wav,100,medium,1.797198505,0,1,1,0,,,,,,,,,,,None,,space,4.8361624230165035,,,,,,,,,,,,,GG,001,2019_Jul_23_1421,rev-kura_tap_2blocks,3.0.6,60.12230992311919,
./stimuli_1/tmp/strong_90_1.wav,90,strong,1.013023596,0,2,2,1,,,,,,,,,,,"['space', 'space', 'space', 'space', 'space', 'space', 'space', 'space', 'space', 'space', 'space', 'space']","[1.8270417100284249, 2.43645976705011, 3.135717221070081, 3.8277593590319157, 4.536106665036641, 5.234942564973608, 5.886066609062254, 6.602086019003764, 7.30312275106553, 8.036221195012331, 8.770795301068574, 9.454237697995268]",space,2.753266849089414,,,,,,,,,,,,,GG,001,2019_Jul_23_1421,rev-kura_tap_2blocks,3.0.6,60.12230992311919,
./stimuli_1/tmp/medium_110_1.wav,110,medium,0.970866786,0,3,3,2,,,,,,,,,,,"['space', 'space', 'space', 'space', 'space', 'space', 'space', 'space', 'space', 'space', 'space', 'space', 'space', 'space']","[1.8752769600832835, 2.4026497040176764, 2.952907129074447, 3.503483468084596, 4.053333160001785, 4.636211571050808, 5.244801721069962, 5.836253085057251, 6.384436879074201, 6.945746051031165, 7.58748090302106, 8.155928182066418, 8.7367904210696, 9.254110143054277]",space,1.1183540089987218,,,,,,,,,,,,,GG,001,2019_Jul_23_1421,rev-kura_tap_2blocks,3.0.6,60.12230992311919,
./stimuli_1/tmp/medium_110_1.wav,110,medium,1.222685394,0,4,4,4,,,,,,,,,,,"['space', 'space', 'space', 'space', 'space', 'space', 'space', 'space', 'space', 'space', 'space', 'space', 'space', 'space', 'space']","[1.2363654769724235, 1.719584172940813, 2.2694675310049206, 2.8365655340021476, 3.5262286509387195, 4.069926735945046, 4.636963848955929, 5.203502385993488, 5.803124030935578, 6.386750177945942, 6.954302818980068, 7.604294092976488, 8.170861828955822, 8.787469635019079, 9.271254871040583]",space,0.9992202309658751,,,,,,,,,,,,,GG,001,2019_Jul_23_1421,rev-kura_tap_2blocks,3.0.6,60.12230992311919,
,,,,,,,,,,,,,,,,,,,,,,space,13.387868024059571,,,,,,,,,,,GG,001,2019_Jul_23_1421,rev-kura_tap_2blocks,3.0.6,60.12230992311919,
./stimuli_1/tmp/medium_90_2.wav,90,medium,2.1384331573709567,,,,,0,0,0,46,,,,,,,,,,,,,"['space', 'space', 'space', 'space', 'space', 'space', 'space']","[1.027425745036453, 1.6780914600240067, 6.361338629038073, 7.11628927604761, 7.8620112859644, 8.612186869024299, 9.362111240974627]",space,1.5694156069075689,,,,,,,GG,001,2019_Jul_23_1421,rev-kura_tap_2blocks,3.0.6,60.12230992311919,
./stimuli_1/tmp/weak_105_1.wav,105,weak,2.3476680969619683,,,,,0,1,1,45,,,,,,,,,,,,,"['space', 'space', 'space', 'space', 'space', 'space', 'space', 'space', 'space', 'space', 'space', 'space']","[1.3531060880050063, 1.9698747490765527, 2.5367402730043977, 3.229056233074516, 4.50374761398416, 5.1431137170875445, 5.986647154088132, 6.643864389043301, 7.270147570990957, 7.951840815017931, 8.713045030017383, 9.387542103067972]",space,0.8864793370012194,,,,,,,GG,001,2019_Jul_23_1421,rev-kura_tap_2blocks,3.0.6,60.12230992311919,
./stimuli_1/tmp/medium_95_2.wav,95,medium,2.475357682924177,,,,,0,2,2,14,,,,,,,,,,,,,"['space', 'space', 'space', 'space', 'space', 'space', 'space', 'space', 'space', 'space', 'space']","[1.5192423020489514, 2.461126568960026, 3.4756207689642906, 4.168881837977096, 4.894887714996003, 5.518948798067868, 6.218375444994308, 6.961056077037938, 7.653175094048493, 8.286911230068654, 8.952874363982119]",space,8.046279173111543,,,,,,,GG,001,2019_Jul_23_1421,rev-kura_tap_2blocks,3.0.6,60.12230992311919,
./stimuli_1/tmp/perfect_90_0.wav,90,perfect,1.6568604876231643,,,,,0,3,3,35,,,,,,,,,,,,,"['space', 'space', 'space', 'space', 'space', 'space', 'space', 'space']","[2.0359432310797274, 2.7038531340658665, 3.31788808607962, 3.936372910044156, 4.637091952026822, 5.243751080008224, 5.919307172996923, 6.587182561052032]",space,0.46691306307911873,,,,,,,GG,001,2019_Jul_23_1421,rev-kura_tap_2blocks,3.0.6,60.12230992311919,
./stimuli_1/tmp/vweak_110_1.wav,110,veryweak,1.3407186132175697,,,,,0,4,4,32,,,,,,,,,,,,,"['space', 'space', 'space', 'space', 'space', 'space', 'space', 'space']","[1.4362711519934237, 2.3840073680039495, 3.3866943690227345, 4.953835882013664, 6.303110659006052, 7.441693022963591, 8.021548706921749, 8.90375669603236]",space,1.0237795769935474,,,,,,,GG,001,2019_Jul_23_1421,rev-kura_tap_2blocks,3.0.6,60.12230992311919,
./stimuli_1/tmp/medium_105_1.wav,105,medium,1.6663985327680324,,,,,0,5,5,21,,,,,,,,,,,,,"['space', 'space', 'space', 'space', 'space', 'space', 'space', 'space', 'space', 'space', 'space', 'space', 'space']","[1.3942148450296372, 2.0203405410284176, 2.9868349590105936, 3.7198768759844825, 4.553503421018831, 5.18691084405873, 5.77067205007188, 6.387318507069722, 6.979287936002947, 7.620156403980218, 8.221504235058092, 8.820426278049126, 9.37828659499064]",space,0.6171882710186765,,,,,,,GG,001,2019_Jul_23_1421,rev-kura_tap_2blocks,3.0.6,60.12230992311919,
./stimuli_1/tmp/vweak_100_1.wav,100,veryweak,1.441965324529146,,,,,0,6,6,4,,,,,,,,,,,,,"['space', 'space', 'space', 'space', 'space', 'space', 'space', 'space', 'space', 'space', 'space']","[0.8188350989948958, 1.652861458947882, 2.360316777951084, 3.2702367700403556, 3.8944237569812685, 4.5034608950372785, 5.2844241430284455, 6.019592082942836, 6.736804449930787, 7.554067683988251, 8.489054618985392]",space,0.6258371110307053,,,,,,,GG,001,2019_Jul_23_1421,rev-kura_tap_2blocks,3.0.6,60.12230992311919,
./stimuli_1/tmp/vweak_95_2.wav,95,veryweak,1.1399322262275913,,,,,0,7,7,30,,,,,,,,,,,,,"['space', 'space', 'space', 'space', 'space', 'space', 'space', 'space', 'space', 'space', 'space', 'space', 'space']","[1.8533364209579304, 2.5043141639325768, 3.12741356191691, 3.7375632749171928, 4.345286599942483, 4.9870170599315315, 5.609071074984968, 6.237450760905631, 6.820507655967958, 7.487660091952421, 8.07121660397388, 8.695629683905281, 9.354479803936556]",space,0.8130312239518389,,,,,,,GG,001,2019_Jul_23_1421,rev-kura_tap_2blocks,3.0.6,60.12230992311919,
./stimuli_1/tmp/medium_100_1.wav,100,medium,0.9469441789171564,,,,,0,8,8,47,,,,,,,,,,,,,"['space', 'space', 'space', 'space', 'space', 'space', 'space', 'space', 'space', 'space', 'space', 'space', 'space']","[1.119232787983492, 1.7525187749415636, 2.4025922239525244, 3.0522274159593508, 3.6356555819511414, 4.285791040980257, 5.052019740920514, 5.619445888907649, 6.2010748609900475, 7.011196495965123, 7.586740985978395, 8.220557171967812, 8.852902920916677]",space,0.7664838830241933,,,,,,,GG,001,2019_Jul_23_1421,rev-kura_tap_2blocks,3.0.6,60.12230992311919,
./stimuli_1/tmp/vweak_105_1.wav,105,veryweak,2.000868469173824,,,,,0,9,9,7,,,,,,,,,,,,,"['space', 'space', 'space', 'space', 'space', 'space', 'space', 'space', 'space', 'space', 'space', 'space', 'space', 'space']","[1.3269231719896197, 1.802706699934788, 2.4041969999670982, 3.003564012935385, 3.569579510949552, 4.17474805098027, 4.753575905924663, 5.344761893968098, 5.936664759996347, 6.487151097971946, 7.103188420995139, 7.737596570979804, 8.312025871942751, 8.952122382936068]",space,0.7693607698893175,,,,,,,GG,001,2019_Jul_23_1421,rev-kura_tap_2blocks,3.0.6,60.12230992311919,
./stimuli_1/tmp/perfect_110_0.wav,110,perfect,1.8837210676143408,,,,,0,10,10,16,,,,,,,,,,,,,"['space', 'space', 'space', 'space', 'space', 'space', 'space']","[1.3438812219537795, 1.7528995550237596, 2.1863350089406595, 2.7269008469302207, 3.269465546007268, 3.8196623240364715, 4.3530524970265105]",space,0.9043900329852477,,,,,,,GG,001,2019_Jul_23_1421,rev-kura_tap_2blocks,3.0.6,60.12230992311919,
./stimuli_1/tmp/weak_90_1.wav,90,weak,1.282481392037714,,,,,0,11,11,29,,,,,,,,,,,,,"['space', 'space', 'space', 'space', 'space', 'space', 'space', 'space', 'space']","[0.9952889459673315, 2.1453319820575416, 2.9791891670320183, 3.9460575679549947, 4.745814449037425, 5.5204126220196486, 6.546432325034402, 7.747869587969035, 8.947427351027727]",space,0.6695581501116976,,,,,,,GG,001,2019_Jul_23_1421,rev-kura_tap_2blocks,3.0.6,60.12230992311919,
./stimuli_1/tmp/perfect_100_0.wav,100,perfect,2.1771183722066985,,,,,0,12,12,2,,,,,,,,,,,,,"['space', 'space', 'space', 'space', 'space', 'space', 'space', 'space']","[0.9538235570071265, 1.502705230959691, 2.102308831992559, 2.7194766040192917, 3.3022009399719536, 3.9364021869841963, 4.503811312955804, 5.156085919006728]",space,0.5369611450005323,,,,,,,GG,001,2019_Jul_23_1421,rev-kura_tap_2blocks,3.0.6,60.12230992311919,
./stimuli_1/tmp/perfect_110_1.wav,110,perfect,1.7704271467992068,,,,,0,13,13,18,,,,,,,,,,,,,"['space', 'space', 'space', 'space', 'space', 'space', 'space']","[1.2521465939935297, 1.702075500972569, 2.218986149993725, 2.817621728987433, 3.319001773954369, 3.8194775169249624, 4.336644904920831]",space,0.4364403230138123,,,,,,,GG,001,2019_Jul_23_1421,rev-kura_tap_2blocks,3.0.6,60.12230992311919,
./stimuli_1/tmp/medium_110_2.wav,110,medium,1.962096670593472,,,,,0,14,14,12,,,,,,,,,,,,,"['space', 'space', 'space', 'space', 'space', 'space', 'space', 'space', 'space', 'space', 'space', 'space']","[1.4527672430267558, 1.9859507019864395, 2.6529279219685122, 3.2365274019539356, 3.902900516986847, 4.770250326953828, 5.484494723961689, 6.169809009996243, 6.953568416996859, 7.676355717005208, 8.42005555902142, 9.125092173926532]",space,0.6194974340032786,,,,,,,GG,001,2019_Jul_23_1421,rev-kura_tap_2blocks,3.0.6,60.12230992311919,
./stimuli_1/tmp/vweak_100_2.wav,100,veryweak,0.9843923106260049,,,,,0,15,15,5,,,,,,,,,,,,,"['space', 'space', 'space', 'space', 'space', 'space', 'space', 'space', 'space', 'space', 'space', 'space', 'space', 'space', 'space']","[0.8472746360348538, 1.3803480559727177, 2.029723754967563, 2.765033297939226, 3.364456968032755, 3.964554480044171, 4.622430454939604, 5.282321591046639, 5.883240625960752, 6.498256364953704, 7.11488211597316, 7.76596393098589, 8.349205225007609, 8.983074347954243, 9.849264304037206]",space,0.5568490849109367,,,,,,,GG,001,2019_Jul_23_1421,rev-kura_tap_2blocks,3.0.6,60.12230992311919,
./stimuli_1/tmp/strong_95_1.wav,95,strong,1.2238592690797745,,,,,0,16,16,33,,,,,,,,,,,,,"['space', 'space', 'space', 'space', 'space', 'space', 'space', 'space', 'space', 'space', 'space', 'space', 'space', 'space']","[1.219806800945662, 1.802507012966089, 2.409795476938598, 3.003007199964486, 3.6362480099778622, 4.269418963929638, 4.8368521289667115, 5.476925645954907, 6.086221449892037, 6.686774664907716, 7.320619286969304, 7.937396210967563, 8.568345766980201, 9.153560784994625]",space,0.7161209610057995,,,,,,,GG,001,2019_Jul_23_1421,rev-kura_tap_2blocks,3.0.6,60.12230992311919,
./stimuli_1/tmp/strong_110_1.wav,110,strong,2.342405954917332,,,,,0,17,17,8,,,,,,,,,,,,,"['space', 'space', 'space', 'space', 'space', 'space', 'space', 'space', 'space', 'space', 'space', 'space', 'space', 'space', 'space']","[1.135555607965216, 1.6865777290659025, 2.234098038985394, 2.786202977062203, 3.45311121805571, 3.9853109740652144, 4.569544914062135, 5.103775836993009, 5.6868404489941895, 6.2707906239666045, 6.836344853043556, 7.419906174065545, 8.020217056036927, 8.620089136064053, 9.170040593016893]",space,6.769905474036932,,,,,,,GG,001,2019_Jul_23_1421,rev-kura_tap_2blocks,3.0.6,60.12230992311919,
./stimuli_1/tmp/medium_110_1.wav,110,medium,1.6223651347148935,,,,,0,18,18,10,,,,,,,,,,,,,"['space', 'space', 'space', 'space', 'space', 'space', 'space', 'space', 'space', 'space', 'space', 'space', 'space', 'space', 'space']","[1.171658147010021, 1.6359189070062712, 2.2533686959650367, 2.868235138943419, 3.4535850619431585, 4.051579961902462, 4.660074739949778, 5.2202710069250315, 5.770801435923204, 6.32025181199424, 6.870164991938509, 7.50410609296523, 8.126723872963339, 8.738032954977825, 9.225688671926036]",space,2.702806851011701,,,,,,,GG,001,2019_Jul_23_1421,rev-kura_tap_2blocks,3.0.6,60.12230992311919,
./stimuli_1/tmp/perfect_105_1.wav,105,perfect,1.612711409659772,,,,,0,19,19,13,,,,,,,,,,,,,"['space', 'space', 'space', 'space', 'space', 'space', 'space', 'space', 'space']","[1.3429978840285912, 1.8693535720231012, 2.419576170039363, 3.019946595071815, 3.602803561021574, 4.137439534068108, 4.719121427973732, 5.253507398068905, 8.854527145973407]",space,0.44659454410430044,,,,,,,GG,001,2019_Jul_23_1421,rev-kura_tap_2blocks,3.0.6,60.12230992311919,
./stimuli_1/tmp/perfect_95_1.wav,95,perfect,0.8659592093324232,,,,,0,20,20,22,,,,,,,,,,,,,"['space', 'space', 'space', 'space', 'space', 'space', 'space', 'space']","[1.0480481249978766, 1.6542380620958284, 2.3484744920860976, 2.9987921920837834, 3.6482246509986, 4.298746546031907, 4.912844626000151, 5.5381948770955205]",space,0.7192041709786281,,,,,,,GG,001,2019_Jul_23_1421,rev-kura_tap_2blocks,3.0.6,60.12230992311919,
./stimuli_1/tmp/weak_105_2.wav,105,weak,2.065051120273794,,,,,0,21,21,48,,,,,,,,,,,,,"['space', 'space', 'space', 'space', 'space', 'space', 'space', 'space', 'space', 'space', 'space', 'space', 'space', 'space', 'space']","[0.9544037360465154, 1.4867870029993355, 1.9533707869704813, 2.4528798969695345, 3.086695743026212, 3.7747084520524368, 4.369658502051607, 5.036108389031142, 5.701705476967618, 6.287235714029521, 6.87084294995293, 7.4432378970086575, 8.071291818050668, 8.671016296022572, 9.285566110978834]",space,0.6030732609797269,,,,,,,GG,001,2019_Jul_23_1421,rev-kura_tap_2blocks,3.0.6,60.12230992311919,
./stimuli_1/tmp/vweak_110_2.wav,110,veryweak,1.2375564653250335,,,,,0,22,22,28,,,,,,,,,,,,,"['space', 'space', 'space', 'space', 'space', 'space', 'space', 'space', 'space', 'space', 'space', 'space', 'space', 'space', 'space']","[1.0254147310042754, 1.704039299977012, 2.170047702966258, 2.635990223963745, 3.1708812549477443, 3.7209872999228537, 4.2530982819153, 4.770688563934527, 5.287179220933467, 5.9045315369730815, 6.471558368997648, 7.054668961907737, 7.870602865936235, 8.487045094952919, 9.020904697012156]",space,0.5920822540065274,,,,,,,GG,001,2019_Jul_23_1421,rev-kura_tap_2blocks,3.0.6,60.12230992311919,
./stimuli_1/tmp/vweak_95_1.wav,95,veryweak,2.279644213301781,,,,,0,23,23,24,,,,,,,,,,,,,"['space', 'space', 'space', 'space', 'space', 'space', 'space', 'space', 'space', 'space', 'space', 'space', 'space', 'space']","[0.9371677360031754, 1.4855161609593779, 2.0838756589218974, 2.675144496955909, 3.2861156680155545, 3.9200512160314247, 4.50200334796682, 5.11939559597522, 5.7200521669583395, 6.384567296947353, 7.0366523989941925, 7.667951292940415, 8.237154189962894, 8.820586630958132]",space,0.5352935179835185,,,,,,,GG,001,2019_Jul_23_1421,rev-kura_tap_2blocks,3.0.6,60.12230992311919,
./stimuli_1/tmp/medium_95_1.wav,95,medium,1.3706215803300168,,,,,0,24,24,19,,,,,,,,,,,,,"['space', 'space', 'space', 'space', 'space', 'space', 'space', 'space', 'space', 'space', 'space', 'space', 'space']","[0.9529587109573185, 1.4916486209258437, 2.1696920229587704, 2.869740906986408, 3.520004708901979, 4.237213760963641, 4.942288847989403, 5.62069306592457, 6.270612715976313, 6.977418291964568, 7.687108404003084, 8.404205507948063, 9.03750269592274]",space,0.6181397730251774,,,,,,,GG,001,2019_Jul_23_1421,rev-kura_tap_2blocks,3.0.6,60.12230992311919,
./stimuli_1/tmp/perfect_95_0.wav,95,perfect,1.4400885785760469,,,,,0,25,25,26,,,,,,,,,,,,,"['space', 'space', 'space', 'space', 'space', 'space', 'space', 'space']","[1.036059380043298, 1.752865059999749, 2.369526164024137, 3.0024611559929326, 3.6036045500077307, 4.252810774021782, 4.919378819060512, 5.535956798004918]",space,0.41912014002446085,,,,,,,GG,001,2019_Jul_23_1421,rev-kura_tap_2blocks,3.0.6,60.12230992311919,
./stimuli_1/tmp/weak_110_1.wav,110,weak,2.302762081100819,,,,,0,26,26,3,,,,,,,,,,,,,"['space', 'space', 'space', 'space', 'space', 'space', 'space', 'space', 'space', 'space', 'space', 'space', 'space', 'space']","[1.9029866670025513, 2.4193638269789517, 2.968958267942071, 3.5196350789628923, 4.104044487932697, 4.7194334958912805, 5.244379491894506, 5.854165583965369, 6.387092321994714, 7.02004304190632, 7.637683369917795, 8.208992091938853, 8.787466291920282, 9.454010344925337]",space,0.7182604289846495,,,,,,,GG,001,2019_Jul_23_1421,rev-kura_tap_2blocks,3.0.6,60.12230992311919,
./stimuli_1/tmp/perfect_105_0.wav,105,perfect,2.376167666662905,,,,,0,27,27,11,,,,,,,,,,,,,"['space', 'space', 'space', 'space', 'space', 'space', 'space', 'space']","[0.9355407389812171, 1.4696578410221264, 1.951984204002656, 2.5030640810728073, 3.068961143027991, 3.6026958080474287, 4.186928624054417, 4.758361248066649]",space,0.601891373982653,,,,,,,GG,001,2019_Jul_23_1421,rev-kura_tap_2blocks,3.0.6,60.12230992311919,
./stimuli_1/tmp/strong_90_1.wav,90,strong,1.0878185010355936,,,,,0,28,28,41,,,,,,,,,,,,,"['space', 'space', 'space', 'space', 'space', 'space', 'space', 'space', 'space', 'space', 'space', 'space']","[0.8186788760358468, 1.737259704968892, 2.4528582219500095, 3.1523349520284683, 3.81953766499646, 4.567549622035585, 5.252539695939049, 5.93575935496483, 6.635760121047497, 7.3198786720167845, 8.019635205972008, 8.725119012990035]",space,0.6071043539559469,,,,,,,GG,001,2019_Jul_23_1421,rev-kura_tap_2blocks,3.0.6,60.12230992311919,
./stimuli_1/tmp/perfect_100_1.wav,100,perfect,2.462429502310373,,,,,0,29,29,1,,,,,,,,,,,,,"['space', 'space', 'space', 'space', 'space', 'space', 'space', 'space']","[0.933434200938791, 1.5702113748993725, 2.1323012280045077, 2.7488790119532496, 3.3481997109483927, 3.932938016951084, 4.531737846904434, 5.170972610940225]",space,0.46727607399225235,,,,,,,GG,001,2019_Jul_23_1421,rev-kura_tap_2blocks,3.0.6,60.12230992311919,
./stimuli_1/tmp/weak_100_1.wav,100,weak,0.9200911357943652,,,,,0,30,30,15,,,,,,,,,,,,,"['space', 'space', 'space', 'space', 'space', 'space', 'space', 'space', 'space', 'space', 'space', 'space', 'space', 'space']","[1.173492396948859, 1.6853564709890634, 2.3371270559728146, 2.887258465983905, 3.5199130210094154, 4.156115468009375, 4.853519933996722, 5.337295835954137, 5.936833010986447, 6.503959796973504, 7.155087354942225, 7.803689332911745, 8.404182157944888, 9.05348384892568]",space,0.5754388760542497,,,,,,,GG,001,2019_Jul_23_1421,rev-kura_tap_2blocks,3.0.6,60.12230992311919,
./stimuli_1/tmp/perfect_90_1.wav,90,perfect,0.8790589196072783,,,,,0,31,31,39,,,,,,,,,,,,,"['space', 'space', 'space', 'space', 'space', 'space', 'space', 'space', 'space', 'space']","[0.9193172890227288, 1.4021072740433738, 1.9854737590067089, 2.685302729019895, 3.3521858220919967, 4.052558444091119, 4.720251282094978, 5.340803628088906, 5.9695215640822425, 6.620101428008638]",space,0.7690798520343378,,,,,,,GG,001,2019_Jul_23_1421,rev-kura_tap_2blocks,3.0.6,60.12230992311919,
./stimuli_1/tmp/medium_105_2.wav,105,medium,0.8825097572066065,,,,,0,32,32,17,,,,,,,,,,,,,"['space', 'space', 'space', 'space', 'space', 'space', 'space', 'space', 'space', 'space', 'space', 'space', 'space']","[1.2034273650497198, 1.7744743530638516, 2.2866971030598506, 3.1199805880896747, 3.6184692759998143, 4.1741176780778915, 4.8370602640789, 5.670768001000397, 6.425245297024958, 7.187420318019576, 7.921365412999876, 8.620600361027755, 9.31013423006516]",space,0.5849825310287997,,,,,,,GG,001,2019_Jul_23_1421,rev-kura_tap_2blocks,3.0.6,60.12230992311919,
./stimuli_1/tmp/weak_95_2.wav,95,weak,1.3391653351857111,,,,,0,33,33,38,,,,,,,,,,,,,"['space', 'space', 'space', 'space', 'space', 'space', 'space', 'space', 'space', 'space', 'space', 'space']","[1.2676826909882948, 2.1353819490177557, 2.7850957550108433, 3.4520499809877947, 4.236475059995428, 4.9360796510009095, 5.6536367000080645, 6.303341100923717, 7.052934139966965, 7.769272770965472, 8.441034538904205, 9.103831426938996]",space,0.7849149409448728,,,,,,,GG,001,2019_Jul_23_1421,rev-kura_tap_2blocks,3.0.6,60.12230992311919,
./stimuli_1/tmp/medium_100_2.wav,100,medium,1.5709881706161974,,,,,0,34,34,44,,,,,,,,,,,,,"['space', 'space', 'space', 'space', 'space', 'space', 'space', 'space', 'space', 'space', 'space', 'space', 'space', 'space', 'space']","[1.0360663299215958, 1.7202880010008812, 2.286216553999111, 3.0342110559577122, 3.6031903219409287, 4.1576467039994895, 4.753497413941659, 5.253798063029535, 5.7875869339331985, 6.371117620030418, 6.920757018961012, 7.487564082955942, 8.02026980696246, 8.53700853092596, 9.111771345022134]",space,0.5194426040397957,,,,,,,GG,001,2019_Jul_23_1421,rev-kura_tap_2blocks,3.0.6,60.12230992311919,
./stimuli_1/tmp/strong_105_1.wav,105,strong,1.8750845453371756,,,,,0,35,35,25,,,,,,,,,,,,,"['space', 'space', 'space', 'space', 'space', 'space', 'space', 'space', 'space', 'space', 'space', 'space', 'space', 'space', 'space', 'space']","[1.0853583010612056, 1.6357185930246487, 2.1535483630141243, 2.7022456320701167, 3.2699402540456504, 3.8522221320308745, 4.356714404071681, 4.903088624007069, 5.469724782044068, 6.036962301004678, 6.569838814088143, 7.1359659479931, 7.653353483066894, 8.20332584308926, 8.72047142998781, 9.27389073499944]",space,0.803411438013427,,,,,,,GG,001,2019_Jul_23_1421,rev-kura_tap_2blocks,3.0.6,60.12230992311919,
./stimuli_1/tmp/strong_105_2.wav,105,strong,0.9615404084728899,,,,,0,36,36,31,,,,,,,,,,,,,"['space', 'space', 'space', 'space', 'space', 'space', 'space', 'space', 'space', 'space', 'space', 'space', 'space']","[1.1864636429818347, 1.8364905649796128, 2.4858092949725688, 3.1512822209624574, 3.82016331597697, 4.487080686958507, 5.073895458946936, 5.737542883027345, 6.403843390988186, 7.058340030955151, 7.736090639955364, 8.387204185011797, 9.005124510964379]",space,0.7015379009535536,,,,,,,GG,001,2019_Jul_23_1421,rev-kura_tap_2blocks,3.0.6,60.12230992311919,
./stimuli_1/tmp/weak_90_2.wav,90,weak,2.0384375203910188,,,,,0,37,37,23,,,,,,,,,,,,,"['space', 'space', 'space', 'space', 'space', 'space', 'space', 'space', 'space', 'space', 'space', 'space', 'space']","[1.0525549100711942, 1.7179103940725327, 2.384641448035836, 2.968146390048787, 3.6181805970845744, 4.235921898041852, 4.9731512640137225, 5.58662608906161, 6.269083581981249, 7.002822975977324, 7.519337219069712, 8.203292526071891, 8.993577365064994]",space,0.5397195039549842,,,,,,,GG,001,2019_Jul_23_1421,rev-kura_tap_2blocks,3.0.6,60.12230992311919,
./stimuli_1/tmp/strong_100_1.wav,100,strong,1.2298337616078612,,,,,0,38,38,37,,,,,,,,,,,,,"['space', 'space', 'space', 'space', 'space', 'space', 'space', 'space', 'space', 'space', 'space', 'space', 'space', 'space']","[0.9031108190538362, 1.4031189320376143, 2.0552143399836496, 2.735869951080531, 3.420470634009689, 4.072169893071987, 4.653200472006574, 5.29071233200375, 5.98776115803048, 6.6741978080244735, 7.3036499010631815, 7.988300852011889, 8.670938690076582, 9.257748164003715]",space,0.7696858729468659,,,,,,,GG,001,2019_Jul_23_1421,rev-kura_tap_2blocks,3.0.6,60.12230992311919,
./stimuli_1/tmp/weak_110_2.wav,110,weak,1.1450489585925383,,,,,0,39,39,0,,,,,,,,,,,,,"['space', 'space', 'space', 'space', 'space', 'space', 'space', 'space', 'space', 'space', 'space', 'space', 'space', 'space', 'space']","[0.8520654839230701, 1.5684518259949982, 2.185676178894937, 2.720797519898042, 3.3195776829961687, 3.8024413159582764, 4.286411630921066, 4.789661578950472, 5.301088278996758, 5.9031539529096335, 6.4533101338893175, 7.070574447978288, 7.620145573979244, 8.203242644900456, 8.75363320892211]",space,0.5186185190686956,,,,,,,GG,001,2019_Jul_23_1421,rev-kura_tap_2blocks,3.0.6,60.12230992311919,
./stimuli_1/tmp/strong_90_2.wav,90,strong,1.29545815814535,,,,,0,40,40,36,,,,,,,,,,,,,"['space', 'space', 'space', 'space', 'space', 'space', 'space', 'space', 'space', 'space', 'space', 'space', 'space']","[0.8446045089513063, 1.4796348520321772, 2.136231043958105, 2.8111184149747714, 3.466672600945458, 4.129220272996463, 4.8470239859307185, 5.536206763936207, 6.1131500659976155, 6.730118195991963, 7.397225585998967, 8.114171696011908, 9.381535921012983]",space,0.4356874350924045,,,,,,,GG,001,2019_Jul_23_1421,rev-kura_tap_2blocks,3.0.6,60.12230992311919,
./stimuli_1/tmp/medium_90_1.wav,90,medium,1.3827594725962091,,,,,0,41,41,49,,,,,,,,,,,,,"['space', 'space', 'space', 'space', 'space', 'space', 'space', 'space', 'space', 'space', 'space', 'space']","[1.3858127039857209, 2.003059442038648, 2.769758697017096, 3.4694638319779187, 4.186465590959415, 4.903889050008729, 5.619962509023026, 6.337001670966856, 6.987906813039444, 7.653491872944869, 8.328926922054961, 9.070362366037443]",space,0.574168894905597,,,,,,,GG,001,2019_Jul_23_1421,rev-kura_tap_2blocks,3.0.6,60.12230992311919,
./stimuli_1/tmp/vweak_105_2.wav,105,veryweak,1.1450150374808907,,,,,0,42,42,9,,,,,,,,,,,,,"['space', 'space', 'space', 'space', 'space', 'space', 'space', 'space', 'space', 'space', 'space', 'space', 'space']","[1.3504082510480657, 1.9526949509745464, 2.5689405020093545, 3.228993779979646, 3.869404331082478, 4.5058036390692, 5.153876909986138, 5.803027008078061, 6.453914075973444, 7.053908959031105, 7.710158172994852, 8.370252407039516, 8.970613516052254]",space,0.8733917899662629,,,,,,,GG,001,2019_Jul_23_1421,rev-kura_tap_2blocks,3.0.6,60.12230992311919,
./stimuli_1/tmp/vweak_90_2.wav,90,veryweak,1.0044987578235975,,,,,0,43,43,40,,,,,,,,,,,,,"['space', 'space', 'space', 'space', 'space', 'space', 'space', 'space', 'space', 'space', 'space', 'space', 'space', 'space']","[0.9697293229401112, 1.6354896759148687, 2.269536478910595, 2.9301916789263487, 3.4869000329636037, 4.120651440927759, 4.78532417700626, 5.471540243946947, 6.10483200091403, 6.705740924924612, 7.470596789964475, 8.154525841004215, 8.738635640940629, 9.364492945955135]",space,0.579900142038241,,,,,,,GG,001,2019_Jul_23_1421,rev-kura_tap_2blocks,3.0.6,60.12230992311919,
./stimuli_1/tmp/strong_110_2.wav,110,strong,1.9369911731854192,,,,,0,44,44,6,,,,,,,,,,,,,"['space', 'space', 'space', 'space', 'space', 'space', 'space', 'space', 'space', 'space', 'space', 'space', 'space', 'space']","[1.1359658000292256, 1.6703460869612172, 2.22012730804272, 2.819825117941946, 3.410657554049976, 4.0197509250137955, 4.587264104979113, 5.187225323985331, 5.792529045953415, 6.346896952949464, 6.9372139379847795, 7.520764671964571, 8.096813097945414, 8.753775871940888]",space,0.4646819479530677,,,,,,,GG,001,2019_Jul_23_1421,rev-kura_tap_2blocks,3.0.6,60.12230992311919,
./stimuli_1/tmp/strong_95_2.wav,95,strong,1.1173507911145857,,,,,0,45,45,27,,,,,,,,,,,,,"['space', 'space', 'space', 'space', 'space', 'space', 'space', 'space', 'space', 'space', 'space', 'space', 'space']","[1.1666620620526373, 1.7896680330159143, 2.4686059809755534, 3.0865561029640958, 3.8175935819745064, 4.487077848985791, 5.152856964035891, 5.786454014014453, 6.508655913057737, 7.135995391057804, 7.793435081024654, 8.486699113971554, 9.12057715805713]",space,0.6861257639247924,,,,,,,GG,001,2019_Jul_23_1421,rev-kura_tap_2blocks,3.0.6,60.12230992311919,
./stimuli_1/tmp/weak_100_2.wav,100,weak,0.9744812486321696,,,,,0,46,46,20,,,,,,,,,,,,,"['space', 'space', 'space', 'space', 'space', 'space', 'space', 'space', 'space', 'space', 'space', 'space', 'space', 'space', 'space']","[0.8623962459387258, 1.4035562470089644, 1.9368997910059988, 2.4571683489484712, 3.070191188948229, 3.8301568489987403, 4.403115908964537, 5.036229224991985, 5.6534896939992905, 6.27030118892435, 6.852036030963063, 7.420060222968459, 7.995696224970743, 8.655051640002057, 9.314335958915763]",space,0.6011912159156054,,,,,,,GG,001,2019_Jul_23_1421,rev-kura_tap_2blocks,3.0.6,60.12230992311919,
./stimuli_1/tmp/vweak_90_1.wav,90,veryweak,0.8362780865168179,,,,,0,47,47,34,,,,,,,,,,,,,"['space', 'space', 'space', 'space', 'space', 'space', 'space', 'space', 'space', 'space', 'space', 'space']","[1.2938252170570195, 2.0033021660055965, 2.769468534970656, 3.55387605400756, 4.2764588199788705, 5.003371910075657, 5.736554210074246, 6.4539218010613695, 7.203149829059839, 7.944281383999623, 8.61097773106303, 9.337269742973149]",space,0.4698985220165923,,,,,,,GG,001,2019_Jul_23_1421,rev-kura_tap_2blocks,3.0.6,60.12230992311919,
./stimuli_1/tmp/weak_95_1.wav,95,weak,1.9726481258285025,,,,,0,48,48,43,,,,,,,,,,,,,"['space', 'space', 'space', 'space', 'space', 'space', 'space', 'space', 'space', 'space', 'space', 'space', 'space']","[1.0405928759137169, 1.5764586069853976, 2.2772659219335765, 2.9503274229355156, 3.7011141979601234, 4.317182687926106, 4.9438925629947335, 5.610289013944566, 6.293479486950673, 6.994358244934119, 7.66049346991349, 8.327435217914172, 8.99464192299638]",space,2.804026838974096,,,,,,,GG,001,2019_Jul_23_1421,rev-kura_tap_2blocks,3.0.6,60.12230992311919,
./stimuli_1/tmp/strong_100_2.wav,100,strong,1.5994648074282498,,,,,0,49,49,42,,,,,,,,,,,,,"['space', 'space', 'space', 'space', 'space', 'space', 'space', 'space', 'space', 'space', 'space', 'space', 'space', 'space']","[1.286680375924334, 1.8458446490112692, 2.477580930921249, 3.102552964934148, 3.727255431935191, 4.344152856967412, 4.886063241981901, 5.534446885925718, 6.179845214006491, 6.809590616961941, 7.421075777965598, 7.953113998984918, 8.67691522394307, 9.237745736027136]",space,0.36049405892845243,,,,,,,GG,001,2019_Jul_23_1421,rev-kura_tap_2blocks,3.0.6,60.12230992311919,
,,,,,,,,,,,,,,,,,,,,,,,,,,,,space,30.446309090941213,,,,,GG,001,2019_Jul_23_1421,rev-kura_tap_2blocks,3.0.6,60.12230992311919,
./stimuli_2/tmp/strong_110_4.wav,110,strong,1.9935472881648024,,,,,,,,,0,0,0,9,,,,,,,,,,,,,,,"['space', 'space', 'space', 'space', 'space', 'space', 'space', 'space', 'space', 'space', 'space', 'space', 'space', 'space']","[1.318841648986563, 1.9260176289826632, 2.5196963669732213, 3.1202851299894974, 3.7530589619418606, 4.320383325917646, 4.902714039897546, 5.494128820952028, 6.0865957560017705, 6.70447905594483, 7.253789881942794, 7.8371081670047715, 8.437207416980527, 8.996757836895995]",space,0.338396723032929,GG,001,2019_Jul_23_1421,rev-kura_tap_2blocks,3.0.6,60.12230992311919,
./stimuli_2/tmp/vweak_90_3.wav,90,veryweak,0.8098621072043313,,,,,,,,,0,1,1,42,,,,,,,,,,,,,,,"['space', 'space', 'space', 'space', 'space', 'space', 'space', 'space', 'space', 'space', 'space', 'space']","[0.9935089480131865, 1.9361215520184487, 2.551882909028791, 3.2027959279948846, 3.853013004991226, 4.486514882999472, 5.1438790099928156, 6.220133051043376, 6.784572722041048, 7.453316681087017, 8.30414673697669, 8.977787867072038]",space,0.659482468967326,GG,001,2019_Jul_23_1421,rev-kura_tap_2blocks,3.0.6,60.12230992311919,
./stimuli_2/tmp/medium_105_4.wav,105,medium,1.8823047760740792,,,,,,,,,0,2,2,28,,,,,,,,,,,,,,,"['space', 'space', 'space', 'space', 'space', 'space', 'space', 'space', 'space', 'space', 'space', 'space', 'space', 'space', 'space']","[1.0020131680648774, 1.4690124770859256, 1.962305083987303, 2.5357752030249685, 3.0693156690103933, 3.6356090790359303, 4.229017544072121, 4.829299635021016, 5.4132419870002195, 5.976911946083419, 6.596530954004265, 7.145332062034868, 7.761201446061023, 8.309873322024941, 8.893563793040812]",space,0.8940171890426427,GG,001,2019_Jul_23_1421,rev-kura_tap_2blocks,3.0.6,60.12230992311919,
./stimuli_2/tmp/perfect_90_1.wav,90,perfect,0.9437088291454946,,,,,,,,,0,3,3,38,,,,,,,,,,,,,,,"['space', 'space', 'space', 'space', 'space', 'space', 'space', 'space', 'space']","[1.3194731100229546, 2.0371909249806777, 2.761040990939364, 3.395822286955081, 4.020833133952692, 4.620903605944477, 5.378070396953262, 6.0616117779864, 6.724964116932824]",space,0.38863749406300485,GG,001,2019_Jul_23_1421,rev-kura_tap_2blocks,3.0.6,60.12230992311919,
./stimuli_2/tmp/weak_95_3.wav,95,weak,1.2112449492962023,,,,,,,,,0,4,4,36,,,,,,,,,,,,,,,"['space', 'space', 'space', 'space', 'space', 'space', 'space', 'space', 'space', 'space', 'space', 'space']","[1.319050160003826, 2.042712700087577, 2.752691989997402, 3.4201466460945085, 4.09575824206695, 4.818206359050237, 5.437331889057532, 6.236942711053416, 6.903664233046584, 7.603847073041834, 8.262395233032294, 9.002811612095684]",space,0.4589597680605948,GG,001,2019_Jul_23_1421,rev-kura_tap_2blocks,3.0.6,60.12230992311919,
./stimuli_2/tmp/perfect_100_0.wav,100,perfect,1.3424117839845908,,,,,,,,,0,5,5,3,,,,,,,,,,,,,,,"['space', 'space', 'space', 'space', 'space', 'space', 'space', 'space']","[1.0037691229954362, 1.5779233339708298, 2.1373039659811184, 2.7211655639111996, 3.3245253949426115, 3.9038891239324585, 4.50401041097939, 5.119078620919026]",space,0.3614582900190726,GG,001,2019_Jul_23_1421,rev-kura_tap_2blocks,3.0.6,60.12230992311919,
./stimuli_2/tmp/vweak_100_3.wav,100,veryweak,0.8472696952655959,,,,,,,,,0,6,6,5,,,,,,,,,,,,,,,"['space', 'space', 'space', 'space', 'space', 'space', 'space', 'space', 'space', 'space', 'space', 'space', 'space']","[0.9866268029436469, 1.5189338279888034, 2.159512448008172, 2.8514109349343926, 3.5197571290191263, 4.193277309997939, 4.837261650012806, 5.4867243060143664, 6.210204015951604, 6.8363477300154045, 7.486518539953977, 8.10405719699338, 8.870979045983404]",space,0.6438847089884803,GG,001,2019_Jul_23_1421,rev-kura_tap_2blocks,3.0.6,60.12230992311919,
./stimuli_2/tmp/perfect_100_1.wav,100,perfect,1.900582361571024,,,,,,,,,0,7,7,1,,,,,,,,,,,,,,,"['space', 'space', 'space', 'space', 'space', 'space', 'space', 'space']","[0.9524645489873365, 1.529140030965209, 2.1023366539739072, 2.702169600990601, 3.328722186968662, 3.95315810397733, 4.552556924987584, 5.1861338870367035]",space,0.43682387191802263,GG,001,2019_Jul_23_1421,rev-kura_tap_2blocks,3.0.6,60.12230992311919,
./stimuli_2/tmp/strong_95_4.wav,95,strong,1.3122188661972012,,,,,,,,,0,8,8,19,,,,,,,,,,,,,,,"['space', 'space', 'space', 'space', 'space', 'space', 'space', 'space', 'space', 'space', 'space', 'space', 'space']","[1.001516017015092, 1.4876762920757756, 2.2099033190170303, 2.8769553580787033, 3.595403942046687, 4.29478637909051, 5.018964052083902, 5.710960428114049, 6.418914371053688, 7.09488746302668, 7.837598449084908, 8.545326693099923, 9.244874949101359]",space,0.6849435539916158,GG,001,2019_Jul_23_1421,rev-kura_tap_2blocks,3.0.6,60.12230992311919,
./stimuli_2/tmp/weak_100_3.wav,100,weak,0.8397616430138637,,,,,,,,,0,9,9,21,,,,,,,,,,,,,,,"['space', 'space', 'space', 'space', 'space', 'space', 'space', 'space', 'space', 'space', 'space', 'space', 'space', 'space']","[1.4770938419969752, 1.9469193399418145, 2.5451409999514, 3.136697079986334, 3.7373764959629625, 4.293424682924524, 4.778606093954295, 5.286733441986144, 5.870664381887764, 6.444698608946055, 6.969928429927677, 7.55316937493626, 8.186848934972659, 8.887646637973376]",space,0.5165282069938257,GG,001,2019_Jul_23_1421,rev-kura_tap_2blocks,3.0.6,60.12230992311919,
./stimuli_2/tmp/weak_90_4.wav,90,weak,2.0685733483084743,,,,,,,,,0,10,10,16,,,,,,,,,,,,,,,"['space', 'space', 'space', 'space', 'space', 'space', 'space', 'space', 'space', 'space', 'space', 'space', 'space']","[1.1865407089935616, 1.8035407479619607, 2.5114593249745667, 3.1846931430045515, 3.836507169995457, 4.479251981014386, 5.2437278520083055, 5.93695765605662, 6.585118651972152, 7.286988697014749, 7.952797985053621, 8.6543153290404, 9.321297200047411]",space,0.5680824710289016,GG,001,2019_Jul_23_1421,rev-kura_tap_2blocks,3.0.6,60.12230992311919,
./stimuli_2/tmp/strong_110_3.wav,110,strong,2.128797507874421,,,,,,,,,0,11,11,6,,,,,,,,,,,,,,,"['space', 'space', 'space', 'space', 'space', 'space', 'space', 'space', 'space', 'space', 'space', 'space', 'space', 'space', 'space']","[1.179263083031401, 1.6205313360551372, 2.123525877017528, 2.6231101270532236, 3.2065048730000854, 3.7234878779854625, 4.239095894037746, 4.796932934084907, 5.285520032048225, 5.831259086029604, 6.886389982071705, 7.388177399057895, 7.930612385040149, 8.455609395052306, 9.02267420804128]",space,0.8198313340544701,GG,001,2019_Jul_23_1421,rev-kura_tap_2blocks,3.0.6,60.12230992311919,
./stimuli_2/tmp/weak_95_4.wav,95,weak,1.59401142701977,,,,,,,,,0,12,12,46,,,,,,,,,,,,,,,"['space', 'space', 'space', 'space', 'space', 'space', 'space', 'space', 'space', 'space', 'space']","[1.3789849050808698, 2.1605290160514414, 2.9188548990059644, 3.6456570230657235, 4.370664615067653, 5.113430147990584, 5.880158104002476, 6.596248076995835, 7.313268325990066, 8.073163850000128, 8.780346401035786]",space,0.5164116509258747,GG,001,2019_Jul_23_1421,rev-kura_tap_2blocks,3.0.6,60.12230992311919,
./stimuli_2/tmp/medium_110_3.wav,110,medium,1.2616218191127295,,,,,,,,,0,13,13,11,,,,,,,,,,,,,,,"['space', 'space', 'space', 'space', 'space', 'space', 'space', 'space', 'space', 'space', 'space', 'space', 'space']","[1.1028707920340821, 1.8361995390150696, 2.5239688920555636, 3.185833619092591, 3.885757332085632, 4.536412936984561, 5.169391449075192, 5.786502433009446, 6.404112850083038, 7.076533394050784, 7.686219091992825, 8.303726774058305, 8.91339952708222]",space,2.552111091092229,GG,001,2019_Jul_23_1421,rev-kura_tap_2blocks,3.0.6,60.12230992311919,
./stimuli_2/tmp/vweak_105_4.wav,105,veryweak,1.6327958275835193,,,,,,,,,0,14,14,12,,,,,,,,,,,,,,,"['space', 'space', 'space', 'space', 'space', 'space', 'space', 'space', 'space', 'space', 'space', 'space', 'space', 'space']","[1.3806817519944161, 1.9365700819762424, 2.4694766369648278, 3.0859889819985256, 3.637045215931721, 4.186423506005667, 4.759744814946316, 5.37698001798708, 5.9532469239784405, 6.537195089971647, 7.1701500959461555, 7.777222855947912, 8.420921682030894, 8.970879641943611]",space,0.8205482009798288,GG,001,2019_Jul_23_1421,rev-kura_tap_2blocks,3.0.6,60.12230992311919,
./stimuli_2/tmp/perfect_95_1.wav,95,perfect,1.6931350678865988,,,,,,,,,0,15,15,26,,,,,,,,,,,,,,,"['space', 'space', 'space', 'space', 'space', 'space', 'space', 'space']","[1.067323007970117, 1.71995701699052, 2.3536020369501784, 2.970994123024866, 3.586639108019881, 4.211799592943862, 4.9036355200223625, 5.538355002994649]",space,0.37599471292924136,GG,001,2019_Jul_23_1421,rev-kura_tap_2blocks,3.0.6,60.12230992311919,
./stimuli_2/tmp/perfect_95_0.wav,95,perfect,2.0105466277142785,,,,,,,,,0,16,16,30,,,,,,,,,,,,,,,"['space', 'space', 'space', 'space', 'space', 'space', 'space', 'space', 'space']","[1.0590256670257077, 1.6849073170451447, 2.362075885059312, 2.959196634008549, 3.616697154007852, 4.235102187027223, 4.893137370003387, 5.502653278992511, 6.200052657048218]",space,0.4031831689644605,GG,001,2019_Jul_23_1421,rev-kura_tap_2blocks,3.0.6,60.12230992311919,
./stimuli_2/tmp/strong_100_3.wav,100,strong,1.4654700353387642,,,,,,,,,0,17,17,41,,,,,,,,,,,,,,,"['space', 'space', 'space', 'space', 'space', 'space', 'space', 'space', 'space', 'space', 'space', 'space', 'space']","[1.476388614042662, 2.084274652064778, 2.715028026024811, 3.350011748028919, 3.9771621900144964, 4.615738420980051, 5.2747454040218145, 5.9271256510401145, 6.593736695009284, 7.257933343062177, 7.909914818010293, 8.533061539987102, 9.227765957009979]",space,0.6008965669898316,GG,001,2019_Jul_23_1421,rev-kura_tap_2blocks,3.0.6,60.12230992311919,
./stimuli_2/tmp/medium_110_4.wav,110,medium,1.2412593574024813,,,,,,,,,0,18,18,8,,,,,,,,,,,,,,,"['space', 'space', 'space', 'space', 'space', 'space', 'space', 'space', 'space', 'space', 'space', 'space', 'space']","[0.951834246981889, 1.469604666926898, 2.0201860019005835, 2.6043074599001557, 3.703610908938572, 4.260832094005309, 4.819191450951621, 5.419274213956669, 6.00278801296372, 6.560420858906582, 7.172054303926416, 7.703212961903773, 8.855800254968926]",space,0.5341245209565386,GG,001,2019_Jul_23_1421,rev-kura_tap_2blocks,3.0.6,60.12230992311919,
./stimuli_2/tmp/weak_105_4.wav,105,weak,2.3797932117961262,,,,,,,,,0,19,19,40,,,,,,,,,,,,,,,"['space', 'space', 'space', 'space', 'space', 'space', 'space', 'space', 'space', 'space', 'space', 'space', 'space']","[1.1610126619925722, 1.677886695950292, 2.3830927360104397, 3.1116516520269215, 3.6449938690057024, 4.243053585989401, 4.945247352006845, 5.543743664980866, 6.217286219005473, 6.878558682044968, 7.6771721029654145, 8.562922945944592, 9.161317054997198]",space,0.6014321349794045,GG,001,2019_Jul_23_1421,rev-kura_tap_2blocks,3.0.6,60.12230992311919,
./stimuli_2/tmp/perfect_110_0.wav,110,perfect,1.6760608294086363,,,,,,,,,0,20,20,14,,,,,,,,,,,,,,,"['space', 'space', 'space', 'space', 'space', 'space']","[1.6933752680197358, 2.220859116059728, 2.737585710012354, 3.3428556830622256, 3.904342715977691, 4.42107536108233]",space,0.5574441880453378,GG,001,2019_Jul_23_1421,rev-kura_tap_2blocks,3.0.6,60.12230992311919,
./stimuli_2/tmp/perfect_90_0.wav,90,perfect,1.8471350139820657,,,,,,,,,0,21,21,34,,,,,,,,,,,,,,,"['space', 'space', 'space', 'space', 'space', 'space', 'space', 'space', 'space']","[0.9137241470161825, 1.3536333160009235, 2.046619249973446, 2.747539201984182, 3.36540840996895, 4.055853052064776, 4.679931525024585, 5.35327739699278, 6.01488909102045]",space,0.5517015430377796,GG,001,2019_Jul_23_1421,rev-kura_tap_2blocks,3.0.6,60.12230992311919,
./stimuli_2/tmp/medium_90_4.wav,90,medium,1.4187547606829107,,,,,,,,,0,22,22,39,,,,,,,,,,,,,,,"['space', 'space', 'space', 'space', 'space', 'space', 'space', 'space', 'space', 'space', 'space', 'space', 'space']","[1.1963598190341145, 1.8303186589619145, 2.470014918013476, 3.165391574962996, 3.780637835036032, 4.414058380993083, 5.070759747060947, 5.681914457003586, 6.3319564970443025, 6.932116633979604, 7.597870109020732, 8.216241545975208, 8.882626287057064]",space,0.5438496870920062,GG,001,2019_Jul_23_1421,rev-kura_tap_2blocks,3.0.6,60.12230992311919,
./stimuli_2/tmp/perfect_105_0.wav,105,perfect,2.471825489115851,,,,,,,,,0,23,23,10,,,,,,,,,,,,,,,"['space', 'space', 'space', 'space', 'space', 'space', 'space', 'space']","[0.9516164539381862, 1.352199081913568, 1.9355449459981173, 2.4691823719767854, 3.0435425449395552, 3.6023969969246536, 4.2022486759815365, 4.7697585970163345]",space,0.46981592604424804,GG,001,2019_Jul_23_1421,rev-kura_tap_2blocks,3.0.6,60.12230992311919,
./stimuli_2/tmp/vweak_105_3.wav,105,veryweak,1.505363686413271,,,,,,,,,0,24,24,7,,,,,,,,,,,,,,,"['space', 'space', 'space', 'space', 'space', 'space', 'space', 'space', 'space', 'space', 'space', 'space', 'space', 'space', 'space', 'space']","[1.263816160033457, 1.7650650680297986, 2.380037280963734, 2.964113206951879, 3.6042724719736725, 4.248404330923222, 4.8649554789299145, 5.465132324025035, 6.182573493919335, 6.8154110360192135, 7.398299466934986, 8.052770201931708, 8.648633737000637, 9.250263178953901, 9.84116367797833, 10.482884245924652]",space,0.10687781299930066,GG,001,2019_Jul_23_1421,rev-kura_tap_2blocks,3.0.6,60.12230992311919,
./stimuli_2/tmp/medium_100_4.wav,100,medium,1.1108721091211078,,,,,,,,,0,25,25,35,,,,,,,,,,,,,,,"['space', 'space', 'space', 'space', 'space', 'space', 'space', 'space', 'space', 'space', 'space', 'space', 'space', 'space']","[0.9864715749863535, 1.5011524589499459, 2.1273848100099713, 2.7694378779269755, 3.4251393849262968, 4.052837390918285, 4.669592694961466, 5.337140304967761, 6.037239269004203, 6.637234254973009, 7.271323843975551, 7.926036680932157, 8.587907927925698, 9.253329288912937]",space,0.6594343660399318,GG,001,2019_Jul_23_1421,rev-kura_tap_2blocks,3.0.6,60.12230992311919,
./stimuli_2/tmp/perfect_110_1.wav,110,perfect,1.960810456770172,,,,,,,,,0,26,26,17,,,,,,,,,,,,,,,"['space', 'space', 'space', 'space', 'space', 'space', 'space']","[1.2170985490083694, 1.6692402720218524, 2.219853439950384, 2.7685841319616884, 3.324555129976943, 3.8539462799672037, 4.385791735956445]",space,0.36805959010962397,GG,001,2019_Jul_23_1421,rev-kura_tap_2blocks,3.0.6,60.12230992311919,
./stimuli_2/tmp/strong_100_4.wav,100,strong,1.3398198733573277,,,,,,,,,0,27,27,48,,,,,,,,,,,,,,,"['space', 'space', 'space', 'space', 'space', 'space', 'space', 'space', 'space', 'space', 'space', 'space', 'space']","[1.1864018270280212, 1.819397398037836, 2.5031137220794335, 3.0527696820208803, 3.6711255580885336, 4.325466560083441, 4.9703210580628365, 5.603415372082964, 6.803126556100324, 7.419705879990943, 8.003994067083113, 8.637681363034062, 9.192700679996051]",space,0.4521788009442389,GG,001,2019_Jul_23_1421,rev-kura_tap_2blocks,3.0.6,60.12230992311919,
./stimuli_2/tmp/strong_105_4.wav,105,strong,1.0619213958525664,,,,,,,,,0,28,28,23,,,,,,,,,,,,,,,"['space', 'space', 'space', 'space', 'space', 'space', 'space', 'space', 'space', 'space', 'space', 'space', 'space', 'space', 'space']","[0.9029478500597179, 1.3861076619941741, 1.9264862550189719, 2.4528470870573074, 3.0198685709619895, 3.586881524999626, 4.153661502990872, 4.770518652978353, 5.359410031000152, 5.887313222978264, 6.470478915958665, 7.020919317030348, 7.603964501991868, 8.222194453002885, 8.804728706018068]",space,0.5528405969962478,GG,001,2019_Jul_23_1421,rev-kura_tap_2blocks,3.0.6,60.12230992311919,
./stimuli_2/tmp/strong_90_4.wav,90,strong,0.9547797326956972,,,,,,,,,0,29,29,44,,,,,,,,,,,,,,,"['space', 'space', 'space', 'space', 'space', 'space', 'space', 'space', 'space', 'space', 'space', 'space']","[0.9605661670211703, 1.7702091980027035, 2.4770503420149907, 3.1871211690595374, 3.8917818589834496, 5.220584099995904, 5.9208448299905285, 6.604010888026096, 7.285640108049847, 8.020413385005668, 8.685178339015692, 9.320684376987629]",space,0.5856343799969181,GG,001,2019_Jul_23_1421,rev-kura_tap_2blocks,3.0.6,60.12230992311919,
./stimuli_2/tmp/vweak_110_4.wav,110,veryweak,1.4056094097142195,,,,,,,,,0,30,30,20,,,,,,,,,,,,,,,"['space', 'space', 'space', 'space', 'space', 'space', 'space', 'space', 'space', 'space', 'space', 'space', 'space', 'space', 'space']","[1.2857557709794492, 1.82539877993986, 2.4190294209402055, 2.802400214015506, 3.286162164993584, 3.8098231069743633, 4.402760669938289, 5.003181152045727, 5.519412038964219, 6.203933838987723, 6.669789773994125, 7.20308527094312, 7.7527028729673475, 8.287190558970906, 8.88666686299257]",space,0.4198381000896916,GG,001,2019_Jul_23_1421,rev-kura_tap_2blocks,3.0.6,60.12230992311919,
./stimuli_2/tmp/weak_110_4.wav,110,weak,1.2158046753843554,,,,,,,,,0,31,31,4,,,,,,,,,,,,,,,"['space', 'space', 'space', 'space', 'space', 'space', 'space', 'space', 'space', 'space', 'space', 'space', 'space']","[2.2427418449660763, 2.8034839120227844, 3.403029531938955, 3.8871812459547073, 4.5193192639853805, 5.053423295961693, 5.637860361952335, 6.169569861958735, 6.919583547976799, 7.460580999031663, 7.937117884983309, 8.437726547010243, 8.973165708011948]",space,0.5520078010158613,GG,001,2019_Jul_23_1421,rev-kura_tap_2blocks,3.0.6,60.12230992311919,
./stimuli_2/tmp/strong_105_3.wav,105,strong,1.2846849156286215,,,,,,,,,0,32,32,31,,,,,,,,,,,,,,,"['space', 'space', 'space', 'space', 'space', 'space', 'space', 'space', 'space', 'space', 'space', 'space', 'space', 'space', 'space']","[0.8191794879967347, 1.3706754959421232, 1.919597053900361, 2.4531372259370983, 3.0702373419189826, 3.6386463009985164, 4.252978481934406, 4.816946347942576, 5.419746776926331, 5.936409491929226, 6.545237521990202, 7.086988174938597, 7.687419817899354, 8.22102743096184, 8.770411923993379]",space,0.5275577559368685,GG,001,2019_Jul_23_1421,rev-kura_tap_2blocks,3.0.6,60.12230992311919,
./stimuli_2/tmp/vweak_95_3.wav,95,veryweak,2.160580057702042,,,,,,,,,0,33,33,32,,,,,,,,,,,,,,,"['space', 'space', 'space', 'space', 'space', 'space', 'space', 'space', 'space', 'space', 'space', 'space', 'space', 'space']","[1.1856430739862844, 1.7023533309111372, 2.26898271497339, 2.894550135009922, 3.619755188934505, 4.236342616961338, 4.869649800937623, 5.452822468942031, 5.926837094943039, 6.587458246969618, 7.2537993679288775, 7.820733682950959, 8.420865399995819, 9.053969010012224]",space,0.7033020929666236,GG,001,2019_Jul_23_1421,rev-kura_tap_2blocks,3.0.6,60.12230992311919,
./stimuli_2/tmp/weak_110_3.wav,110,weak,1.4034951095242638,,,,,,,,,0,34,34,0,,,,,,,,,,,,,,,"['space', 'space', 'space', 'space', 'space', 'space', 'space', 'space', 'space', 'space', 'space', 'space', 'space', 'space']","[0.9690130680100992, 1.8101827199570835, 2.6031992780044675, 3.3026352470042184, 3.942340665962547, 4.520320249022916, 5.203666100976989, 5.786808761069551, 6.373813078040257, 6.987495886045508, 7.537278005038388, 8.159733398002572, 8.820630862028338, 9.555034324992448]",space,0.5359580699587241,GG,001,2019_Jul_23_1421,rev-kura_tap_2blocks,3.0.6,60.12230992311919,
./stimuli_2/tmp/medium_105_3.wav,105,medium,0.9417007635762324,,,,,,,,,0,35,35,15,,,,,,,,,,,,,,,"['space', 'space', 'space', 'space', 'space', 'space', 'space', 'space', 'space', 'space', 'space', 'space', 'space', 'space']","[0.9456469479482621, 1.4524714229628444, 2.4125917749479413, 3.01242787996307, 3.5612503279699013, 4.112631310010329, 4.67965743097011, 5.279804277932271, 5.880034790956415, 6.6133605459472165, 7.312912847963162, 7.922089545987546, 8.513836993952282, 9.097140152007341]",space,0.5763255790807307,GG,001,2019_Jul_23_1421,rev-kura_tap_2blocks,3.0.6,60.12230992311919,
./stimuli_2/tmp/medium_100_3.wav,100,medium,0.9227517929886035,,,,,,,,,0,36,36,45,,,,,,,,,,,,,,,"['space', 'space', 'space', 'space', 'space', 'space', 'space', 'space', 'space', 'space', 'space', 'space', 'space', 'space', 'space']","[0.909564153989777, 1.336599524016492, 1.886314091971144, 2.3707189080305398, 3.4363418630091473, 3.9616671369876713, 4.487747517065145, 5.003233095048927, 5.558090267004445, 6.019716307055205, 6.537100426037796, 7.087311164010316, 8.154335784958676, 8.687579834018834, 9.202036199043505]",space,0.42996715393383056,GG,001,2019_Jul_23_1421,rev-kura_tap_2blocks,3.0.6,60.12230992311919,
./stimuli_2/tmp/strong_95_3.wav,95,strong,2.368023631857328,,,,,,,,,0,37,37,24,,,,,,,,,,,,,,,"['space', 'space', 'space', 'space', 'space', 'space', 'space', 'space', 'space', 'space', 'space', 'space', 'space']","[0.8233184509444982, 1.285771497990936, 1.9188637390034273, 3.2191388770006597, 3.9525142069905996, 4.536151850013994, 5.136237410013564, 5.7584945999551564, 6.419647273956798, 7.03664908092469, 7.63674795802217, 8.303454605978914, 8.920889016939327]",space,0.4859238229691982,GG,001,2019_Jul_23_1421,rev-kura_tap_2blocks,3.0.6,60.12230992311919,
./stimuli_2/tmp/medium_95_3.wav,95,medium,0.9787884089584356,,,,,,,,,0,38,38,18,,,,,,,,,,,,,,,"['space', 'space', 'space', 'space', 'space', 'space', 'space', 'space', 'space', 'space', 'space', 'space', 'space', 'space']","[0.8359057069756091, 1.2592429498909041, 1.8362318199360743, 2.4859071269165725, 3.15321288688574, 3.834232628927566, 4.434794924920425, 5.119866671971977, 5.753270517918281, 6.369920766912401, 7.070420719916001, 7.653570482973009, 8.327214886900038, 8.971359519986436]",space,0.6110215580556542,GG,001,2019_Jul_23_1421,rev-kura_tap_2blocks,3.0.6,60.12230992311919,
./stimuli_2/tmp/vweak_110_3.wav,110,veryweak,1.9493514140483303,,,,,,,,,0,39,39,25,,,,,,,,,,,,,,,"['space', 'space', 'space', 'space', 'space', 'space', 'space', 'space', 'space', 'space', 'space', 'space']","[1.292507083970122, 1.624233640031889, 1.9863597339717671, 2.502914021955803, 3.252624189015478, 3.967759496998042, 4.803209003992379, 5.670004385989159, 6.620250370004214, 7.391583194956183, 8.311298424960114, 9.069807313964702]",space,0.4542913510231301,GG,001,2019_Jul_23_1421,rev-kura_tap_2blocks,3.0.6,60.12230992311919,
./stimuli_2/tmp/weak_105_3.wav,105,weak,1.8785671226313851,,,,,,,,,0,40,40,49,,,,,,,,,,,,,,,"['space', 'space', 'space', 'space', 'space', 'space', 'space', 'space', 'space', 'space', 'space', 'space', 'space']","[1.146614412078634, 1.8144720020936802, 2.496820778003894, 3.2478243130026385, 3.9216376810800284, 4.648510842001997, 5.364037667051889, 6.031565458048135, 6.720224690041505, 7.381397878052667, 8.120467736036517, 8.74770977103617, 9.521304485038854]",space,0.7629708820022643,GG,001,2019_Jul_23_1421,rev-kura_tap_2blocks,3.0.6,60.12230992311919,
./stimuli_2/tmp/vweak_95_4.wav,95,veryweak,1.2922043074511544,,,,,,,,,0,41,41,22,,,,,,,,,,,,,,,"['space', 'space', 'space', 'space', 'space', 'space', 'space', 'space', 'space', 'space', 'space', 'space', 'space', 'space']","[1.169143897946924, 1.803084697923623, 2.4034140160074458, 3.019841213012114, 3.620706963003613, 4.219565883977339, 4.786638402962126, 5.4213073790306225, 6.036227550008334, 6.654134033014998, 7.242287428001873, 7.853828373015858, 8.492526868009008, 9.087316224933602]",space,0.9693923110608011,GG,001,2019_Jul_23_1421,rev-kura_tap_2blocks,3.0.6,60.12230992311919,
./stimuli_2/tmp/weak_100_4.wav,100,weak,1.8643156091783653,,,,,,,,,0,42,42,33,,,,,,,,,,,,,,,"['space', 'space', 'space', 'space', 'space', 'space', 'space', 'space', 'space', 'space', 'space', 'space', 'space', 'space']","[0.9019118830328807, 1.5850138450041413, 2.2226744000799954, 2.8022330660605803, 3.4688228820450604, 4.151241860003211, 4.80177281901706, 5.427207772037946, 6.036323760054074, 6.636655963025987, 7.302866624086164, 7.903124136035331, 8.553657989017665, 9.170349496998824]",space,0.6873796050203964,GG,001,2019_Jul_23_1421,rev-kura_tap_2blocks,3.0.6,60.12230992311919,
./stimuli_2/tmp/vweak_90_4.wav,90,veryweak,2.01675312210347,,,,,,,,,0,43,43,47,,,,,,,,,,,,,,,"['space', 'space', 'space', 'space', 'space', 'space', 'space', 'space', 'space', 'space', 'space', 'space']","[1.185679369024001, 1.9689399400958791, 2.6358501040376723, 3.3860095150303096, 4.1031606760807335, 4.803459902992472, 5.486247677006759, 6.253063641022891, 7.0594442810397595, 7.853619141038507, 8.573075128020719, 9.270388109027408]",space,0.5190296899527311,GG,001,2019_Jul_23_1421,rev-kura_tap_2blocks,3.0.6,60.12230992311919,
./stimuli_2/tmp/weak_90_3.wav,90,weak,1.336733561564532,,,,,,,,,0,44,44,29,,,,,,,,,,,,,,,"['space', 'space', 'space', 'space', 'space', 'space', 'space', 'space', 'space', 'space', 'space', 'space']","[1.1374684320762753, 1.7200703710550442, 2.4433421740541235, 3.135849946993403, 3.776793611003086, 4.486139723099768, 5.258820434100926, 5.853402905049734, 6.437193484045565, 7.070613432093523, 8.504068551003002, 9.238176654092968]",space,0.5192066909512505,GG,001,2019_Jul_23_1421,rev-kura_tap_2blocks,3.0.6,60.12230992311919,
./stimuli_2/tmp/vweak_100_4.wav,100,veryweak,1.7061160215264062,,,,,,,,,0,45,45,2,,,,,,,,,,,,,,,"['space', 'space', 'space', 'space', 'space', 'space', 'space', 'space', 'space', 'space', 'space', 'space', 'space', 'space']","[1.0001301460433751, 1.6357695360202342, 2.318774727988057, 3.1531878659734502, 3.7191542490618303, 4.224958942038938, 5.003158719977364, 5.535617438959889, 6.219188990071416, 6.820147464051843, 7.420613673981279, 7.936930784024298, 8.503602680983022, 9.12047328602057]",space,0.5192516200477257,GG,001,2019_Jul_23_1421,rev-kura_tap_2blocks,3.0.6,60.12230992311919,
./stimuli_2/tmp/perfect_105_1.wav,105,perfect,1.9598890814615504,,,,,,,,,0,46,46,13,,,,,,,,,,,,,,,"['space', 'space', 'space', 'space', 'space', 'space', 'space']","[0.8694799930090085, 1.3258189300540835, 2.468976997071877, 3.034588287002407, 3.620066615054384, 4.2034885310567915, 4.7271262960275635]",space,0.6010302880313247,GG,001,2019_Jul_23_1421,rev-kura_tap_2blocks,3.0.6,60.12230992311919,
./stimuli_2/tmp/medium_90_3.wav,90,medium,2.469674326004891,,,,,,,,,0,47,47,43,,,,,,,,,,,,,,,"['space', 'space', 'space', 'space', 'space', 'space', 'space', 'space', 'space', 'space', 'space', 'space', 'space']","[1.1772341500036418, 1.7856648969464004, 2.4078824589960277, 3.069664163980633, 3.693535416969098, 4.369997484027408, 5.069360902998596, 5.719581439043395, 6.35155662195757, 7.036841867957264, 7.669894568971358, 8.326049534021877, 8.987197292037308]",space,0.6404666069429368,GG,001,2019_Jul_23_1421,rev-kura_tap_2blocks,3.0.6,60.12230992311919,
./stimuli_2/tmp/strong_90_3.wav,90,strong,1.6244125943376004,,,,,,,,,0,48,48,37,,,,,,,,,,,,,,,"['space', 'space', 'space', 'space', 'space', 'space', 'space', 'space', 'space', 'space', 'space', 'space']","[1.1192905260249972, 1.8695788379991427, 2.6007567059714347, 3.2690207730047405, 4.001027549966238, 4.626932971994393, 5.303336633951403, 6.0094544750172645, 6.67021491995547, 7.353365326998755, 8.070211938931607, 8.770469954004511]",space,0.6282483449904248,GG,001,2019_Jul_23_1421,rev-kura_tap_2blocks,3.0.6,60.12230992311919,
./stimuli_2/tmp/medium_95_4.wav,95,medium,1.5689377747074644,,,,,,,,,0,49,49,27,,,,,,,,,,,,,,,"['space', 'space', 'space', 'space', 'space', 'space', 'space', 'space', 'space', 'space', 'space', 'space', 'space']","[1.0523824109695852, 1.769316100049764, 2.46905749803409, 3.119648564956151, 3.7527430499903858, 4.458074926980771, 5.136528430040926, 5.77033496205695, 6.438438022043556, 7.1702107740566134, 7.8371313699753955, 8.49298150301911, 9.204424805007875]",space,0.6787826080108061,GG,001,2019_Jul_23_1421,rev-kura_tap_2blocks,3.0.6,60.12230992311919,
