sndfile,tempo,cond,delay,trials_practice.thisRepN,trials_practice.thisTrialN,trials_practice.thisN,trials_practice.thisIndex,trials.thisRepN,trials.thisTrialN,trials.thisN,trials.thisIndex,trials_2.thisRepN,trials_2.thisTrialN,trials_2.thisN,trials_2.thisIndex,key_resp_2.keys,key_resp_2.rt,key_resp_4.keys,key_resp_4.rt,key_resp_3.keys,key_resp_3.rt,key_resp_7.keys,key_resp_7.rt,key_resp_9.keys,key_resp_9.rt,key_resp_5.keys,key_resp_5.rt,key_resp_8.keys,key_resp_8.rt,key_resp_10.keys,key_resp_10.rt,key_resp_6.keys,key_resp_6.rt,participant,session,date,expName,psychopyVersion,frameRate,
,,,,,,,,,,,,,,,,space,19.17349837499205,,,,,,,,,,,,,,,,,HH,001,2019_Jul_23_1509,rev-kura_tap_2blocks,3.0.6,59.890161569470905,
./stimuli_1/tmp/medium_110_1.wav,110,medium,1.222685394,0,0,0,4,,,,,,,,,,,"['space', 'space', 'space', 'space', 'space', 'space', 'space', 'space', 'space', 'space', 'space', 'space', 'space', 'space', 'space', 'space', 'space', 'space', 'space', 'space', 'space', 'space', 'space', 'space', 'space', 'space']","[3.487061519990675, 3.7482366350013763, 3.911362166982144, 4.028096241992898, 4.354174630949274, 4.520852503948845, 4.653991766041145, 4.921574353938922, 5.070678830030374, 5.220635970006697, 5.504533038008958, 5.687984592979774, 5.837808814947493, 6.104264262947254, 6.294943613931537, 6.43043311801739, 6.687562947976403, 6.854751072009094, 6.987562446040101, 7.254498017951846, 7.488156190956943, 7.637852874002419, 7.879982918035239, 8.087592517957091, 8.754284032969736, 9.287975545972586]",space,1.2887131709139794,,,,,,,,,,,,,HH,001,2019_Jul_23_1509,rev-kura_tap_2blocks,3.0.6,59.890161569470905,
./stimuli_1/tmp/medium_100_1.wav,100,medium,1.797198505,0,1,1,0,,,,,,,,,,,"['space', 'space', 'space', 'space', 'space', 'space', 'space', 'space', 'space', 'space', 'space', 'space', 'space', 'space', 'space', 'space', 'space', 'space', 'space', 'space', 'space', 'space', 'space', 'space', 'space', 'space', 'space', 'space', 'space']","[3.0970910779433325, 3.312449963996187, 3.684522358002141, 3.936588766053319, 4.121637861942872, 4.338703991030343, 4.654014352010563, 4.83881055098027, 5.040219675051048, 5.323517433018424, 5.5202384679578245, 5.688120290986262, 5.940001638955437, 6.153909845976159, 6.3535990649834275, 6.622378575964831, 6.8377202729461715, 7.037548842956312, 7.270908182952553, 7.463808833970688, 7.647177158971317, 7.880487235030159, 8.097144866012968, 8.304414013051428, 8.536356686032377, 8.747077462030575, 8.946916450047866, 9.14775203098543, 9.364060965017416]",space,1.2431695450795814,,,,,,,,,,,,,HH,001,2019_Jul_23_1509,rev-kura_tap_2blocks,3.0.6,59.890161569470905,
./stimuli_1/tmp/vweak_105_1.wav,105,veryweak,1.91267155,0,2,2,3,,,,,,,,,,,"['space', 'space', 'space', 'space', 'space', 'space', 'space', 'space', 'space', 'space', 'space', 'space', 'space', 'space', 'space', 'space', 'space', 'space', 'space', 'space', 'space', 'space', 'space', 'space', 'space', 'space', 'space', 'space', 'space', 'space', 'space', 'space', 'space', 'space', 'space']","[3.0855086549418047, 3.249924639938399, 3.4525022068992257, 3.6371202629525214, 3.8364077688893303, 3.9854243739973754, 4.168976508895867, 4.353093848912977, 4.53581170598045, 4.740899871918373, 4.910599134978838, 5.0963540049269795, 5.277588158962317, 5.425725959939882, 5.612126858904958, 5.795099409995601, 5.964140828000382, 6.176940573961474, 6.342737565981224, 6.526632386958227, 6.711390046984889, 6.925887142890133, 7.079461305984296, 7.246517538907938, 7.460158499889076, 7.62718726193998, 7.792735424940474, 7.991758851916529, 8.170127269928344, 8.336766537977383, 8.536861754953861, 8.719904857920483, 8.869447503937408, 9.05300759896636, 9.259373572887853]",space,0.9192501839715987,,,,,,,,,,,,,HH,001,2019_Jul_23_1509,rev-kura_tap_2blocks,3.0.6,59.890161569470905,
./stimuli_1/tmp/medium_110_1.wav,110,medium,0.970866786,0,3,3,2,,,,,,,,,,,"['space', 'space', 'space', 'space', 'space', 'space', 'space', 'space', 'space', 'space', 'space', 'space', 'space', 'space', 'space', 'space', 'space', 'space', 'space', 'space', 'space', 'space', 'space', 'space', 'space', 'space', 'space', 'space', 'space', 'space', 'space', 'space', 'space', 'space']","[0.4356020869454369, 3.454497011960484, 3.6704267689492553, 3.853457032935694, 4.021213217987679, 4.170450770994648, 4.3451758628943935, 4.52769781590905, 4.710665306891315, 4.8802325029391795, 5.058026745915413, 5.228749064961448, 5.411299177911133, 5.5785184929845855, 5.811893957899883, 5.977611420908943, 6.1440029359655455, 6.378566798986867, 6.559919599909335, 6.760210649925284, 6.9468157649971545, 7.130987825919874, 7.29639629193116, 7.4810139739420265, 7.642934237956069, 7.762712998897769, 7.927916846936569, 8.081541929976083, 8.228084556991234, 8.394969366956502, 8.53141411091201, 8.814430611906573, 9.14777471893467, 9.31285215599928]",space,1.0185896020848304,,,,,,,,,,,,,HH,001,2019_Jul_23_1509,rev-kura_tap_2blocks,3.0.6,59.890161569470905,
./stimuli_1/tmp/strong_90_1.wav,90,strong,1.013023596,0,4,4,1,,,,,,,,,,,"['space', 'space', 'space', 'space', 'space', 'space', 'space', 'space', 'space', 'space', 'space', 'space', 'space', 'space', 'space', 'space', 'space', 'space', 'space', 'space', 'space', 'space', 'space', 'space', 'space', 'space', 'space', 'space', 'space', 'space', 'space', 'space', 'space', 'space']","[0.5186947060283273, 1.7197806279873475, 1.8530593570321798, 2.3756697750650346, 2.493688354967162, 3.069524329039268, 3.202841061982326, 3.335876111057587, 3.7534669230226427, 3.9291140739805996, 4.028471653000452, 4.4692025519907475, 4.635742463055067, 4.751688043004833, 5.169524058001116, 5.322043718071654, 5.44583113596309, 5.910961176035926, 6.063776002964005, 6.209138605045155, 6.591221102979034, 6.758618329069577, 6.8476663450710475, 7.304266195045784, 7.454705526004545, 7.5701550940284505, 7.987440231023356, 8.153771576005965, 8.28762098099105, 8.721063729026355, 8.879003743990324, 8.996287727029994, 9.421326593030244, 9.571142102009617]",space,1.3882900499738753,,,,,,,,,,,,,HH,001,2019_Jul_23_1509,rev-kura_tap_2blocks,3.0.6,59.890161569470905,
,,,,,,,,,,,,,,,,,,,,,,space,5.6431309500476345,,,,,,,,,,,HH,001,2019_Jul_23_1509,rev-kura_tap_2blocks,3.0.6,59.890161569470905,
./stimuli_1/tmp/weak_105_2.wav,105,weak,2.065051120273794,,,,,0,0,0,48,,,,,,,,,,,,,"['space', 'space', 'space', 'space', 'space', 'space', 'space', 'space', 'space', 'space', 'space', 'space', 'space', 'space', 'space', 'space', 'space', 'space', 'space', 'space', 'space', 'space', 'space', 'space', 'space', 'space', 'space', 'space', 'space', 'space', 'space', 'space', 'space', 'space', 'space', 'space', 'space', 'space', 'space', 'space', 'space', 'space']","[2.4436700099613518, 2.55937728297431, 2.742728555924259, 2.8762441569706425, 3.0437848269939423, 3.2099368310300633, 3.3616524880053475, 3.511937186936848, 3.7866873840102926, 3.9372282900149003, 4.087773897917941, 4.237144985934719, 4.369903180981055, 4.53732628992293, 4.686676322948188, 4.862160239950754, 5.026883358950727, 5.1790908689145, 5.377501487964764, 5.5483672600239515, 5.711551466956735, 5.979186824988574, 6.186863804003224, 6.353095309925266, 6.520645281998441, 6.753556606941856, 6.920647808001377, 7.087937488919124, 7.270631046965718, 7.461830200976692, 7.627711290959269, 7.793550656992011, 7.962370515917428, 8.060190651915036, 8.246302102925256, 8.381082735024393, 8.564474807935767, 8.72826848202385, 8.879679234931245, 9.044348340947181, 9.211222262936644, 9.36165398801677]",space,0.5114064019871876,,,,,,,HH,001,2019_Jul_23_1509,rev-kura_tap_2blocks,3.0.6,59.890161569470905,
./stimuli_1/tmp/strong_110_2.wav,110,strong,1.9369911731854192,,,,,0,1,1,6,,,,,,,,,,,,,"['space', 'space', 'space', 'space', 'space', 'space', 'space', 'space', 'space', 'space', 'space', 'space', 'space', 'space', 'space', 'space', 'space', 'space', 'space', 'space', 'space', 'space', 'space', 'space', 'space', 'space', 'space', 'space', 'space', 'space', 'space', 'space', 'space', 'space', 'space', 'space', 'space', 'space', 'space', 'space', 'space', 'space', 'space', 'space', 'space', 'space', 'space', 'space', 'space', 'space', 'space', 'space', 'space']","[0.7330568470060825, 0.9265122330980375, 1.0953121971106157, 1.2682713241083547, 1.418543167063035, 1.6519961809972301, 1.8351739860372618, 2.1197712880093604, 2.285827837069519, 2.4784745930228382, 2.6119986830744892, 2.7746659260010347, 2.9113385929958895, 3.094368730089627, 3.208620129036717, 3.359566418104805, 3.5122339740628377, 3.679133410099894, 3.825817874050699, 3.944743523024954, 4.127970841014758, 4.29394119605422, 4.442839279072359, 4.579857114003971, 4.743101184023544, 4.896159618045203, 5.012758883996867, 5.244958634022623, 5.429191997041926, 5.576285105082206, 5.794046322000213, 5.9587920140475035, 6.112563100061379, 6.260903112008236, 6.428820304106921, 6.611659710062668, 6.777929203002714, 7.009373189997859, 7.194222777034156, 7.359954114072025, 7.544115249067545, 7.712043998064473, 7.896609052084386, 8.029841683106497, 8.17953161103651, 8.361018584109843, 8.50984427810181, 8.660519594093785, 8.84446133801248, 9.009680745075457, 9.159661222016439, 9.343092829105444, 9.5101071750978]",space,0.7004006180213764,,,,,,,HH,001,2019_Jul_23_1509,rev-kura_tap_2blocks,3.0.6,59.890161569470905,
./stimuli_1/tmp/perfect_105_0.wav,105,perfect,2.376167666662905,,,,,0,2,2,11,,,,,,,,,,,,,"['space', 'space', 'space', 'space', 'space', 'space', 'space', 'space', 'space', 'space', 'space', 'space', 'space']","[1.328504338976927, 1.8625535409664735, 2.418958361959085, 2.9863926749676466, 3.5531749880174175, 4.128334166947752, 4.686796043999493, 8.136276478995569, 8.720727802021429, 9.254135034047067, 9.803826826042496, 10.380409725941718, 10.911631659953855]",space,1.4030058810021728,,,,,,,HH,001,2019_Jul_23_1509,rev-kura_tap_2blocks,3.0.6,59.890161569470905,
./stimuli_1/tmp/perfect_90_0.wav,90,perfect,1.6568604876231643,,,,,0,3,3,35,,,,,,,,,,,,,"['space', 'space', 'space', 'space', 'space', 'space', 'space', 'space', 'space', 'space', 'space', 'space', 'space', 'space', 'space']","[1.429128373041749, 2.055215760017745, 2.6954084070166573, 3.329363883007318, 3.96872170700226, 4.629615755053237, 5.279883814044297, 5.929242686019279, 6.596211686031893, 7.29599794105161, 7.954558146069758, 8.596649695071392, 9.219844981096685, 9.862655034055933, 10.538072265102528]",space,0.14998945291154087,,,,,,,HH,001,2019_Jul_23_1509,rev-kura_tap_2blocks,3.0.6,59.890161569470905,
./stimuli_1/tmp/strong_105_1.wav,105,strong,1.8750845453371756,,,,,0,4,4,25,,,,,,,,,,,,,"['space', 'space', 'space', 'space', 'space', 'space', 'space', 'space', 'space', 'space', 'space', 'space', 'space', 'space', 'space', 'space', 'space', 'space', 'space', 'space', 'space', 'space', 'space', 'space', 'space', 'space', 'space', 'space', 'space', 'space', 'space', 'space', 'space', 'space', 'space', 'space', 'space', 'space', 'space', 'space', 'space', 'space', 'space', 'space', 'space', 'space', 'space', 'space', 'space']","[1.1926224610069767, 1.3689054329879582, 1.5530181559734046, 1.7025577469030395, 1.9024613309884444, 2.0531485179672018, 2.203039760934189, 2.369048820924945, 2.543169023003429, 2.6754437619820237, 2.8433977789245546, 3.012155615957454, 3.163064111955464, 3.3366447729058564, 3.503024168894626, 3.6531162309693173, 3.802892855950631, 4.253225047956221, 4.425332529004663, 4.609020793926902, 4.743082795990631, 4.912221338949166, 5.076610115007497, 5.247088829986751, 5.407296850928105, 5.5364976359996945, 5.703484920901246, 5.869961890974082, 6.019918638980016, 6.203870235942304, 6.370720832957886, 6.547477327985689, 6.710460337926634, 6.870299665955827, 7.037514057941735, 7.203622616943903, 7.38610607793089, 7.537272955989465, 7.687436567968689, 7.869879756006412, 8.027701585902832, 8.16371565090958, 8.313188356929459, 8.510571490973234, 8.645230571972206, 8.828717430005781, 8.963326360913925, 9.112679023994133, 9.270202928921208]",space,2.329347717924975,,,,,,,HH,001,2019_Jul_23_1509,rev-kura_tap_2blocks,3.0.6,59.890161569470905,
./stimuli_1/tmp/medium_110_1.wav,110,medium,1.6223651347148935,,,,,0,5,5,10,,,,,,,,,,,,,"['space', 'space', 'space', 'space', 'space', 'space', 'space', 'space', 'space', 'space', 'space', 'space', 'space', 'space', 'space', 'space', 'space', 'space', 'space', 'space', 'space', 'space', 'space', 'space', 'space', 'space', 'space', 'space', 'space', 'space', 'space', 'space', 'space', 'space', 'space', 'space', 'space', 'space', 'space', 'space', 'space', 'space', 'space', 'space', 'space', 'space', 'space', 'space', 'space', 'space', 'space', 'space', 'space', 'space', 'space', 'space', 'space', 'space', 'space']","[0.45068376301787794, 0.634281971026212, 0.8006560769863427, 1.0506044150097296, 1.2006331250304356, 1.333639435004443, 1.5008881010580808, 1.625978811061941, 1.8081787429982796, 1.9437991740414873, 2.0774354020832106, 2.2410730770789087, 2.3780514440732077, 2.5394898670492694, 2.7082576660905033, 2.8407671810127795, 2.9418343980796635, 3.1084329050499946, 3.2276725430274382, 3.3610761360032484, 3.5257795490324497, 3.691934154019691, 3.793056160095148, 3.9593995910836384, 4.108990580076352, 4.274540351005271, 4.410725451074541, 4.528302920050919, 4.67518884409219, 4.840582320000976, 4.978376397048123, 5.1416143900714815, 5.258112203096971, 5.424641908030026, 5.560231980052777, 5.708411141065881, 5.862301983986981, 6.01882011606358, 6.168850621092133, 6.3012759680859745, 6.45229696505703, 6.619070932036266, 6.768200203077868, 6.935626982012764, 7.068258101004176, 7.202153103076853, 7.368586812051944, 7.501358615001664, 7.793176589068025, 7.943687363062054, 8.085185068077408, 8.252002214081585, 8.419278964982368, 8.552598081994802, 8.702518051024526, 8.869668488041498, 9.035781283047982, 9.168299186043441, 9.352601799066179]",space,0.8037743780296296,,,,,,,HH,001,2019_Jul_23_1509,rev-kura_tap_2blocks,3.0.6,59.890161569470905,
./stimuli_1/tmp/weak_95_1.wav,95,weak,1.9726481258285025,,,,,0,6,6,43,,,,,,,,,,,,,"['space', 'space', 'space', 'space', 'space', 'space', 'space', 'space', 'space', 'space', 'space', 'space', 'space', 'space', 'space', 'space', 'space', 'space', 'space', 'space', 'space', 'space', 'space', 'space', 'space', 'space', 'space', 'space', 'space', 'space', 'space', 'space', 'space', 'space', 'space', 'space', 'space', 'space', 'space', 'space', 'space', 'space', 'space', 'space', 'space', 'space', 'space', 'space', 'space', 'space', 'space', 'space', 'space']","[0.5279212859459221, 0.7268016400048509, 1.0087513260077685, 1.1749098969157785, 1.2921725299675018, 1.625804180977866, 1.7618049059528857, 1.9085022959625348, 2.0283069409197196, 2.212344879982993, 2.3596021760022268, 2.529319630935788, 2.6620718999765813, 2.927329840953462, 3.0758843569783494, 3.2592925949720666, 3.3765961669851094, 3.5299457499058917, 3.6942310369340703, 3.860633810982108, 4.009016298921779, 4.14472472097259, 4.29245656891726, 4.476078719948418, 4.660756181925535, 4.7914170488948, 4.927780046942644, 5.111913153901696, 5.276302762911655, 5.41184459195938, 5.594985951902345, 5.7616169169778, 5.928597275982611, 6.093586721923202, 6.259611525922082, 6.428208029945381, 6.59312529489398, 6.75707418192178, 6.9294349330011755, 7.112253856961615, 7.277768388972618, 7.4452465429203585, 7.62887068989221, 7.795788442948833, 7.960974201909266, 8.096121424925514, 8.29717301193159, 8.460670993896201, 8.645108430995606, 8.763191026984714, 8.978538663941436, 9.14459270099178, 9.310612482950091]",space,1.9700044268975034,,,,,,,HH,001,2019_Jul_23_1509,rev-kura_tap_2blocks,3.0.6,59.890161569470905,
./stimuli_1/tmp/medium_105_2.wav,105,medium,0.8825097572066065,,,,,0,7,7,17,,,,,,,,,,,,,"['space', 'space', 'space', 'space', 'space', 'space', 'space', 'space', 'space', 'space', 'space', 'space', 'space', 'space', 'space', 'space', 'space', 'space', 'space', 'space', 'space', 'space', 'space', 'space', 'space', 'space', 'space', 'space', 'space', 'space', 'space', 'space', 'space', 'space', 'space', 'space', 'space', 'space', 'space', 'space', 'space', 'space', 'space', 'space', 'space', 'space', 'space', 'space', 'space', 'space', 'space']","[1.301113566965796, 1.4690606020158157, 1.6173337990185246, 1.817278095986694, 2.0022673240164295, 2.1587234559701756, 2.319179098936729, 2.468666294007562, 2.6186747530009598, 2.7519431459950283, 2.9017948789987713, 3.0432722580153495, 3.2116758819902316, 3.3605025459546596, 3.4936145410174504, 3.658463642001152, 3.812610719935037, 3.9859203099040315, 4.151749329990707, 4.319472511997446, 4.470506345969625, 4.653164315968752, 4.802668845979497, 4.986364022945054, 5.128862915909849, 5.293554989970289, 5.4609836579766124, 5.610339091974311, 5.777974360971712, 5.974420086946338, 6.1280305639375, 6.326104609994218, 6.495120434905402, 6.659573100972921, 6.841558813001029, 7.001399747910909, 7.169481160002761, 7.319951678975485, 7.504437035997398, 7.686619575950317, 7.835750861908309, 8.019417403964326, 8.17916224594228, 8.353202175931074, 8.535801988909952, 8.703087600995786, 8.886981760966592, 9.069879967952147, 9.236987711978145, 9.403374149929732, 9.570312285912223]",space,1.1969298699405044,,,,,,,HH,001,2019_Jul_23_1509,rev-kura_tap_2blocks,3.0.6,59.890161569470905,
./stimuli_1/tmp/strong_90_2.wav,90,strong,1.29545815814535,,,,,0,8,8,36,,,,,,,,,,,,,"['space', 'space', 'space', 'space', 'space', 'space', 'space', 'space', 'space', 'space', 'space', 'space', 'space', 'space', 'space', 'space', 'space', 'space', 'space', 'space', 'space', 'space', 'space', 'space', 'space', 'space', 'space', 'space', 'space', 'space', 'space', 'space', 'space', 'space', 'space', 'space', 'space', 'space', 'space', 'space', 'space', 'space', 'space', 'space', 'space', 'space']","[1.1599566850345582, 1.5597218420589343, 1.686467268038541, 1.8360574640100822, 2.1861289959633723, 2.320031456067227, 2.4529338610591367, 2.846809712005779, 3.0107037720736116, 3.1295727470424026, 3.2635231480235234, 3.492886560037732, 3.6769304560730234, 3.812955341069028, 3.9615470400312915, 4.127415782073513, 4.263215176062658, 4.444319945061579, 4.59338650398422, 4.776511101052165, 4.961209267028607, 5.128186678979546, 5.245543127995916, 5.477507577976212, 5.645096934051253, 5.8096572840586305, 5.944961033063009, 6.111591043998487, 6.297289713984355, 6.461657440057024, 6.759679474052973, 6.9275571290636435, 7.093349848059006, 7.409735623048618, 7.595002655987628, 7.746346972999163, 7.894422781071626, 8.059860983048566, 8.244437068002298, 8.42883475497365, 8.547545915003866, 8.71318423806224, 8.87714387907181, 9.047131272032857, 9.204214486991987, 9.404086873983033]",space,2.2186505569843575,,,,,,,HH,001,2019_Jul_23_1509,rev-kura_tap_2blocks,3.0.6,59.890161569470905,
./stimuli_1/tmp/vweak_95_1.wav,95,veryweak,2.279644213301781,,,,,0,9,9,24,,,,,,,,,,,,,"['space', 'space', 'space', 'space', 'space', 'space', 'space', 'space', 'space', 'space', 'space', 'space', 'space', 'space', 'space', 'space', 'space', 'space', 'space', 'space', 'space', 'space', 'space', 'space', 'space', 'space', 'space', 'space', 'space', 'space', 'space', 'space', 'space', 'space', 'space', 'space', 'space', 'space', 'space', 'space', 'space', 'space', 'space', 'space', 'space', 'space', 'space', 'space', 'space', 'space']","[0.5026446729898453, 1.125388356973417, 1.285576664027758, 1.452109277015552, 1.6196633270010352, 1.7853618799708784, 1.9367291410453618, 2.118836999987252, 2.2771010900614783, 2.4424869420472533, 2.5585517870495096, 2.7271031310083345, 2.8925308809848502, 3.0592866520164534, 3.194515523966402, 3.3592977130319923, 3.5105343990726396, 3.677291764994152, 3.7960903979837894, 3.962160572060384, 4.1444440899649635, 4.27675368997734, 4.46181265602354, 4.625806274008937, 4.793269323068671, 4.928887713002041, 5.130438355030492, 5.292774918023497, 5.475826014997438, 5.74500245298259, 5.910582890966907, 6.0952729099662974, 6.2605542440433055, 6.426995208021253, 6.611860938020982, 6.776448311051354, 7.025759414071217, 7.213344434974715, 7.37776062800549, 7.542388778994791, 7.678087490960024, 7.8619840369792655, 8.034516306011938, 8.20373309997376, 8.370481090038083, 8.553256970015354, 8.703181079006754, 8.870679107028991, 9.053799716057256, 9.220799244008958]",space,5.47870429395698,,,,,,,HH,001,2019_Jul_23_1509,rev-kura_tap_2blocks,3.0.6,59.890161569470905,
./stimuli_1/tmp/strong_100_2.wav,100,strong,1.5994648074282498,,,,,0,10,10,42,,,,,,,,,,,,,"['space', 'space', 'space', 'space', 'space', 'space', 'space', 'space', 'space', 'space', 'space', 'space', 'space', 'space', 'space', 'space', 'space', 'space', 'space', 'space', 'space', 'space', 'space', 'space', 'space', 'space', 'space', 'space', 'space', 'space', 'space', 'space', 'space', 'space', 'space', 'space', 'space', 'space', 'space', 'space']","[1.3185367319965735, 1.485312024015002, 1.6184952110052109, 1.9022873480571434, 2.0521512740524486, 2.2091333280550316, 2.4465015969472006, 2.6922755610430613, 3.0591780609684065, 3.2121843410423025, 3.3628912080312148, 3.6948338019428775, 3.8436229929793626, 3.978568608057685, 4.30999476602301, 4.4760786970146, 4.593225577962585, 4.86196316301357, 5.025891363970004, 5.180203048046678, 5.493028869037516, 5.636615645023994, 5.803270478034392, 6.169547211960889, 6.3203142889542505, 6.470045838970691, 6.807679146993905, 6.962828875984997, 7.1134094840381294, 7.343810725957155, 7.510730018024333, 7.676606414956041, 7.926553308963776, 8.143808803986758, 8.296572725987062, 8.563602218986489, 8.745000557042658, 8.910516327014193, 9.243996576988138, 9.426147517981008]",space,1.2569928059820086,,,,,,,HH,001,2019_Jul_23_1509,rev-kura_tap_2blocks,3.0.6,59.890161569470905,
./stimuli_1/tmp/strong_105_2.wav,105,strong,0.9615404084728899,,,,,0,11,11,31,,,,,,,,,,,,,"['space', 'space', 'space', 'space', 'space', 'space', 'space', 'space', 'space', 'space', 'space', 'space', 'space', 'space', 'space', 'space', 'space', 'space', 'space', 'space', 'space', 'space', 'space', 'space', 'space', 'space', 'space', 'space', 'space', 'space', 'space', 'space', 'space', 'space', 'space', 'space', 'space', 'space', 'space', 'space', 'space', 'space', 'space', 'space', 'space', 'space']","[1.2186685390770435, 1.3690667510963976, 1.5428206610959023, 1.8277479090029374, 2.0023534731008112, 2.3026639370946214, 2.5017618200508878, 2.6855568260652944, 2.835992534062825, 2.9859801430720836, 3.152258738060482, 3.319116802071221, 3.485624056076631, 3.642521755071357, 3.8113727730233222, 3.9958777400897816, 4.151863516075537, 4.31750158010982, 4.469473146018572, 4.653512941091321, 4.803230771096423, 4.969539036042988, 5.1282686340855435, 5.310647725011222, 5.479415494017303, 5.653426264063455, 5.819496944081038, 6.002200193004683, 6.170289817033336, 6.353381110006012, 6.5360832990845665, 6.71192728204187, 6.893608806072734, 7.0467815530719236, 7.229904511012137, 7.37653929903172, 7.645797674078494, 7.82805112702772, 7.994080470059998, 8.161010937066749, 8.326993926079012, 8.513369802036323, 8.69542183703743, 8.998230869066902, 9.193751278100535, 9.378578250994906]",space,1.3061137809418142,,,,,,,HH,001,2019_Jul_23_1509,rev-kura_tap_2blocks,3.0.6,59.890161569470905,
./stimuli_1/tmp/medium_105_1.wav,105,medium,1.6663985327680324,,,,,0,12,12,21,,,,,,,,,,,,,"['space', 'space', 'space', 'space', 'space', 'space', 'space', 'space', 'space', 'space', 'space', 'space', 'space', 'space', 'space', 'space', 'space', 'space', 'space', 'space', 'space', 'space', 'space', 'space', 'space', 'space', 'space', 'space', 'space', 'space', 'space', 'space', 'space', 'space', 'space', 'space', 'space', 'space', 'space', 'space', 'space', 'space', 'space', 'space', 'space', 'space', 'space', 'space', 'space', 'space', 'space', 'space']","[0.9191686779959127, 1.0854816880309954, 1.2434546360746026, 1.3931321870768443, 1.592249208013527, 1.7284166550962254, 1.885991379036568, 2.052617438021116, 2.1850632911082357, 2.336633741040714, 2.5026424310635775, 2.6700265860417858, 2.820600245031528, 3.0026769920950755, 3.1597098800120875, 3.342644346994348, 3.5123781739966944, 3.693695006077178, 3.859222691040486, 4.012403773027472, 4.193657465046272, 4.329312875051983, 4.511703362106346, 4.6770043150754645, 4.845906884060241, 5.00999175501056, 5.1816654989961535, 5.3304555820068344, 5.507522635045461, 5.643151333089918, 5.812686615041457, 5.994265086017549, 6.159428940038197, 6.32775296701584, 6.511585231055506, 6.677045971038751, 6.844837152049877, 7.011395740089938, 7.160119944019243, 7.343473497079685, 7.526520209037699, 7.670284683001228, 7.836281926021911, 8.020811176043935, 8.186880155000836, 8.353776312083937, 8.520336653105915, 8.694204725092277, 8.879908311995678, 9.046604336006567, 9.226871923077852, 9.404788122046739]",space,7.096917058923282,,,,,,,HH,001,2019_Jul_23_1509,rev-kura_tap_2blocks,3.0.6,59.890161569470905,
./stimuli_1/tmp/perfect_90_1.wav,90,perfect,0.8790589196072783,,,,,0,13,13,39,,,,,,,,,,,,,"['space', 'space', 'space', 'space', 'space', 'space', 'space', 'space', 'space', 'space']","[1.286701339064166, 1.9795221390668303, 2.643821280100383, 3.2765382590005174, 3.9469953830121085, 4.644372393027879, 5.311886909068562, 5.953987770015374, 6.62053905101493, 10.880888821091503]",space,0.4705378939397633,,,,,,,HH,001,2019_Jul_23_1509,rev-kura_tap_2blocks,3.0.6,59.890161569470905,
./stimuli_1/tmp/medium_100_1.wav,100,medium,0.9469441789171564,,,,,0,14,14,47,,,,,,,,,,,,,"['space', 'space', 'space', 'space', 'space', 'space', 'space', 'space', 'space', 'space', 'space', 'space', 'space', 'space', 'space', 'space', 'space', 'space', 'space', 'space', 'space', 'space', 'space', 'space', 'space', 'space', 'space', 'space', 'space', 'space', 'space', 'space', 'space', 'space', 'space', 'space', 'space', 'space', 'space', 'space', 'space', 'space', 'space', 'space', 'space', 'space', 'space', 'space', 'space', 'space']","[1.210930024040863, 1.3757033420260996, 1.528013336006552, 1.7107330770231783, 1.8598333440022543, 2.0195709409890696, 2.1520808349596336, 2.318959024036303, 2.4856819809647277, 2.618753068963997, 2.7691671249922365, 2.99264522199519, 3.1623010149924085, 3.309432139969431, 3.42578918999061, 3.6260099610080943, 3.7951661059632897, 3.9530762810027227, 4.1017727790167555, 4.252699531964026, 4.42021323996596, 4.585484019014984, 4.750691878958605, 4.911729044979438, 5.074991993024014, 5.259234193013981, 5.412021527066827, 5.573988697025925, 5.745115146972239, 5.911578636965714, 6.07623299502302, 6.229695832007565, 6.393164561013691, 6.553325918968767, 6.719926908030175, 6.854062010068446, 7.019323209067807, 7.186310847988352, 7.335976302041672, 7.626981751061976, 7.793171385070309, 7.929718103026971, 8.045045664068311, 8.227919745026156, 8.410002997959964, 8.571055197971873, 8.734747183974832, 8.920064687961712, 9.10453252797015, 9.253240737016313]",space,2.0500002960907295,,,,,,,HH,001,2019_Jul_23_1509,rev-kura_tap_2blocks,3.0.6,59.890161569470905,
./stimuli_1/tmp/perfect_110_1.wav,110,perfect,1.7704271467992068,,,,,0,15,15,18,,,,,,,,,,,,,"['space', 'space', 'space', 'space', 'space', 'space', 'space', 'space', 'space']","[1.210212083067745, 1.669760188087821, 2.2044379310682416, 2.6971051620785147, 3.253043533070013, 3.795625187107362, 4.386809422052465, 9.361800812999718, 10.597560806083493]",space,0.16707805101759732,,,,,,,HH,001,2019_Jul_23_1509,rev-kura_tap_2blocks,3.0.6,59.890161569470905,
./stimuli_1/tmp/medium_110_2.wav,110,medium,1.962096670593472,,,,,0,16,16,12,,,,,,,,,,,,,"['space', 'space', 'space', 'space', 'space', 'space', 'space', 'space', 'space', 'space', 'space', 'space', 'space', 'space', 'space', 'space', 'space', 'space', 'space', 'space', 'space', 'space', 'space', 'space', 'space', 'space', 'space', 'space', 'space', 'space', 'space', 'space', 'space', 'space', 'space', 'space', 'space', 'space', 'space', 'space', 'space', 'space', 'space', 'space', 'space', 'space', 'space', 'space', 'space', 'space', 'space']","[0.9531762509141117, 1.1193612549686804, 1.2860380449565127, 1.469191288924776, 1.6576824429212138, 1.8347824499942362, 2.0030790868913755, 2.1528217409504578, 2.3372112119104713, 2.4860669889021665, 2.659776322892867, 2.8287220309721306, 2.977355030947365, 3.1369994819397107, 3.3038292879937217, 3.486536214943044, 3.6695454058935866, 3.869487407966517, 4.0509865179192275, 4.212301507941447, 4.379669283982366, 4.594537686905824, 4.743568159989081, 4.927740378887393, 5.112255016923882, 5.2945486379321665, 5.444355634972453, 5.627424620906822, 5.803490833961405, 5.971103153889999, 6.153992072911933, 6.320416143978946, 6.487148845917545, 6.68820772098843, 6.853217847994529, 7.034991474938579, 7.186697435914539, 7.3378963159630075, 7.52140356390737, 7.697336775949225, 7.879110682988539, 8.07719800597988, 8.228130559902638, 8.424983140896074, 8.588009898900054, 8.738126254989766, 8.906241447897628, 9.037310880958103, 9.204665043973364, 9.372139023966156, 9.520964219933376]",space,2.7248346460983157,,,,,,,HH,001,2019_Jul_23_1509,rev-kura_tap_2blocks,3.0.6,59.890161569470905,
./stimuli_1/tmp/weak_110_2.wav,110,weak,1.1450489585925383,,,,,0,17,17,0,,,,,,,,,,,,,"['space', 'space', 'space', 'space', 'space', 'space', 'space', 'space', 'space', 'space', 'space', 'space', 'space', 'space', 'space', 'space', 'space', 'space', 'space', 'space', 'space', 'space', 'space', 'space', 'space', 'space', 'space', 'space', 'space', 'space', 'space', 'space', 'space', 'space', 'space', 'space', 'space', 'space', 'space', 'space', 'space', 'space', 'space', 'space', 'space', 'space', 'space', 'space', 'space', 'space', 'space', 'space', 'space', 'space', 'space', 'space', 'space']","[0.5022999070351943, 0.8358756899833679, 1.0028825959889218, 1.1525489470222965, 1.3119392299558967, 1.4606051939772442, 1.6414696970023215, 1.7766310829902068, 1.9273471230408177, 2.045364239020273, 2.2278185839531943, 2.3633033100049943, 2.5299229830270633, 2.688241799012758, 2.835977563052438, 2.9695845779497176, 3.1030466200318187, 3.25079881795682, 3.4057334690587595, 3.553055690950714, 3.670360706979409, 3.828744785976596, 3.96124040405266, 4.13015496195294, 4.271137075964361, 4.420697964960709, 4.602487873053178, 4.786467888043262, 4.9539197540143505, 5.13665422599297, 5.288777420995757, 5.492047196952626, 5.635177016956732, 5.754743983969092, 5.9034445530269295, 6.054909997037612, 6.18622500996571, 6.363290925044566, 6.529945363057777, 6.687959686969407, 6.821242328034714, 6.971815139055252, 7.120130470953882, 7.2703989000292495, 7.435879896976985, 7.603721452993341, 7.786588112008758, 7.954876246047206, 8.220237159985118, 8.380092964041978, 8.510755477007478, 8.672407275997102, 8.787301197997294, 8.971240545040928, 9.120190873974934, 9.270938414032571, 9.429277915041894]",space,8.030485232011415,,,,,,,HH,001,2019_Jul_23_1509,rev-kura_tap_2blocks,3.0.6,59.890161569470905,
./stimuli_1/tmp/weak_100_1.wav,100,weak,0.9200911357943652,,,,,0,18,18,15,,,,,,,,,,,,,"['space', 'space', 'space', 'space', 'space', 'space', 'space', 'space', 'space', 'space', 'space', 'space', 'space', 'space', 'space', 'space', 'space', 'space', 'space', 'space', 'space', 'space', 'space', 'space', 'space', 'space', 'space', 'space', 'space', 'space', 'space', 'space', 'space', 'space', 'space', 'space', 'space', 'space', 'space', 'space', 'space', 'space', 'space', 'space', 'space', 'space', 'space']","[1.0355719099752605, 1.2219841070473194, 1.3861102289520204, 1.5276763490401208, 1.7705845669843256, 1.953342444030568, 2.1040049920557067, 2.3034004600485787, 2.4673789619700983, 2.637420471990481, 2.7876411400502548, 2.9718451419612393, 3.1362818899797276, 3.3030735260108486, 3.493488774052821, 3.6770679920446128, 3.844522755010985, 3.9938489469932392, 4.160088174045086, 4.361107576987706, 4.528864688007161, 4.695869385031983, 4.8799775099614635, 5.091656752047129, 5.2703578639775515, 5.434853547019884, 5.603375229053199, 5.9880469819763675, 6.1541555089643225, 6.30515845795162, 6.510975437005982, 6.679441089043394, 6.8300622729584575, 7.00845633703284, 7.211425720015541, 7.379325067042373, 7.54431474104058, 7.660664789029397, 7.843725022976287, 8.029243065044284, 8.17763044196181, 8.34510238096118, 8.529513093992136, 8.721230983966962, 8.888367995037697, 9.088640916976146, 9.272118348046206]",space,1.6684990340145305,,,,,,,HH,001,2019_Jul_23_1509,rev-kura_tap_2blocks,3.0.6,59.890161569470905,
./stimuli_1/tmp/medium_90_2.wav,90,medium,2.1384331573709567,,,,,0,19,19,46,,,,,,,,,,,,,"['space', 'space', 'space', 'space', 'space', 'space', 'space', 'space', 'space', 'space', 'space', 'space', 'space', 'space', 'space', 'space', 'space', 'space', 'space', 'space', 'space', 'space', 'space', 'space', 'space', 'space', 'space', 'space', 'space', 'space', 'space', 'space', 'space', 'space', 'space', 'space', 'space', 'space', 'space', 'space', 'space', 'space', 'space', 'space', 'space', 'space', 'space', 'space', 'space', 'space', 'space']","[0.5023309870157391, 0.6920520039275289, 0.8734722849912941, 1.0270849600201473, 1.2099459349410608, 1.3743119610007852, 1.510546969017014, 1.7121947800042108, 1.9030902159865946, 2.0678538739448413, 2.2849341919645667, 2.5030236509628594, 2.684361781924963, 2.817773781949654, 3.0514233339345083, 3.2274621749529615, 3.407376108923927, 3.575752920936793, 3.7445307299494743, 3.9349245859775692, 4.085830811993219, 4.269192759995349, 4.434305237955414, 4.62012859294191, 4.823272078996524, 4.9611912809778005, 5.191358348005451, 5.3749706170056015, 5.559111183974892, 5.708073592977598, 5.891823807032779, 6.075466836919077, 6.261371045955457, 6.442013331921771, 6.601849419996142, 6.786408161977306, 6.969620332005434, 7.151415309985168, 7.335270319948904, 7.518373733968474, 7.686138795921579, 7.860324484994635, 8.043864747975022, 8.225500709959306, 8.395129280979745, 8.587319326936267, 8.77068983099889, 8.970448373002, 9.151336373994127, 9.366872372920625, 9.554157185018994]",space,1.5859081540256739,,,,,,,HH,001,2019_Jul_23_1509,rev-kura_tap_2blocks,3.0.6,59.890161569470905,
./stimuli_1/tmp/weak_105_1.wav,105,weak,2.3476680969619683,,,,,0,20,20,45,,,,,,,,,,,,,"['space', 'space', 'space', 'space', 'space', 'space', 'space', 'space', 'space', 'space', 'space', 'space', 'space', 'space', 'space', 'space', 'space', 'space', 'space', 'space', 'space', 'space', 'space', 'space', 'space', 'space', 'space', 'space', 'space', 'space', 'space', 'space', 'space', 'space', 'space', 'space', 'space', 'space', 'space', 'space', 'space', 'space', 'space', 'space', 'space', 'space', 'space', 'space', 'space', 'space', 'space', 'space', 'space', 'space', 'space']","[0.45796422800049186, 0.6350181569578126, 0.8026272089919075, 0.9833492079051211, 1.1509758279426023, 1.3193560689687729, 1.5009401759598404, 1.6695434029679745, 1.8679379089735448, 2.0352628419641405, 2.2197266559815034, 2.3916834659175947, 2.559261101996526, 2.727868255926296, 2.904619696899317, 3.0868953729514033, 3.2702405829913914, 3.4521010329481214, 3.6370069049298763, 3.7857135529629886, 3.96234155097045, 4.141287450911477, 4.258971093920991, 4.4115488099632785, 4.5754241499817, 4.734715388971381, 4.8869525929912925, 5.037905901903287, 5.135067978990264, 5.286884522996843, 5.45356405293569, 5.602914563962258, 5.753343209973536, 5.946696997969411, 6.109416724997573, 6.245338218985125, 6.3951384159736335, 6.577875249902718, 6.734680502908304, 6.901366842910647, 7.036671020905487, 7.2012552979867905, 7.350152242928743, 7.504306053975597, 7.654027155949734, 7.820046811946668, 7.995470895897597, 8.169571965932846, 8.35070294700563, 8.518223713967018, 8.718500467948616, 8.903896196978167, 9.069561745971441, 9.271239923895337, 9.444533814908937]",space,0.7494520919863135,,,,,,,HH,001,2019_Jul_23_1509,rev-kura_tap_2blocks,3.0.6,59.890161569470905,
./stimuli_1/tmp/strong_110_1.wav,110,strong,2.342405954917332,,,,,0,21,21,8,,,,,,,,,,,,,"['space', 'space', 'space', 'space', 'space', 'space', 'space', 'space', 'space', 'space', 'space', 'space', 'space', 'space', 'space', 'space', 'space', 'space', 'space', 'space', 'space', 'space', 'space', 'space', 'space', 'space', 'space', 'space', 'space', 'space', 'space', 'space', 'space', 'space', 'space', 'space', 'space', 'space', 'space', 'space', 'space', 'space', 'space', 'space', 'space', 'space', 'space', 'space', 'space']","[1.1692152520408854, 1.292488722014241, 1.426558424020186, 1.6762466590153053, 1.8357179489685223, 1.9692709560040385, 2.086646978976205, 2.270080729969777, 2.4362052900251, 2.6021457409951836, 2.7700770309893414, 2.946243111975491, 3.1097016910789534, 3.2292635190533474, 3.4090334810316563, 3.553472068044357, 3.7194576900219545, 3.888372975983657, 4.05333054298535, 4.204316591029055, 4.354698057053611, 4.554565589991398, 4.73833723703865, 4.894118744996376, 5.090805195039138, 5.246150676975958, 5.404683982022107, 5.588488059001975, 5.803553455043584, 5.986058740061708, 6.121916866977699, 6.309971890994348, 6.479719615075737, 6.659820541040972, 6.846502118045464, 7.038621720974334, 7.188088873052038, 7.421013248967938, 7.5883218890521675, 7.739167500985786, 7.9609253680100664, 8.110507165081799, 8.279355337028392, 8.511830494971946, 8.67102078604512, 8.838706378010102, 9.08885044103954, 9.288971378002316, 9.455693276016973]",space,0.9078633129829541,,,,,,,HH,001,2019_Jul_23_1509,rev-kura_tap_2blocks,3.0.6,59.890161569470905,
./stimuli_1/tmp/weak_95_2.wav,95,weak,1.3391653351857111,,,,,0,22,22,38,,,,,,,,,,,,,"['space', 'space', 'space', 'space', 'space', 'space', 'space', 'space', 'space', 'space', 'space', 'space', 'space', 'space', 'space', 'space', 'space', 'space', 'space', 'space', 'space', 'space', 'space', 'space', 'space', 'space', 'space', 'space', 'space', 'space', 'space', 'space', 'space', 'space', 'space', 'space', 'space', 'space', 'space', 'space', 'space', 'space', 'space', 'space', 'space', 'space', 'space', 'space', 'space', 'space', 'space']","[0.5175953899743035, 0.6836748999776319, 0.852193575934507, 1.0185562400147319, 1.1863439140142873, 1.3531999419210479, 1.5177175039425492, 1.6841945759952068, 1.8680180609226227, 2.0366887400159612, 2.208218192914501, 2.3585358769632876, 2.5272250429261476, 2.7271391479298472, 2.90657123492565, 3.0686947050271556, 3.236366442986764, 3.4197335259523243, 3.6035503449384123, 3.78557370393537, 3.953337364946492, 4.143010196974501, 4.310550336027518, 4.511439217953011, 4.70267316699028, 4.884952700929716, 5.053617228986695, 5.236859311000444, 5.43685671093408, 5.622932130936533, 5.8129193829372525, 5.985622260952368, 6.170665793935768, 6.353995629935525, 6.537141699925996, 6.724833772983402, 6.892977357027121, 7.0757622480159625, 7.269725535996258, 7.453755039954558, 7.635793978930451, 7.837131147971377, 8.004114714916795, 8.177042500930838, 8.395249119959772, 8.587274506920949, 8.752594582969323, 8.92166500899475, 9.119733358966187, 9.303614320931956, 9.486134261940606]",space,0.8100984819466248,,,,,,,HH,001,2019_Jul_23_1509,rev-kura_tap_2blocks,3.0.6,59.890161569470905,
./stimuli_1/tmp/weak_100_2.wav,100,weak,0.9744812486321696,,,,,0,23,23,20,,,,,,,,,,,,,"['space', 'space', 'space', 'space', 'space', 'space', 'space', 'space', 'space', 'space', 'space', 'space', 'space', 'space', 'space', 'space', 'space', 'space', 'space', 'space', 'space', 'space', 'space', 'space', 'space', 'space', 'space', 'space', 'space', 'space', 'space', 'space', 'space', 'space', 'space', 'space', 'space', 'space', 'space', 'space', 'space', 'space', 'space', 'space', 'space', 'space', 'space', 'space', 'space']","[0.5199828820768744, 0.6693636639975011, 0.8586132290074602, 1.05661891202908, 1.2121470600832254, 1.3873473909916356, 1.5713390670716763, 1.7208055430091918, 1.8875035080127418, 2.0366688889916986, 2.2026644800789654, 2.376495740027167, 2.5428146640770137, 2.7265604910207912, 2.86193415208254, 3.0625492440303788, 3.22130089008715, 3.4029929460957646, 3.570927391992882, 3.7707581460708752, 3.937252735020593, 4.119519215077162, 4.304727005073801, 4.511210524011403, 4.710373479989357, 4.909274696023203, 5.071008999017067, 5.271401842008345, 5.455163344042376, 5.6877837660722435, 5.871466665063053, 6.071869152016006, 6.2545814390759915, 6.45796023006551, 6.635650176089257, 6.8210609660018235, 7.002715678070672, 7.219312497065403, 7.419439558056183, 7.605100564076565, 7.8051265550311655, 8.045010062051006, 8.221129307989031, 8.371336566051468, 8.704423858085647, 8.85512981400825, 9.019503616029397, 9.171411005081609, 9.38873602100648]",space,8.234188015921973,,,,,,,HH,001,2019_Jul_23_1509,rev-kura_tap_2blocks,3.0.6,59.890161569470905,
./stimuli_1/tmp/vweak_110_1.wav,110,veryweak,1.3407186132175697,,,,,0,24,24,32,,,,,,,,,,,,,"['space', 'space', 'space', 'space', 'space', 'space', 'space', 'space', 'space', 'space', 'space', 'space', 'space', 'space', 'space', 'space', 'space', 'space', 'space', 'space', 'space', 'space', 'space', 'space', 'space', 'space', 'space', 'space', 'space', 'space', 'space', 'space', 'space', 'space', 'space', 'space', 'space', 'space', 'space', 'space', 'space', 'space', 'space', 'space', 'space', 'space', 'space', 'space', 'space', 'space', 'space', 'space', 'space', 'space', 'space']","[0.7465372720034793, 0.8967396270018071, 1.0469068130478263, 1.2112207389436662, 1.3634483310161158, 1.5023727479856461, 1.66980070900172, 1.835290150018409, 1.985132960951887, 2.1349038099870086, 2.322404647944495, 2.4848635640228167, 2.649747609044425, 2.7860987660242245, 2.968472338048741, 3.1205360050080344, 3.2710716689471155, 3.430425756960176, 3.595013080048375, 3.7637551929801702, 3.913573023979552, 4.080687167006545, 4.2309873580234125, 4.396943390951492, 4.5683949559461325, 4.696003730990924, 4.8643698720261455, 5.02973898104392, 5.212752633029595, 5.397225274005905, 5.55525439302437, 5.728722954983823, 5.895958050037734, 6.048050135024823, 6.21245710994117, 6.380052641034126, 6.547672601998784, 6.697990045999177, 6.846879124990664, 6.997583260992542, 7.164159951033071, 7.314016156014986, 7.506220079958439, 7.664561341982335, 7.830050413031131, 7.997489360976033, 8.163833440979943, 8.314719195012003, 8.47263912204653, 8.622548872954212, 8.779343124944717, 8.948185810935684, 9.11461661895737, 9.280912876012735, 9.464969113003463]",space,2.7672437709989026,,,,,,,HH,001,2019_Jul_23_1509,rev-kura_tap_2blocks,3.0.6,59.890161569470905,
./stimuli_1/tmp/medium_95_1.wav,95,medium,1.3706215803300168,,,,,0,25,25,19,,,,,,,,,,,,,"['space', 'space', 'space', 'space', 'space', 'space', 'space', 'space', 'space', 'space', 'space', 'space', 'space', 'space', 'space', 'space', 'space', 'space', 'space', 'space', 'space', 'space', 'space', 'space', 'space', 'space', 'space', 'space', 'space', 'space', 'space', 'space', 'space', 'space', 'space', 'space', 'space', 'space', 'space', 'space', 'space', 'space', 'space', 'space', 'space', 'space', 'space', 'space', 'space', 'space']","[0.6529854510445148, 0.8031226770253852, 0.9697416289709508, 1.1354159989859909, 1.2870066280011088, 1.4856006470508873, 1.6369198260363191, 1.80295959697105, 1.9893833979731426, 2.1613025160040706, 2.319286048063077, 2.5032708439975977, 2.669241726049222, 2.8530338880373165, 3.003811207949184, 3.184182067052461, 3.357217101030983, 3.526512306998484, 3.6923209129599854, 3.8912413810612634, 4.075546081061475, 4.242173879989423, 4.419884760049172, 4.603132490999997, 4.802743096021004, 4.954440583009273, 5.136200972017832, 5.319294137996621, 5.554315823013894, 5.702686771983281, 5.903230807976797, 6.069916196982376, 6.270598737988621, 6.436689288006164, 6.621402516961098, 6.803928851033561, 6.992006707005203, 7.175591388950124, 7.351908011012711, 7.536745941033587, 7.7184591830009595, 7.903586552012712, 8.070909684058279, 8.254602471948601, 8.427823620964773, 8.625163060962223, 8.786289928015321, 8.970675021992065, 9.135532440966927, 9.319271650048904]",space,2.802716912003234,,,,,,,HH,001,2019_Jul_23_1509,rev-kura_tap_2blocks,3.0.6,59.890161569470905,
./stimuli_1/tmp/vweak_90_2.wav,90,veryweak,1.0044987578235975,,,,,0,26,26,40,,,,,,,,,,,,,"['space', 'space', 'space', 'space', 'space', 'space', 'space', 'space', 'space', 'space', 'space', 'space', 'space', 'space', 'space', 'space', 'space', 'space', 'space', 'space', 'space', 'space', 'space', 'space', 'space', 'space', 'space', 'space', 'space', 'space', 'space', 'space', 'space', 'space', 'space', 'space', 'space', 'space', 'space', 'space', 'space', 'space', 'space', 'space', 'space', 'space', 'space', 'space', 'space', 'space']","[0.9688191519817337, 1.1672042059944943, 1.319374460959807, 1.4690232129069045, 1.6421669949777424, 1.8355191448936239, 2.0021329999435693, 2.1517235569190234, 2.3188460409874097, 2.486246078973636, 2.634935642941855, 2.784914782969281, 2.9667530589504167, 3.1248348059598356, 3.2747139579150826, 3.419014821993187, 3.5839822039706632, 3.75324077391997, 3.919161172932945, 4.085499537992291, 4.242122138966806, 4.409798084991053, 4.586263116914779, 4.735605452908203, 4.902686049928889, 5.086911024991423, 5.2863297269213945, 5.453063812921755, 5.619874073890969, 5.803297267993912, 5.985954880947247, 6.179029219900258, 6.35307108098641, 6.535399676999077, 6.718772113905288, 6.886933710891753, 7.036964922910556, 7.225069870939478, 7.409598191967234, 7.593991020927206, 7.753076330991462, 7.937346689985134, 8.10304113291204, 8.253575407899916, 8.420395295950584, 8.642351166927256, 8.811170179978944, 8.99357860989403, 9.172389749903232, 9.337805463932455]",space,2.76962685410399,,,,,,,HH,001,2019_Jul_23_1509,rev-kura_tap_2blocks,3.0.6,59.890161569470905,
./stimuli_1/tmp/perfect_105_1.wav,105,perfect,1.612711409659772,,,,,0,27,27,13,,,,,,,,,,,,,"['space', 'space', 'space', 'space', 'space', 'space', 'space', 'space']","[0.9608640600927174, 1.3521483320510015, 1.8856573440134525, 2.4265417620772496, 3.0040076459990814, 3.5709521190728992, 4.142913814052008, 4.717695445055142]",space,4.35364212107379,,,,,,,HH,001,2019_Jul_23_1509,rev-kura_tap_2blocks,3.0.6,59.890161569470905,
./stimuli_1/tmp/medium_90_1.wav,90,medium,1.3827594725962091,,,,,0,28,28,49,,,,,,,,,,,,,"['space', 'space', 'space', 'space', 'space', 'space', 'space', 'space', 'space', 'space', 'space', 'space', 'space', 'space', 'space', 'space', 'space', 'space', 'space', 'space', 'space', 'space', 'space', 'space', 'space', 'space', 'space', 'space', 'space', 'space', 'space', 'space', 'space', 'space', 'space', 'space', 'space', 'space', 'space', 'space', 'space', 'space', 'space', 'space', 'space']","[1.2758269619662315, 1.4192282549338415, 1.5701441150158644, 1.7198150790063664, 2.1191246109083295, 2.2527143019251525, 2.3855693269288167, 2.5213376879692078, 2.8367437249980867, 2.9700331219937652, 3.102305965963751, 3.4199649629881606, 3.5688876929925755, 3.7195311170071363, 3.869779435917735, 4.085880010970868, 4.2279974959092215, 4.370680387946777, 4.503113423008472, 4.871304648928344, 5.003549579996616, 5.136555703938939, 5.270558607997373, 5.570078035932966, 5.703324000933208, 5.836468927911483, 5.969468650990166, 6.354350103996694, 6.486436553997919, 6.587051954003982, 6.952845616964623, 7.118497546995059, 7.254422910977155, 7.387266024015844, 7.829096635919996, 7.9707013219594955, 8.103849875973538, 8.301112519926392, 8.521400201949291, 8.653776046005078, 8.804595560999587, 9.176054510986432, 9.326014146907255, 9.404885722906329, 9.637770014931448]",space,1.1702930490719154,,,,,,,HH,001,2019_Jul_23_1509,rev-kura_tap_2blocks,3.0.6,59.890161569470905,
./stimuli_1/tmp/vweak_95_2.wav,95,veryweak,1.1399322262275913,,,,,0,29,29,30,,,,,,,,,,,,,"['space', 'space', 'space', 'space', 'space', 'space', 'space', 'space', 'space', 'space', 'space', 'space', 'space', 'space', 'space', 'space', 'space', 'space', 'space', 'space', 'space', 'space', 'space', 'space', 'space', 'space', 'space', 'space', 'space', 'space', 'space', 'space', 'space', 'space', 'space', 'space', 'space', 'space', 'space', 'space', 'space', 'space', 'space', 'space', 'space', 'space', 'space', 'space', 'space']","[1.2528403060277924, 1.4435324900550768, 1.586840252042748, 1.8534237140556797, 2.019612006028183, 2.152313253027387, 2.286510808044113, 2.4866717910626903, 2.653864052030258, 2.8031453680014238, 3.0096584850689396, 3.174960732110776, 3.3366253460990265, 3.4700991821009666, 3.6863795610843226, 3.8365025230450556, 4.002302784007043, 4.170148456003517, 4.352806363021955, 4.5212543670786545, 4.670293811010197, 4.837751712067984, 5.026823617052287, 5.203430201043375, 5.370572075014934, 5.569665526039898, 5.768319785012864, 5.937246000044979, 6.103721553110518, 6.286886095069349, 6.44248912204057, 6.602900398080237, 6.8030450930818915, 6.970552641083486, 7.136647193110548, 7.287386032054201, 7.4704091370804235, 7.63694794010371, 7.803980522090569, 7.958456645021215, 8.154118649079464, 8.336663784109987, 8.503846047096886, 8.68741057801526, 8.872204677085392, 9.043801979045384, 9.187808653106913, 9.368930620024912, 9.552290242048912]",space,1.768519444973208,,,,,,,HH,001,2019_Jul_23_1509,rev-kura_tap_2blocks,3.0.6,59.890161569470905,
./stimuli_1/tmp/vweak_100_1.wav,100,veryweak,1.441965324529146,,,,,0,30,30,4,,,,,,,,,,,,,"['space', 'space', 'space', 'space', 'space', 'space', 'space', 'space', 'space', 'space', 'space', 'space', 'space', 'space', 'space', 'space', 'space', 'space', 'space', 'space', 'space', 'space', 'space', 'space', 'space', 'space', 'space', 'space', 'space', 'space', 'space', 'space', 'space', 'space', 'space', 'space', 'space', 'space', 'space', 'space', 'space', 'space', 'space', 'space', 'space', 'space', 'space', 'space', 'space', 'space', 'space', 'space', 'space', 'space', 'space', 'space', 'space']","[0.4698748330119997, 0.6205447500105947, 0.7898173580178991, 0.9561514559900388, 1.1012442860519513, 1.236407630960457, 1.4031587559729815, 1.5366548469755799, 1.68662342405878, 1.8202667490113527, 1.9538357850397006, 2.1040787489619106, 2.2418917829636484, 2.3949094680137932, 2.569952644989826, 2.7367014789488167, 2.903854785952717, 3.054251966997981, 3.1871757289627567, 3.3535976329585537, 3.538246151059866, 3.7037820640252903, 3.860256280982867, 4.027413362986408, 4.177349650999531, 4.341733393026516, 4.587314930045977, 4.753744816989638, 4.920888868975453, 5.085583626991138, 5.237836283980869, 5.409185398952104, 5.543502148007974, 5.712850735057145, 5.86328844295349, 6.021445863996632, 6.187921345001087, 6.353990586008877, 6.520779195008799, 6.685715539962985, 6.820602169027552, 6.987872282043099, 7.154890840058215, 7.311725344043225, 7.479705350007862, 7.654319925000891, 7.821339815971442, 7.988483391003683, 8.171422219020315, 8.321215598960407, 8.503727309056558, 8.687540185055695, 8.86932717799209, 9.038042937056161, 9.221023821970448, 9.376293780980632, 9.561241046059877]",space,1.203125888016075,,,,,,,HH,001,2019_Jul_23_1509,rev-kura_tap_2blocks,3.0.6,59.890161569470905,
./stimuli_1/tmp/weak_90_2.wav,90,weak,2.0384375203910188,,,,,0,31,31,23,,,,,,,,,,,,,"['space', 'space', 'space', 'space', 'space', 'space', 'space', 'space', 'space', 'space', 'space', 'space', 'space', 'space', 'space', 'space', 'space', 'space', 'space', 'space', 'space', 'space', 'space', 'space', 'space', 'space', 'space', 'space', 'space', 'space', 'space', 'space', 'space', 'space', 'space', 'space', 'space', 'space', 'space', 'space', 'space', 'space', 'space', 'space', 'space', 'space', 'space', 'space', 'space']","[0.8189784360583872, 0.9866405839566141, 1.15326004603412, 1.3365490379510447, 1.469712077989243, 1.7689977900590748, 1.9366526500089094, 2.0857826770516112, 2.269403610029258, 2.4367397830355912, 2.619612143957056, 2.784869894036092, 2.985670860041864, 3.1437536410521716, 3.2930859660264105, 3.4539997449610382, 3.670451172045432, 3.85306675999891, 4.019867924042046, 4.187864582054317, 4.3868987610330805, 4.552779025048949, 4.720290501019917, 5.019987727049738, 5.193270883988589, 5.344775261008181, 5.495984537061304, 5.645247205044143, 5.803542766952887, 5.97049199603498, 6.1542416559532285, 6.320789318997413, 6.4871547520160675, 6.654089919989929, 6.819937187014148, 7.00408924696967, 7.179929867037572, 7.33664484298788, 7.50432963098865, 7.687422118964605, 7.869908749009483, 8.037738276994787, 8.2123721659882, 8.387317560962401, 8.570511998957954, 8.753546828986146, 8.953733540955, 9.106756809982471, 9.27656183601357]",space,1.8024158920161426,,,,,,,HH,001,2019_Jul_23_1509,rev-kura_tap_2blocks,3.0.6,59.890161569470905,
./stimuli_1/tmp/perfect_100_1.wav,100,perfect,2.462429502310373,,,,,0,32,32,1,,,,,,,,,,,,,"['space', 'space', 'space', 'space', 'space', 'space', 'space', 'space', 'space']","[0.5801855640020221, 0.9632728110300377, 1.5192814300535247, 2.0800402860622853, 2.6805413310648873, 3.2968535820255056, 3.914283315069042, 4.51941131404601, 5.063690347014926]",space,0.8027432459639385,,,,,,,HH,001,2019_Jul_23_1509,rev-kura_tap_2blocks,3.0.6,59.890161569470905,
./stimuli_1/tmp/vweak_100_2.wav,100,veryweak,0.9843923106260049,,,,,0,33,33,5,,,,,,,,,,,,,"['space', 'space', 'space', 'space', 'space', 'space', 'space', 'space', 'space', 'space', 'space', 'space', 'space', 'space', 'space', 'space', 'space', 'space', 'space', 'space', 'space', 'space', 'space', 'space', 'space', 'space', 'space', 'space', 'space', 'space', 'space', 'space', 'space', 'space', 'space', 'space', 'space', 'space', 'space', 'space', 'space', 'space', 'space', 'space', 'space', 'space', 'space', 'space', 'space', 'space', 'space']","[0.5022597400238737, 0.9352171040372923, 1.085352977970615, 1.2353522869525477, 1.4022605050122365, 1.5687912680441514, 1.73551328596659, 1.90036973496899, 2.0523510619532317, 2.210052064037882, 2.3860194149892777, 2.5522891390137374, 2.719475227058865, 2.886544625973329, 3.050813512993045, 3.219547588028945, 3.3857761659892276, 3.5525726689957082, 3.727164117968641, 3.893281919066794, 4.069530474953353, 4.235539483022876, 4.419027063064277, 4.603735868004151, 4.75272395205684, 4.936874952050857, 5.119812999037094, 5.325357320951298, 5.485950301983394, 5.669151087990031, 5.85332033096347, 6.003463748958893, 6.170084833982401, 6.353401251952164, 6.536814845982008, 6.709630758967251, 6.890968897030689, 7.075487375026569, 7.2434647580375895, 7.417294748011045, 7.586800546036102, 7.77024188102223, 7.953065047040582, 8.119674731977284, 8.286552001954988, 8.452679260983132, 8.62021686998196, 8.792566283955239, 8.976408313028514, 9.153831148985773, 9.32042879005894]",space,1.635504664038308,,,,,,,HH,001,2019_Jul_23_1509,rev-kura_tap_2blocks,3.0.6,59.890161569470905,
./stimuli_1/tmp/medium_100_2.wav,100,medium,1.5709881706161974,,,,,0,34,34,44,,,,,,,,,,,,,"['space', 'space', 'space', 'space', 'space', 'space', 'space', 'space', 'space', 'space', 'space', 'space', 'space', 'space', 'space', 'space', 'space', 'space', 'space', 'space', 'space', 'space', 'space', 'space', 'space', 'space', 'space', 'space', 'space', 'space', 'space', 'space', 'space', 'space', 'space', 'space', 'space', 'space', 'space', 'space', 'space', 'space', 'space', 'space', 'space', 'space', 'space']","[0.9859022470191121, 1.1350414289627224, 1.3017609840026125, 1.468838474014774, 1.6360402680002153, 1.802329845027998, 2.0099531980231404, 2.1932762840297073, 2.3521128309657797, 2.519500999012962, 2.702592661953531, 2.8858755549881607, 3.0862216040259227, 3.2523793530417606, 3.433439095970243, 3.6249872469343245, 3.792968165013008, 3.9427146690431982, 4.136387742008083, 4.319481189944781, 4.48633769294247, 4.6523271419573575, 4.836825084988959, 5.001363815041259, 5.18573645199649, 5.35316540999338, 5.542838344001211, 5.709901780937798, 5.878384071984328, 6.069415103993379, 6.436272884020582, 6.617489408003166, 6.769669550936669, 7.0032532250043005, 7.2077673899475485, 7.369791036006063, 7.553103329031728, 7.737080325954594, 7.919787236023694, 8.096085967961699, 8.260237433947623, 8.444114882033318, 8.63599494297523, 8.820378027972765, 9.00314875796903, 9.201808086014353, 9.387479803990573]",space,2.386355798924342,,,,,,,HH,001,2019_Jul_23_1509,rev-kura_tap_2blocks,3.0.6,59.890161569470905,
./stimuli_1/tmp/medium_95_2.wav,95,medium,2.475357682924177,,,,,0,35,35,14,,,,,,,,,,,,,"['space', 'space', 'space', 'space', 'space', 'space', 'space', 'space', 'space', 'space', 'space', 'space', 'space', 'space', 'space', 'space', 'space', 'space', 'space', 'space', 'space', 'space', 'space', 'space', 'space', 'space', 'space', 'space', 'space', 'space', 'space', 'space', 'space', 'space', 'space', 'space', 'space', 'space', 'space', 'space', 'space', 'space', 'space', 'space', 'space', 'space', 'space', 'space', 'space', 'space']","[0.9527365519898012, 1.1193428830010816, 1.2765921900281683, 1.4355838750489056, 1.6035755740012974, 1.7863999190740287, 1.953392009017989, 2.118943447014317, 2.322815709048882, 2.4597933900076896, 2.62530723400414, 2.7922916889656335, 2.969532784074545, 3.119240651023574, 3.286365646054037, 3.4365876090014353, 3.6032535610720515, 3.771631076000631, 3.953510776045732, 4.203821751987562, 4.361352576990612, 4.509460892062634, 4.658805572078563, 4.839446414029226, 4.986190423020162, 5.136760467081331, 5.269768674043007, 5.50281014398206, 5.670083614997566, 5.819580564973876, 5.986224950058386, 6.153224310022779, 6.327431907993741, 6.487379660014994, 6.653621261008084, 6.820908583002165, 7.003666720003821, 7.187748290016316, 7.337686502025463, 7.504361301078461, 7.670156277017668, 7.876172963064164, 8.027504783007316, 8.208435998065397, 8.376862011966296, 8.57700762199238, 8.727426816010848, 8.937362362979911, 9.070553802070208, 9.287466346053407]",space,7.451710328925401,,,,,,,HH,001,2019_Jul_23_1509,rev-kura_tap_2blocks,3.0.6,59.890161569470905,
./stimuli_1/tmp/weak_110_1.wav,110,weak,2.302762081100819,,,,,0,36,36,3,,,,,,,,,,,,,"['space', 'space', 'space', 'space', 'space', 'space', 'space', 'space', 'space', 'space', 'space', 'space', 'space', 'space', 'space', 'space', 'space', 'space', 'space', 'space', 'space', 'space', 'space', 'space', 'space', 'space', 'space', 'space', 'space', 'space', 'space', 'space', 'space', 'space', 'space', 'space', 'space', 'space', 'space', 'space', 'space', 'space', 'space', 'space', 'space', 'space', 'space', 'space', 'space', 'space']","[0.5187791539356112, 0.691043667960912, 0.8526390260085464, 1.035238676937297, 1.2191393449902534, 1.4022759050130844, 1.552898632013239, 1.8196848320076242, 2.0028153299354017, 2.160757399047725, 2.319387173978612, 2.503268623026088, 2.6701411330141127, 2.836684779031202, 3.0027121129678562, 3.1696873620385304, 3.320045129978098, 3.4859252920141444, 3.674714440945536, 3.855888366000727, 4.036685758037493, 4.203191985026933, 4.370243913028389, 4.536691559012979, 4.7362997570307925, 4.936930947937071, 5.140627351007424, 5.342337436042726, 5.525653425022028, 5.6763523609843105, 5.870309741003439, 6.036686536041088, 6.2191655919887125, 6.436720483936369, 6.626852146000601, 6.793339209980331, 6.993359189946204, 7.192429065005854, 7.353876812965609, 7.554000901989639, 7.753312765038572, 7.9208833440206945, 8.108163274009712, 8.309843317954801, 8.510336961015128, 8.707415562006645, 8.871233723941259, 9.071161943022162, 9.254451774992049, 9.437092395033687]",space,9.638293021009304,,,,,,,HH,001,2019_Jul_23_1509,rev-kura_tap_2blocks,3.0.6,59.890161569470905,
./stimuli_1/tmp/strong_100_1.wav,100,strong,1.2298337616078612,,,,,0,37,37,37,,,,,,,,,,,,,"['space', 'space', 'space', 'space', 'space', 'space', 'space', 'space', 'space', 'space', 'space', 'space', 'space', 'space', 'space', 'space', 'space', 'space', 'space', 'space', 'space', 'space', 'space', 'space', 'space', 'space', 'space', 'space', 'space', 'space', 'space', 'space', 'space', 'space', 'space', 'space', 'space', 'space', 'space', 'space', 'space', 'space', 'space', 'space', 'space', 'space', 'space', 'space', 'space', 'space']","[0.8191125380108133, 1.0021378939272836, 1.1524445939576253, 1.318922126898542, 1.5193598989862949, 1.6687069459585473, 1.842205946915783, 2.033892817911692, 2.169580325949937, 2.336379281943664, 2.502143646008335, 2.7023404869250953, 2.868860827991739, 3.035795829957351, 3.169201381970197, 3.402705663931556, 3.569750980939716, 3.7357917219633237, 3.858316766913049, 4.057878288906068, 4.226165177999064, 4.38575573801063, 4.519251956953667, 4.719615576905198, 4.886748227989301, 5.036420748918317, 5.169527396908961, 5.353011501953006, 5.53692919400055, 5.703634918900207, 5.836916717002168, 6.042318859952502, 6.202617983915843, 6.369036307907663, 6.502359049976803, 6.702352899941616, 6.87524509395007, 7.042806991958059, 7.345442685997114, 7.5370339379878715, 7.721013711998239, 8.003077280009165, 8.186782734002918, 8.35786195890978, 8.510809540981427, 8.726629261975177, 8.88695866893977, 9.053071654983796, 9.20400826993864, 9.387393469922245]",space,23.50611261301674,,,,,,,HH,001,2019_Jul_23_1509,rev-kura_tap_2blocks,3.0.6,59.890161569470905,
./stimuli_1/tmp/perfect_110_0.wav,110,perfect,1.8837210676143408,,,,,0,38,38,16,,,,,,,,,,,,,"['space', 'space', 'space', 'space', 'space', 'space', 'space']","[1.2245581339811906, 1.6518098179949448, 2.2529295389540493, 2.817332366015762, 3.369528501993045, 3.9024224129971117, 4.419958428945392]",space,2.052494380972348,,,,,,,HH,001,2019_Jul_23_1509,rev-kura_tap_2blocks,3.0.6,59.890161569470905,
./stimuli_1/tmp/strong_90_1.wav,90,strong,1.0878185010355936,,,,,0,39,39,41,,,,,,,,,,,,,"['space', 'space', 'space', 'space', 'space', 'space', 'space', 'space', 'space', 'space', 'space', 'space', 'space', 'space', 'space', 'space', 'space', 'space', 'space', 'space', 'space', 'space', 'space', 'space', 'space', 'space', 'space', 'space', 'space', 'space', 'space', 'space', 'space', 'space', 'space', 'space', 'space', 'space', 'space', 'space', 'space', 'space', 'space', 'space', 'space', 'space', 'space']","[1.1695603999542072, 1.3029478829121217, 1.4199440989177674, 1.70319120795466, 1.8701302049448714, 2.003384818905033, 2.1410928869154304, 2.327230005990714, 2.5420010508969426, 2.686349182971753, 3.003311562933959, 3.1870647419709712, 3.337122004944831, 3.4714872939512134, 3.7124763259198517, 3.88731615699362, 4.037429565913044, 4.171040770947002, 4.419652178999968, 4.586764092906378, 4.753625848912634, 4.887052868958563, 5.136734907981008, 5.320056802942418, 5.47008073492907, 5.6440205769613385, 5.878067690995522, 6.036534535000101, 6.187173014972359, 6.337598370970227, 6.5372544470010325, 6.720996710006148, 6.8547937399707735, 6.9708660239120945, 7.287471310934052, 7.503918866976164, 7.6619944429257885, 7.803727567894384, 7.986732068937272, 8.170755660976283, 8.32158140395768, 8.436814856948331, 8.677474549971521, 8.860092386952601, 9.009760504006408, 9.16062078694813, 9.395142448949628]",space,2.0862686700420454,,,,,,,HH,001,2019_Jul_23_1509,rev-kura_tap_2blocks,3.0.6,59.890161569470905,
./stimuli_1/tmp/weak_90_1.wav,90,weak,1.282481392037714,,,,,0,40,40,29,,,,,,,,,,,,,"['space', 'space', 'space', 'space', 'space', 'space', 'space', 'space', 'space', 'space', 'space', 'space', 'space', 'space', 'space', 'space', 'space', 'space', 'space', 'space', 'space', 'space', 'space', 'space', 'space', 'space', 'space', 'space', 'space', 'space', 'space', 'space', 'space', 'space', 'space', 'space', 'space', 'space', 'space', 'space', 'space', 'space', 'space', 'space', 'space', 'space', 'space', 'space', 'space', 'space', 'space', 'space', 'space', 'space']","[0.9194074179977179, 1.1039313939400017, 1.2360931650036946, 1.4101901119574904, 1.559494114946574, 1.7191384619800374, 1.8867263470310718, 2.052827302017249, 2.220678383950144, 2.3698001590091735, 2.502801039023325, 2.636217035003938, 2.7756189960055053, 2.9437814039411023, 3.1035836979281157, 3.2532917889766395, 3.419935702928342, 3.570052594994195, 3.719037274015136, 3.8784973069559783, 4.036322162952274, 4.169845054973848, 4.33665806602221, 4.503351166960783, 4.653505968977697, 4.786849688971415, 4.96972944191657, 5.1201073609991, 5.2703230869956315, 5.461069860029966, 5.603578801965341, 5.7535066769924015, 5.919864972005598, 6.086821220931597, 6.236752104014158, 6.39316019800026, 6.55903993092943, 6.720223231939599, 6.870858032954857, 7.020002212957479, 7.186101614963263, 7.337479648995213, 7.48676836094819, 7.67077175702434, 7.820292277028784, 7.986303330981173, 8.153933170018718, 8.326553720980883, 8.510896472958848, 8.704282785998657, 8.870791179942898, 9.004187632002868, 9.187648186925799, 9.353752578957938]",space,10.558939744019881,,,,,,,HH,001,2019_Jul_23_1509,rev-kura_tap_2blocks,3.0.6,59.890161569470905,
./stimuli_1/tmp/vweak_105_1.wav,105,veryweak,2.000868469173824,,,,,0,41,41,7,,,,,,,,,,,,,"['space', 'space', 'space', 'space', 'space', 'space', 'space', 'space', 'space', 'space', 'space', 'space', 'space', 'space', 'space', 'space', 'space', 'space', 'space', 'space', 'space', 'space', 'space', 'space', 'space', 'space', 'space', 'space', 'space', 'space', 'space', 'space', 'space', 'space', 'space', 'space', 'space', 'space', 'space', 'space', 'space', 'space', 'space', 'space', 'space', 'space', 'space', 'space', 'space', 'space', 'space']","[1.2863455179613084, 1.4897347999503836, 1.5917499989736825, 1.7920351710636169, 1.9703687829896808, 2.1200530589558184, 2.2529412569710985, 2.417514801956713, 2.586592050967738, 2.7368226010585204, 3.034871604060754, 3.1869261730462313, 3.359244490042329, 3.510058516985737, 3.6425982790533453, 3.7925379320513457, 3.942013380001299, 4.111897483002394, 4.270659210043959, 4.434890744043514, 4.570344503968954, 4.737271810998209, 4.870568869984709, 5.037388724973425, 5.186773580033332, 5.336977467057295, 5.476356404018588, 5.636948039988056, 5.787509636953473, 5.92096058500465, 6.087590493960306, 6.253914588014595, 6.410915281041525, 6.5571136539801955, 6.70364465599414, 6.870629881042987, 7.037301086005755, 7.218404117040336, 7.387460667057894, 7.687685898970813, 7.8540176829556, 8.02781011397019, 8.170374791952781, 8.338146644993685, 8.504363927058876, 8.653895913041197, 8.804531547008082, 8.970763724995777, 9.13781349605415, 9.287521266029216, 9.455125659005716]",space,3.150039547937922,,,,,,,HH,001,2019_Jul_23_1509,rev-kura_tap_2blocks,3.0.6,59.890161569470905,
./stimuli_1/tmp/vweak_110_2.wav,110,veryweak,1.2375564653250335,,,,,0,42,42,28,,,,,,,,,,,,,"['space', 'space', 'space', 'space', 'space', 'space', 'space', 'space', 'space', 'space', 'space', 'space', 'space', 'space', 'space', 'space', 'space', 'space', 'space', 'space', 'space', 'space', 'space', 'space', 'space', 'space', 'space', 'space', 'space', 'space', 'space', 'space', 'space', 'space', 'space', 'space', 'space', 'space', 'space', 'space', 'space', 'space', 'space', 'space', 'space', 'space', 'space', 'space', 'space', 'space', 'space', 'space', 'space']","[0.9355847390834242, 1.1025856870692223, 1.253440550994128, 1.4193566830363125, 1.5860860530519858, 1.7506613600999117, 1.9028211870463565, 2.0528312420938164, 2.2024976160610095, 2.3528463860275224, 2.502662767074071, 2.675954240025021, 2.852269271039404, 3.0197086289990693, 3.1863426330965012, 3.3528942050179467, 3.5361679130000994, 3.7029679340776056, 3.8532825889997184, 4.022263167076744, 4.1946384540060535, 4.3694448380265385, 4.5357204200699925, 4.702816289034672, 4.870017362060025, 5.019964804989286, 5.203421030077152, 5.36925919901114, 5.542658838094212, 5.691248487099074, 5.845411200076342, 6.020252293092199, 6.186286563053727, 6.352980258059688, 6.5178762710420415, 6.669763716054149, 6.820350912050344, 6.986276567098685, 7.145609588013031, 7.3032470440957695, 7.4704516410129145, 7.620157507015392, 7.753392333048396, 7.920269658090547, 8.070058793062344, 8.236902954056859, 8.403677336056717, 8.53494772000704, 8.692513319081627, 8.870738081051968, 9.020640349015594, 9.17183307709638, 9.336954914033413]",space,37.257735482999124,,,,,,,HH,001,2019_Jul_23_1509,rev-kura_tap_2blocks,3.0.6,59.890161569470905,
./stimuli_1/tmp/perfect_95_1.wav,95,perfect,0.8659592093324232,,,,,0,43,43,22,,,,,,,,,,,,,"['space', 'space', 'space', 'space', 'space', 'space', 'space', 'space', 'space', 'space']","[1.1192466201027855, 1.685998041066341, 2.329072447028011, 2.9863240520935506, 3.620761980069801, 4.253235526033677, 4.920023812097497, 5.5197634670184925, 10.070681128068827, 10.704373705084436]",space,1.6191454960498959,,,,,,,HH,001,2019_Jul_23_1509,rev-kura_tap_2blocks,3.0.6,59.890161569470905,
./stimuli_1/tmp/strong_95_1.wav,95,strong,1.2238592690797745,,,,,0,44,44,33,,,,,,,,,,,,,"['space', 'space', 'space', 'space', 'space', 'space', 'space', 'space', 'space', 'space', 'space', 'space', 'space', 'space', 'space', 'space', 'space', 'space', 'space', 'space', 'space', 'space', 'space', 'space', 'space', 'space', 'space', 'space', 'space', 'space', 'space', 'space', 'space', 'space', 'space', 'space', 'space', 'space', 'space', 'space', 'space', 'space', 'space', 'space', 'space', 'space', 'space']","[1.286013278993778, 1.4362091110087931, 1.5524739460088313, 1.8861030370462686, 2.0362313369987532, 2.1697446199832484, 2.408009054022841, 2.5608465030090883, 2.702553062932566, 3.019666229025461, 3.186448093969375, 3.337168641970493, 3.474898159969598, 3.6101277959533036, 3.769970208988525, 3.9365036010276526, 4.084256318048574, 4.284566260990687, 4.436654479010031, 4.57020749093499, 4.70280088193249, 4.869810912990943, 5.027098241029307, 5.1746500979643315, 5.304757489007898, 5.503084580996074, 5.669951120973565, 5.803402062971145, 6.154138925019652, 6.286404418991879, 6.426795928971842, 6.7628111420199275, 6.90444093500264, 7.02060754597187, 7.33760266599711, 7.486757030943409, 7.620612839004025, 7.754076009965502, 7.961800734046847, 8.12629799800925, 8.263108324026689, 8.553999878000468, 8.704143623937853, 8.837340957019478, 9.153952170046978, 9.304635645006783, 9.479237320018001]",space,4.51972201699391,,,,,,,HH,001,2019_Jul_23_1509,rev-kura_tap_2blocks,3.0.6,59.890161569470905,
./stimuli_1/tmp/strong_95_2.wav,95,strong,1.1173507911145857,,,,,0,45,45,27,,,,,,,,,,,,,"['space', 'space', 'space', 'space', 'space', 'space', 'space', 'space', 'space', 'space', 'space', 'space', 'space', 'space', 'space', 'space', 'space', 'space', 'space', 'space', 'space', 'space', 'space', 'space', 'space', 'space', 'space', 'space', 'space', 'space', 'space', 'space', 'space', 'space', 'space', 'space', 'space', 'space', 'space', 'space', 'space', 'space', 'space', 'space', 'space', 'space', 'space', 'space', 'space', 'space']","[1.310789932962507, 1.4459997729863971, 1.5799204170471057, 1.7460232729790732, 1.9128890869906172, 2.063102409010753, 2.2131278479937464, 2.4397783629829064, 2.5965262859826908, 2.7466479960130528, 2.8946752019692212, 3.0965565140359104, 3.2636572220362723, 3.4133679820224643, 3.563067506067455, 3.7299280459992588, 3.896822951035574, 4.046617620973848, 4.196901576011442, 4.473144856048748, 4.647994520026259, 4.796682358020917, 4.9297565299784765, 5.096961671020836, 5.263937514042482, 5.43084910698235, 5.564033427974209, 5.731193506042473, 5.905451679020189, 6.080622417968698, 6.247129271039739, 6.380785648012534, 6.530328058055602, 6.696966829011217, 6.864411587012, 6.990359639050439, 7.180866522016004, 7.3311889100586995, 7.4973517949692905, 7.647414874052629, 7.7979115940397605, 7.985804980038665, 8.130760633968748, 8.297446854994632, 8.513960547978058, 8.680935680982657, 8.847669285023585, 9.123275525984354, 9.2956279120408, 9.464408454019576]",space,0.6857694259379059,,,,,,,HH,001,2019_Jul_23_1509,rev-kura_tap_2blocks,3.0.6,59.890161569470905,
./stimuli_1/tmp/vweak_90_1.wav,90,veryweak,0.8362780865168179,,,,,0,46,46,34,,,,,,,,,,,,,"['space', 'space', 'space', 'space', 'space', 'space', 'space', 'space', 'space', 'space', 'space', 'space', 'space', 'space', 'space', 'space', 'space', 'space', 'space', 'space', 'space', 'space', 'space', 'space', 'space', 'space', 'space', 'space', 'space', 'space', 'space', 'space', 'space', 'space', 'space', 'space', 'space', 'space', 'space', 'space', 'space', 'space', 'space', 'space', 'space', 'space', 'space', 'space', 'space']","[1.5027289820136502, 1.6861070099985227, 1.7973325629718602, 2.080554368905723, 2.263855444965884, 2.39785202301573, 2.547744654933922, 2.763862920925021, 2.9220781850162894, 3.086737670004368, 3.231200667913072, 3.3474705199478194, 3.5144741960102692, 3.6811751349596307, 3.8307715349365026, 3.9809165300102904, 4.097768515930511, 4.281341920956038, 4.437857706914656, 4.588265781989321, 4.736253635957837, 4.998513024998829, 5.181057840003632, 5.329330364940688, 5.495769922970794, 5.631152456975542, 5.797986069926992, 5.954989593010396, 6.115022875950672, 6.24794401996769, 6.3647316409042105, 6.548694346914999, 6.7312242039479315, 6.884882888989523, 7.038088617962785, 7.1484072369057685, 7.315501032979228, 7.4980735059361905, 7.665000200970098, 7.814720391994342, 8.06505846499931, 8.24826605792623, 8.415009621996433, 8.565525622921996, 8.748946190928109, 8.940232409979217, 9.098595905001275, 9.248291402007453, 9.38194626593031]",space,1.2868478609016165,,,,,,,HH,001,2019_Jul_23_1509,rev-kura_tap_2blocks,3.0.6,59.890161569470905,
./stimuli_1/tmp/perfect_100_0.wav,100,perfect,2.1771183722066985,,,,,0,47,47,2,,,,,,,,,,,,,"['space', 'space', 'space', 'space', 'space', 'space', 'space', 'space']","[0.9743143389932811, 1.5023871050216258, 2.0861715180799365, 2.7034568031085655, 3.319379637017846, 3.9919264540076256, 4.636713382089511, 5.202766343019903]",space,1.1529462540056556,,,,,,,HH,001,2019_Jul_23_1509,rev-kura_tap_2blocks,3.0.6,59.890161569470905,
./stimuli_1/tmp/perfect_95_0.wav,95,perfect,1.4400885785760469,,,,,0,48,48,26,,,,,,,,,,,,,"['space', 'space', 'space', 'space', 'space', 'space', 'space', 'space']","[1.06917102902662, 1.6688550621038303, 2.2856536930194125, 2.9589910570066422, 3.6194446140434593, 4.196002764045261, 4.869913126109168, 5.529067730996758]",space,1.4502964230487123,,,,,,,HH,001,2019_Jul_23_1509,rev-kura_tap_2blocks,3.0.6,59.890161569470905,
./stimuli_1/tmp/vweak_105_2.wav,105,veryweak,1.1450150374808907,,,,,0,49,49,9,,,,,,,,,,,,,"['space', 'space', 'space', 'space', 'space', 'space', 'space', 'space', 'space', 'space', 'space', 'space', 'space', 'space', 'space', 'space', 'space', 'space', 'space', 'space', 'space', 'space', 'space', 'space', 'space', 'space', 'space', 'space', 'space', 'space', 'space', 'space', 'space', 'space', 'space', 'space', 'space', 'space', 'space', 'space', 'space', 'space', 'space', 'space', 'space', 'space', 'space', 'space', 'space', 'space']","[0.9593480919720605, 1.3186946719652042, 1.4861952329520136, 1.669234226923436, 1.8188706169603392, 2.018598548020236, 2.1861755209974945, 2.3355567059479654, 2.652388410991989, 2.819405935006216, 2.9861718770116568, 3.13556429091841, 3.268873802968301, 3.436233673011884, 3.6027278259862214, 3.7361957780085504, 3.9036106809508055, 4.06946758995764, 4.219202460953966, 4.494750423938967, 4.677108548930846, 4.8414457510225475, 4.986565095023252, 5.153456827974878, 5.319422525004484, 5.470844273921102, 5.620398261002265, 5.787088876008056, 5.960290335002355, 6.137035992927849, 6.269224248942919, 6.437385492026806, 6.620626737945713, 6.769857676001266, 6.919681145926006, 7.087502750917338, 7.236946548917331, 7.402914613019675, 7.56961677398067, 7.737795242923312, 7.9037546860054135, 8.063291428028606, 8.202770454925485, 8.353289161925204, 8.519820051966235, 8.670315234921873, 8.818000196944922, 8.995060054934584, 9.176099871983752, 9.321201232960448]",space,0.8438596080522984,,,,,,,HH,001,2019_Jul_23_1509,rev-kura_tap_2blocks,3.0.6,59.890161569470905,
,,,,,,,,,,,,,,,,,,,,,,,,,,,,space,29.391096081933938,,,,,HH,001,2019_Jul_23_1509,rev-kura_tap_2blocks,3.0.6,59.890161569470905,
./stimuli_2/tmp/perfect_95_0.wav,95,perfect,2.0105466277142785,,,,,,,,,0,0,0,30,,,,,,,,,,,,,,,"['space', 'space', 'space', 'space', 'space', 'space', 'space', 'space', 'space', 'space', 'space']","[1.128159285057336, 1.6865921380231157, 2.2861686050891876, 2.90280436410103, 3.4958745890762657, 4.136550022056326, 4.835674658999778, 5.471022019046359, 9.586923380033113, 10.18754346203059, 10.787377741071396]",space,0.49657134304288775,HH,001,2019_Jul_23_1509,rev-kura_tap_2blocks,3.0.6,59.890161569470905,
./stimuli_2/tmp/strong_90_3.wav,90,strong,1.6244125943376004,,,,,,,,,0,1,1,37,,,,,,,,,,,,,,,"['space', 'space', 'space', 'space', 'space', 'space', 'space', 'space', 'space', 'space', 'space', 'space', 'space', 'space', 'space', 'space', 'space', 'space', 'space', 'space', 'space', 'space', 'space', 'space', 'space', 'space', 'space', 'space', 'space', 'space', 'space', 'space', 'space', 'space', 'space', 'space', 'space']","[1.377564698108472, 1.540235900087282, 1.6682841260917485, 1.8192464450839907, 2.002161735086702, 2.1527546270517632, 2.286035315017216, 2.4689835380995646, 2.6363232420990244, 2.7863516160286963, 2.925927896052599, 3.085387702099979, 3.2691562300315127, 3.4193324050866067, 3.5689009010093287, 3.719629906001501, 3.8923096840735525, 4.069027654011734, 4.219837036100216, 4.353192908107303, 4.535954478080384, 4.734222268103622, 4.877951744012535, 5.012561688083224, 5.192208458087407, 5.369712562067434, 5.536124040023424, 5.701481711002998, 5.853027289034799, 6.070153386099264, 6.253651097998954, 6.411558455089107, 6.594689967110753, 10.042798370006494, 10.225978200091049, 10.370666938018985, 10.87087866209913]",space,0.03549739602021873,HH,001,2019_Jul_23_1509,rev-kura_tap_2blocks,3.0.6,59.890161569470905,
./stimuli_2/tmp/perfect_90_0.wav,90,perfect,1.8471350139820657,,,,,,,,,0,2,2,34,,,,,,,,,,,,,,,"['space', 'space', 'space', 'space', 'space', 'space', 'space', 'space', 'space', 'space', 'space', 'space', 'space', 'space', 'space', 'space', 'space']","[0.00035772297997027636, 0.9351090289419517, 1.3697120839497074, 1.9691110349958763, 2.6689775600098073, 3.302658560918644, 3.9354135839967057, 4.619637458003126, 5.2866291659884155, 5.951237573986873, 6.586744050960988, 7.270204021944664, 7.9534712210297585, 8.586496072937734, 9.253621839918196, 9.953250441001728, 10.603915398940444]",space,0.3244463140144944,HH,001,2019_Jul_23_1509,rev-kura_tap_2blocks,3.0.6,59.890161569470905,
./stimuli_2/tmp/medium_110_4.wav,110,medium,1.2412593574024813,,,,,,,,,0,3,3,8,,,,,,,,,,,,,,,"['space', 'space', 'space', 'space', 'space', 'space', 'space', 'space', 'space', 'space', 'space', 'space', 'space', 'space', 'space', 'space', 'space', 'space', 'space', 'space', 'space', 'space', 'space', 'space', 'space', 'space', 'space', 'space', 'space', 'space', 'space', 'space', 'space', 'space', 'space', 'space', 'space', 'space', 'space', 'space', 'space', 'space', 'space', 'space', 'space', 'space', 'space', 'space', 'space', 'space', 'space', 'space', 'space', 'space', 'space', 'space', 'space']","[1.03080740198493, 1.2310885180486366, 1.396864810027182, 1.5619586069369689, 1.7148172099841759, 1.864258739980869, 2.0197742800228298, 2.1812184939626604, 2.330603644018993, 2.614559100009501, 2.7641717749647796, 2.9309068670263514, 3.087551216944121, 3.230534133967012, 3.3800702239386737, 3.548447047942318, 3.7145425259368494, 3.8645047809695825, 4.01953178003896, 4.173050262033939, 4.35239310702309, 4.507104777963832, 4.669021300971508, 4.814786989009008, 4.965048352023587, 5.132360688992776, 5.29730648198165, 5.464658809942193, 5.614571455982514, 5.763895396026783, 5.932059093960561, 6.103726799949072, 6.239653985016048, 6.373336371034384, 6.529278454952873, 6.680902861990035, 6.83178060001228, 6.982314093969762, 7.165440339013003, 7.330012339982204, 7.4645170050207525, 7.606760276015848, 7.747919915942475, 7.931854035938159, 8.081366827944294, 8.21519769995939, 8.348181645967998, 8.553065826999955, 8.720760202035308, 8.882013048045337, 9.182353061041795, 9.531841923948377, 10.115834307973273, 10.481128482962959, 10.64145646803081, 10.786793099949136, 10.921583362971433]",space,0.11699112807400525,HH,001,2019_Jul_23_1509,rev-kura_tap_2blocks,3.0.6,59.890161569470905,
./stimuli_2/tmp/weak_90_4.wav,90,weak,2.0685733483084743,,,,,,,,,0,4,4,16,,,,,,,,,,,,,,,"['space', 'space', 'space', 'space', 'space', 'space', 'space', 'space', 'space', 'space', 'space', 'space', 'space', 'space', 'space', 'space', 'space', 'space', 'space', 'space', 'space', 'space', 'space', 'space', 'space', 'space', 'space', 'space', 'space', 'space', 'space', 'space', 'space', 'space']","[1.08502715989016, 1.2838325889315456, 1.4187675229040906, 1.586487838998437, 1.7692152759991586, 1.9183883189689368, 2.0693894888972864, 2.235429273918271, 2.3741543849464506, 2.635344846989028, 2.802445333916694, 2.952300665900111, 3.1191018969984725, 3.2832139719976112, 3.4740263879066333, 3.6101292739622295, 3.807116851909086, 3.96964121889323, 4.152626639930531, 4.337440845905803, 4.485832658945583, 4.670270373928361, 4.835552423959598, 4.995549059938639, 5.152625457965769, 5.303478799993172, 5.485779492999427, 5.653132581966929, 5.802442360902205, 5.990797311998904, 6.1624328249599785, 6.457368435920216, 6.636955160996877, 6.802779822959565]",space,0.7688748200889677,HH,001,2019_Jul_23_1509,rev-kura_tap_2blocks,3.0.6,59.890161569470905,
./stimuli_2/tmp/strong_110_3.wav,110,strong,2.128797507874421,,,,,,,,,0,5,5,6,,,,,,,,,,,,,,,"['space', 'space', 'space', 'space', 'space', 'space', 'space', 'space', 'space', 'space', 'space', 'space', 'space', 'space', 'space', 'space', 'space', 'space', 'space', 'space', 'space', 'space', 'space', 'space', 'space', 'space', 'space', 'space', 'space', 'space', 'space', 'space']","[1.183669058023952, 1.3347938449587673, 1.483970602042973, 1.834233385976404, 2.0220821039984003, 2.1767041529528797, 2.3387135410448536, 2.539586547994986, 2.683770184055902, 2.8347614109516144, 3.134382828953676, 3.301277896971442, 3.4676008380483836, 3.639082203968428, 3.8229100779863074, 3.9511360300239176, 4.118273361003958, 4.301197423017584, 4.449592045973986, 4.601471749017946, 4.76845647895243, 4.9346689080121, 5.265730772051029, 5.4173852590611205, 5.593822318012826, 5.771986952982843, 5.909250998985954, 6.072658448014408, 6.217873509041965, 6.4021507849683985, 6.568142549018376, 6.718436092021875]",space,0.594973249011673,HH,001,2019_Jul_23_1509,rev-kura_tap_2blocks,3.0.6,59.890161569470905,
./stimuli_2/tmp/medium_100_4.wav,100,medium,1.1108721091211078,,,,,,,,,0,6,6,35,,,,,,,,,,,,,,,"['space', 'space', 'space', 'space', 'space', 'space', 'space', 'space', 'space', 'space', 'space', 'space', 'space', 'space', 'space', 'space', 'space', 'space', 'space', 'space', 'space', 'space', 'space', 'space', 'space', 'space', 'space', 'space', 'space', 'space', 'space', 'space', 'space', 'space', 'space', 'space', 'space', 'space', 'space', 'space', 'space', 'space', 'space', 'space', 'space', 'space', 'space', 'space']","[0.5867837630212307, 0.7190036120591685, 1.1196242070291191, 1.2698195520788431, 1.5259011860471219, 1.703038742998615, 1.867612321046181, 2.0869122879812494, 2.2198270299704745, 2.356224984047003, 2.49353754601907, 2.610148453968577, 2.7907666240353137, 2.937192831072025, 3.0862166070146486, 3.2036383720114827, 3.4033100720262155, 3.536784004070796, 3.6866241940297186, 3.8372540390118957, 3.990892435074784, 4.157619161065668, 4.312951112980954, 4.470889677992091, 4.637825704994611, 4.803559447056614, 4.96995582501404, 5.1034180839778855, 5.284690908971243, 5.4431081750663, 5.620482268976048, 5.803497359040193, 5.970711080008186, 6.153727291035466, 6.3370855409884825, 6.513023911975324, 6.7198653920786455, 6.920257246005349, 8.704868327011354, 8.868896887055598, 9.012624109047465, 9.187373796012253, 9.338533542002551, 9.520992396981455, 9.704498894046992, 9.872506745974533, 10.045138842076994, 10.221330741071142]",space,0.8483961230376735,HH,001,2019_Jul_23_1509,rev-kura_tap_2blocks,3.0.6,59.890161569470905,
./stimuli_2/tmp/vweak_110_4.wav,110,veryweak,1.4056094097142195,,,,,,,,,0,7,7,20,,,,,,,,,,,,,,,"['space', 'space', 'space', 'space', 'space', 'space', 'space', 'space', 'space', 'space', 'space', 'space', 'space', 'space', 'space', 'space', 'space', 'space', 'space', 'space', 'space', 'space', 'space', 'space', 'space', 'space', 'space', 'space', 'space', 'space', 'space', 'space', 'space', 'space', 'space', 'space', 'space', 'space']","[0.9024329460225999, 1.0357522369595245, 1.1853347980650142, 1.3354732190491632, 1.4855373420286924, 1.6569263170240447, 1.8098649909952655, 1.9526332250097767, 2.1356780600035563, 2.302919207024388, 2.4695750400424004, 2.603401790955104, 2.7445359580451623, 2.895425857976079, 3.052742179017514, 3.185324545018375, 3.353377960040234, 3.502904615015723, 3.65337197703775, 3.7698659179732203, 3.935693542007357, 4.085437185014598, 4.257582301972434, 4.411616028985009, 4.569091744022444, 4.736712157027796, 4.886000212980434, 5.053255883045495, 5.2035926369717345, 5.403170068981126, 5.569421211956069, 5.744104444049299, 5.925649155979045, 6.08615152805578, 6.253249456058256, 6.43687424401287, 6.603294244967401, 6.753123827977106]",space,0.46969562105368823,HH,001,2019_Jul_23_1509,rev-kura_tap_2blocks,3.0.6,59.890161569470905,
./stimuli_2/tmp/medium_95_4.wav,95,medium,1.5689377747074644,,,,,,,,,0,8,8,27,,,,,,,,,,,,,,,"['space', 'space', 'space', 'space', 'space', 'space', 'space', 'space', 'space', 'space', 'space', 'space', 'space', 'space', 'space', 'space', 'space', 'space', 'space', 'space', 'space', 'space', 'space', 'space', 'space', 'space', 'space', 'space', 'space', 'space', 'space', 'space', 'space', 'space', 'space', 'space', 'space', 'space']","[1.0021548030199483, 1.1691566380904987, 1.3196830940432847, 1.469224255066365, 1.6196736060082912, 1.7608680090634152, 1.9285087060416117, 2.109968829085119, 2.273572704056278, 2.428438883041963, 2.5445419480092824, 2.7238210170762613, 2.8606185760581866, 2.9941292450530455, 3.152397842030041, 3.3024384730961174, 3.4687583370832726, 3.585911402013153, 3.752238971996121, 3.9191154640866444, 4.0846344120800495, 4.2423352900659665, 4.3954405130352825, 4.552852255059406, 4.719096180051565, 4.869281229097396, 5.019070546026342, 5.1694848840124905, 5.336641633999534, 5.502939542988315, 5.6529644740512595, 5.842045211000368, 6.003451592987403, 6.1868932760553434, 6.3366365290712565, 6.487369641079567, 6.653236713027582, 6.795619938988239]",space,0.7583682620897889,HH,001,2019_Jul_23_1509,rev-kura_tap_2blocks,3.0.6,59.890161569470905,
./stimuli_2/tmp/weak_105_3.wav,105,weak,1.8785671226313851,,,,,,,,,0,9,9,49,,,,,,,,,,,,,,,"['space', 'space', 'space', 'space', 'space', 'space', 'space', 'space', 'space', 'space', 'space', 'space', 'space', 'space', 'space', 'space', 'space', 'space', 'space', 'space', 'space', 'space', 'space', 'space', 'space', 'space', 'space', 'space', 'space', 'space', 'space', 'space', 'space', 'space', 'space', 'space', 'space', 'space', 'space']","[0.6356336390599608, 0.8173565780743957, 0.9686239850707352, 1.1199232999933884, 1.2695893340278417, 1.4027982520638034, 1.5689570910762995, 1.7284461989765987, 1.8875560640590265, 2.036288615083322, 2.186196085996926, 2.3526107399957255, 2.5354385189712048, 2.685851776972413, 2.8352773929946125, 2.9855714400764555, 3.152125861030072, 3.3195449680788442, 3.50245229806751, 3.6435973399784416, 3.807241582078859, 3.957655649050139, 4.144984196987934, 4.26991390902549, 4.469518149038777, 4.636416530003771, 4.802025935030542, 4.9528333239723, 5.1110569150187075, 5.245909305056557, 5.436497783055529, 5.601208259002306, 5.752944717998616, 5.919759449083358, 6.0866800979711115, 6.275152769056149, 6.385080768028274, 6.569984689005651, 6.752960527082905]",space,0.5190423189196736,HH,001,2019_Jul_23_1509,rev-kura_tap_2blocks,3.0.6,59.890161569470905,
./stimuli_2/tmp/weak_95_3.wav,95,weak,1.2112449492962023,,,,,,,,,0,10,10,36,,,,,,,,,,,,,,,"['space', 'space', 'space', 'space', 'space', 'space', 'space', 'space', 'space', 'space', 'space', 'space', 'space', 'space', 'space', 'space', 'space', 'space', 'space', 'space', 'space', 'space', 'space', 'space', 'space', 'space', 'space', 'space', 'space', 'space', 'space', 'space', 'space', 'space', 'space', 'space', 'space', 'space', 'space', 'space', 'space', 'space', 'space', 'space', 'space', 'space', 'space', 'space', 'space', 'space', 'space', 'space', 'space']","[1.3682817509397864, 1.519461484043859, 1.6364232529886067, 1.769037430989556, 1.9571457999991253, 2.1282419899944216, 2.252687555970624, 2.419295671978034, 2.5364269140409306, 2.7018696049926803, 2.885493202949874, 3.052860844996758, 3.203021032968536, 3.2862146359402686, 3.457535426947288, 3.6253708390286192, 3.7865236829966307, 3.936550501966849, 4.18667392199859, 4.3506422359496355, 4.509007013984956, 4.6442426959984004, 4.92826856195461, 5.118968644994311, 5.286230077035725, 5.419794633053243, 5.603665661998093, 5.77197059604805, 5.938978231977671, 6.076390411006287, 6.270059991977178, 6.4368923290167, 6.602824848028831, 6.752608718001284, 6.952652461943217, 7.2201805940130726, 7.3869142109761015, 7.5365872499533, 7.718574541038834, 7.886823966051452, 8.028824575943872, 8.162449934985489, 8.412301479955204, 8.579314160975628, 8.752858527004719, 8.935138497967273, 9.918017475050874, 10.095860122004524, 10.253995953942649, 10.387098485021852, 10.553552238969132, 10.720651739975438, 10.976061332970858]",space,0.2375878149177879,HH,001,2019_Jul_23_1509,rev-kura_tap_2blocks,3.0.6,59.890161569470905,
./stimuli_2/tmp/perfect_90_1.wav,90,perfect,0.9437088291454946,,,,,,,,,0,11,11,38,,,,,,,,,,,,,,,"['space', 'space', 'space', 'space', 'space', 'space', 'space', 'space', 'space', 'space', 'space', 'space', 'space', 'space', 'space', 'space']","[1.3189828430768102, 2.0352285930421203, 2.7189463160466403, 3.342064962023869, 4.0033987670904025, 4.618911776109599, 5.253159701009281, 5.852076151059009, 6.486781357089058, 7.119109155028127, 7.736562223057263, 8.32538840000052, 8.919783762074076, 9.520631796098314, 10.16989453008864, 10.786715753027238]",space,0.6023149350658059,HH,001,2019_Jul_23_1509,rev-kura_tap_2blocks,3.0.6,59.890161569470905,
./stimuli_2/tmp/vweak_90_3.wav,90,veryweak,0.8098621072043313,,,,,,,,,0,12,12,42,,,,,,,,,,,,,,,"['space', 'space', 'space', 'space', 'space', 'space', 'space', 'space', 'space', 'space', 'space', 'space', 'space', 'space', 'space', 'space', 'space', 'space', 'space', 'space', 'space', 'space', 'space', 'space', 'space', 'space', 'space', 'space', 'space', 'space', 'space', 'space', 'space', 'space', 'space', 'space', 'space', 'space', 'space']","[0.9575550109148026, 1.1281017999863252, 1.269532217993401, 1.402976069948636, 1.5189074620138854, 1.6699341849889606, 1.8195031109498814, 1.9690162489423528, 2.1197580919833854, 2.2860686879139394, 2.4398805359378457, 2.562657138914801, 2.719184538931586, 2.886242275009863, 3.019498103996739, 3.2011912770103663, 3.369898759992793, 3.509326124913059, 3.6698579100193456, 3.803117829025723, 3.95302615291439, 4.102631864952855, 4.253667522920296, 4.419520928990096, 4.569913281011395, 4.720106013002805, 4.88651784195099, 5.045169209945016, 5.211502525024116, 5.3784844619221985, 5.52015435800422, 5.670208062976599, 5.853918727952987, 6.019586473936215, 6.203091362956911, 6.404081532964483, 6.6084070729557425, 6.778962897020392, 6.9540613039862365]",space,3.3947724029421806,HH,001,2019_Jul_23_1509,rev-kura_tap_2blocks,3.0.6,59.890161569470905,
./stimuli_2/tmp/strong_100_3.wav,100,strong,1.4654700353387642,,,,,,,,,0,13,13,41,,,,,,,,,,,,,,,"['space', 'space', 'space', 'space', 'space', 'space', 'space', 'space', 'space', 'space', 'space', 'space', 'space', 'space', 'space', 'space', 'space', 'space', 'space', 'space', 'space', 'space', 'space', 'space', 'space', 'space', 'space', 'space', 'space', 'space', 'space', 'space', 'space']","[0.9033342119073495, 1.1436255379812792, 1.2954046019585803, 1.4365756059996784, 1.6024628109298646, 1.7367526539601386, 2.020288145984523, 2.208922558929771, 2.3622341519221663, 2.495601649978198, 2.7121522480156273, 2.886996716959402, 3.0205903499154374, 3.353530218009837, 3.5207232269458473, 3.6763820669148117, 3.986892235931009, 4.154436748009175, 4.2702525010099635, 4.403186595998704, 4.637891864986159, 4.8203040909720585, 4.954025481943972, 5.272553960909136, 5.440327629912645, 5.5709834300214425, 5.720918367966078, 5.904752973932773, 6.087639998993836, 6.237402451923117, 6.404366435948759, 6.63529182493221, 6.8124520109267905]",space,1.3027526639634743,HH,001,2019_Jul_23_1509,rev-kura_tap_2blocks,3.0.6,59.890161569470905,
./stimuli_2/tmp/weak_100_3.wav,100,weak,0.8397616430138637,,,,,,,,,0,14,14,21,,,,,,,,,,,,,,,"['space', 'space', 'space', 'space', 'space', 'space', 'space', 'space', 'space', 'space', 'space', 'space', 'space', 'space', 'space', 'space', 'space', 'space', 'space', 'space', 'space', 'space', 'space', 'space', 'space', 'space', 'space', 'space', 'space', 'space', 'space', 'space', 'space', 'space', 'space', 'space', 'space']","[0.9522918870206922, 1.1192403470631689, 1.2687083720229566, 1.420173783088103, 1.5742174930637702, 1.7275328420801088, 1.8685759990476072, 2.0195145789766684, 2.201748084044084, 2.352341504069045, 2.5169389210641384, 2.694574224995449, 2.852685200981796, 3.0193401030264795, 3.18520626204554, 3.3523430799832568, 3.5011276280274615, 3.6612079499755055, 3.844265124993399, 4.002572535071522, 4.152785427984782, 4.286360308993608, 4.435680377995595, 4.5869992650114, 4.75216071808245, 4.936345297028311, 5.109821895021014, 5.300349625991657, 5.469696002081037, 5.635971056995913, 5.80313911603298, 5.9521819279761985, 6.125840249005705, 6.294013564009219, 6.478415964054875, 6.628190218005329, 6.7866315910359845]",space,1.0291428070049733,HH,001,2019_Jul_23_1509,rev-kura_tap_2blocks,3.0.6,59.890161569470905,
./stimuli_2/tmp/weak_100_4.wav,100,weak,1.8643156091783653,,,,,,,,,0,15,15,33,,,,,,,,,,,,,,,"['space', 'space', 'space', 'space', 'space', 'space', 'space', 'space', 'space', 'space', 'space', 'space', 'space', 'space', 'space', 'space', 'space', 'space', 'space', 'space', 'space', 'space', 'space', 'space', 'space', 'space', 'space', 'space', 'space', 'space', 'space', 'space', 'space', 'space', 'space', 'space']","[0.9688229330349714, 1.102803932968527, 1.2584156739758328, 1.409402505028993, 1.5860913359792903, 1.7527046019677073, 1.9023973520379514, 2.037149392068386, 2.240101585048251, 2.4112812790554017, 2.5349264990072697, 2.700669220997952, 2.852178708068095, 3.0182309029623866, 3.1697723320685327, 3.310354855027981, 3.4775006220443174, 3.6190562039846554, 3.7864037649706006, 3.9359457649989054, 4.253795541008003, 4.4192823900375515, 4.569739183061756, 4.719639118062332, 4.877937652054243, 5.019447856000625, 5.203012516023591, 5.369605225045234, 5.536051959032193, 5.703093001036905, 5.9056950700469315, 6.061509124003351, 6.253374491003342, 6.436336060985923, 6.63633385905996, 6.820169855025597]",space,1.0039334199391305,HH,001,2019_Jul_23_1509,rev-kura_tap_2blocks,3.0.6,59.890161569470905,
./stimuli_2/tmp/weak_90_3.wav,90,weak,1.336733561564532,,,,,,,,,0,16,16,29,,,,,,,,,,,,,,,"['space', 'space', 'space', 'space', 'space', 'space', 'space', 'space', 'space', 'space', 'space', 'space', 'space', 'space', 'space', 'space', 'space', 'space', 'space', 'space', 'space', 'space', 'space', 'space', 'space', 'space', 'space', 'space', 'space', 'space', 'space', 'space', 'space', 'space', 'space']","[1.2037333959015086, 1.3370103759225458, 1.4910076439846307, 1.6534480749396607, 1.8197282699402422, 1.970118472003378, 2.120837898924947, 2.287325498997234, 2.436649331008084, 2.6036429329542443, 2.7535124719142914, 2.9200825759908184, 3.0891767989378422, 3.245121121988632, 3.4036708729108796, 3.553284058929421, 3.8044300749897957, 3.9871735469205305, 4.154018702916801, 4.403477636980824, 4.563423667917959, 4.744896952994168, 4.895370268961415, 5.086593702901155, 5.28727391990833, 5.469723362009972, 5.654433107934892, 5.820891493931413, 5.993214320973493, 6.144586946931668, 6.2957067779498175, 6.4375742299016565, 6.62098636792507, 6.787473989999853, 6.9374285188969225]",space,0.7608508330304176,HH,001,2019_Jul_23_1509,rev-kura_tap_2blocks,3.0.6,59.890161569470905,
./stimuli_2/tmp/strong_95_4.wav,95,strong,1.3122188661972012,,,,,,,,,0,17,17,19,,,,,,,,,,,,,,,"['space', 'space', 'space', 'space', 'space', 'space', 'space', 'space', 'space', 'space', 'space', 'space', 'space', 'space', 'space', 'space', 'space', 'space', 'space', 'space', 'space', 'space', 'space', 'space', 'space', 'space', 'space', 'space', 'space', 'space', 'space', 'space', 'space', 'space', 'space', 'space', 'space']","[0.5118210400687531, 0.9455013050464913, 1.1132139390101656, 1.2632843779865652, 1.5466567910043523, 1.7291416170774028, 1.8787639039801434, 2.179575211019255, 2.3605680430773646, 2.496028703986667, 2.6303306060144678, 2.8297720720293, 3.0130825110245496, 3.162961611058563, 3.331066607031971, 3.60469364002347, 3.7791990290861577, 3.9467442320892587, 4.09573589800857, 4.263017214019783, 4.396746230078861, 4.562912635039538, 4.744498569052666, 4.8962709590559825, 5.046553069027141, 5.229678736999631, 5.396727913990617, 5.554886052035727, 5.721591813024133, 5.829572735005058, 6.013683353085071, 6.196451916010119, 6.36409435805399, 6.545768301002681, 6.728551084990613, 6.8966051960596815, 7.7287444970570505]",space,1.2859954859595746,HH,001,2019_Jul_23_1509,rev-kura_tap_2blocks,3.0.6,59.890161569470905,
./stimuli_2/tmp/vweak_90_4.wav,90,veryweak,2.01675312210347,,,,,,,,,0,18,18,47,,,,,,,,,,,,,,,"['space', 'space', 'space', 'space', 'space', 'space', 'space', 'space', 'space', 'space', 'space', 'space', 'space', 'space', 'space', 'space', 'space', 'space', 'space', 'space', 'space', 'space', 'space', 'space', 'space', 'space', 'space', 'space', 'space', 'space', 'space', 'space', 'space', 'space', 'space', 'space', 'space']","[0.8854031149530783, 1.0536543829366565, 1.2072595789795741, 1.3755578850395977, 1.5533398150000721, 1.7030395430047065, 1.8701673590112478, 2.052625378011726, 2.237021990935318, 2.4022459039697424, 2.5845294799655676, 2.7437389160040766, 2.919602264999412, 3.0867759039392695, 3.253468508948572, 3.419896445935592, 3.602427751990035, 3.7701375449541956, 3.9540782800177112, 4.086388526018709, 4.253651916980743, 4.437194730970077, 4.602669910993427, 4.777365657035261, 4.961437074933201, 5.152916343999095, 5.320143571938388, 5.437461638008244, 5.58719134493731, 5.768755152006634, 5.9513930570101365, 6.137094476958737, 6.319786506937817, 6.50433847703971, 6.670587911969051, 6.810789269977249, 7.053702333010733]",space,0.7355738900369033,HH,001,2019_Jul_23_1509,rev-kura_tap_2blocks,3.0.6,59.890161569470905,
./stimuli_2/tmp/medium_105_4.wav,105,medium,1.8823047760740792,,,,,,,,,0,19,19,28,,,,,,,,,,,,,,,"['space', 'space', 'space', 'space', 'space', 'space', 'space', 'space', 'space', 'space', 'space', 'space', 'space', 'space', 'space', 'space', 'space', 'space', 'space', 'space', 'space', 'space', 'space', 'space', 'space', 'space', 'space', 'space', 'space', 'space', 'space', 'space', 'space', 'space', 'space', 'space', 'space', 'space', 'space', 'space', 'space', 'space', 'space', 'space', 'space', 'space', 'space', 'space', 'space', 'space']","[1.036113981041126, 1.2101827090373263, 1.38831140298862, 1.5269573780242354, 1.6861516770441085, 1.8192356849322096, 1.952440922963433, 2.1197263300418854, 2.2693549239775166, 2.4356540689477697, 2.585861864965409, 2.743920290027745, 2.9102733599720523, 3.1705942059634253, 3.351071354933083, 3.503362932940945, 3.652701186016202, 3.853704864042811, 4.036265622940846, 4.170204285997897, 4.3350194790400565, 4.520451745949686, 4.675940228044055, 4.853846448007971, 5.019932867027819, 5.186696075950749, 5.453522225958295, 5.636515710037202, 5.803225154988468, 5.936240706010722, 6.070244738017209, 6.225892213988118, 6.403409861028194, 6.536753101972863, 6.686184396035969, 7.703158722957596, 7.869780640001409, 8.069665560033172, 8.211078942986205, 8.394913024967536, 8.528280930011533, 8.720697610988282, 8.903607269981876, 9.070049486937933, 9.254102705046535, 9.421221719007008, 9.604051492991857, 9.770896557951346, 9.954312628949992, 10.153578931931406]",space,0.6746621340280399,HH,001,2019_Jul_23_1509,rev-kura_tap_2blocks,3.0.6,59.890161569470905,
