sndfile,tempo,cond,delay,trials_practice.thisRepN,trials_practice.thisTrialN,trials_practice.thisN,trials_practice.thisIndex,trials.thisRepN,trials.thisTrialN,trials.thisN,trials.thisIndex,trials_2.thisRepN,trials_2.thisTrialN,trials_2.thisN,trials_2.thisIndex,key_resp_2.keys,key_resp_2.rt,key_resp_4.keys,key_resp_4.rt,key_resp_3.keys,key_resp_3.rt,key_resp_7.keys,key_resp_7.rt,key_resp_9.keys,key_resp_9.rt,key_resp_5.keys,key_resp_5.rt,key_resp_8.keys,key_resp_8.rt,key_resp_10.keys,key_resp_10.rt,key_resp_6.keys,key_resp_6.rt,participant,session,date,expName,psychopyVersion,frameRate,
,,,,,,,,,,,,,,,,space,12.935105016920716,,,,,,,,,,,,,,,,,II,001,2019_Jul_24_1507,rev-kura_tap_2blocks,3.0.6,60.12126062071328,
./stimuli_1/tmp/vweak_105_1.wav,105,veryweak,1.91267155,0,0,0,3,,,,,,,,,,,"['space', 'space', 'space', 'space', 'space', 'space', 'space', 'space', 'space', 'space', 'space']","[3.0532965819584206, 3.6365215469850227, 4.220240257913247, 4.82403041399084, 5.4032402449520305, 5.970587281975895, 6.55358092894312, 7.136803925968707, 7.72734075691551, 8.3371655769879, 8.903355914982967]",space,1.6916100250091404,,,,,,,,,,,,,II,001,2019_Jul_24_1507,rev-kura_tap_2blocks,3.0.6,60.12126062071328,
./stimuli_1/tmp/medium_100_1.wav,100,medium,1.797198505,0,1,1,0,,,,,,,,,,,"['space', 'space', 'space', 'space', 'space', 'space', 'space', 'space', 'space', 'space']","[3.120171020971611, 3.7415447320090607, 4.3859462949912995, 5.053140416042879, 5.7030796620529145, 6.386295545031317, 7.003425059956498, 7.653658300056122, 8.291937830043025, 8.903728183009662]",space,2.6542226490564644,,,,,,,,,,,,,II,001,2019_Jul_24_1507,rev-kura_tap_2blocks,3.0.6,60.12126062071328,
./stimuli_1/tmp/medium_110_1.wav,110,medium,1.222685394,0,2,2,4,,,,,,,,,,,"['space', 'space', 'space', 'space', 'space', 'space', 'space', 'space', 'space', 'space', 'space', 'space']","[2.9191583950305358, 3.518683747970499, 4.1026309540029615, 4.702284767990932, 5.286009190953337, 5.869803540990688, 6.38671038497705, 6.9699250280391425, 7.543318242998794, 8.152839969028719, 8.719798794016242, 9.303327857982367]",space,0.9764015590772033,,,,,,,,,,,,,II,001,2019_Jul_24_1507,rev-kura_tap_2blocks,3.0.6,60.12126062071328,
./stimuli_1/tmp/medium_110_1.wav,110,medium,0.970866786,0,3,3,2,,,,,,,,,,,"['space', 'space', 'space', 'space', 'space', 'space', 'space', 'space', 'space', 'space', 'space', 'space']","[2.9701623829314485, 3.5537957499036565, 4.119902777951211, 4.703622894012369, 5.2703276459360495, 5.871131422929466, 6.454178906977177, 7.003379227942787, 7.570805502939038, 8.177317561930977, 8.720784152974375, 9.320810033939779]",space,0.5764553339686245,,,,,,,,,,,,,II,001,2019_Jul_24_1507,rev-kura_tap_2blocks,3.0.6,60.12126062071328,
./stimuli_1/tmp/strong_90_1.wav,90,strong,1.013023596,0,4,4,1,,,,,,,,,,,"['space', 'space', 'space', 'space', 'space', 'space', 'space', 'space', 'space', 'space']","[3.1527684640605003, 3.8357806720305234, 4.502776441047899, 5.219508342095651, 5.919978677062318, 6.609229551046155, 7.336293993052095, 8.036831633071415, 8.73746185505297, 9.475047306041233]",space,0.4694550809217617,,,,,,,,,,,,,II,001,2019_Jul_24_1507,rev-kura_tap_2blocks,3.0.6,60.12126062071328,
,,,,,,,,,,,,,,,,,,,,,,space,6.625924231018871,,,,,,,,,,,II,001,2019_Jul_24_1507,rev-kura_tap_2blocks,3.0.6,60.12126062071328,
./stimuli_1/tmp/strong_105_1.wav,105,strong,1.8750845453371756,,,,,0,0,0,25,,,,,,,,,,,,,"['space', 'space', 'space', 'space', 'space', 'space', 'space', 'space', 'space', 'space', 'space', 'space', 'space']","[2.6693238749867305, 3.2265286359470338, 3.8034847929375246, 4.369228404946625, 4.919947298942134, 5.469959995010868, 6.000901866005734, 6.519787922035903, 7.1034576300298795, 7.625163369928487, 8.170513793011196, 8.703573917038739, 9.270224613021128]",space,0.5692453840747476,,,,,,,II,001,2019_Jul_24_1507,rev-kura_tap_2blocks,3.0.6,60.12126062071328,
./stimuli_1/tmp/perfect_110_0.wav,110,perfect,1.8837210676143408,,,,,0,1,1,16,,,,,,,,,,,,,"['space', 'space', 'space', 'space']","[2.7697957259370014, 3.326759440940805, 3.8870388040086254, 4.419918601983227]",space,1.3356254620011896,,,,,,,II,001,2019_Jul_24_1507,rev-kura_tap_2blocks,3.0.6,60.12126062071328,
./stimuli_1/tmp/medium_100_1.wav,100,medium,0.9469441789171564,,,,,0,2,2,47,,,,,,,,,,,,,"['space', 'space', 'space', 'space', 'space', 'space', 'space', 'space', 'space', 'space']","[3.1435573279159144, 3.8028032679576427, 4.40976372291334, 5.069885851931758, 5.703526236000471, 6.353886477998458, 7.003938784007914, 7.653147335979156, 8.2868632809259, 8.953854089952074]",space,0.5500551610020921,,,,,,,II,001,2019_Jul_24_1507,rev-kura_tap_2blocks,3.0.6,60.12126062071328,
./stimuli_1/tmp/perfect_105_1.wav,105,perfect,1.612711409659772,,,,,0,3,3,13,,,,,,,,,,,,,"['space', 'space', 'space', 'space', 'space']","[2.503432072000578, 3.0364210930420086, 3.620015571010299, 4.169753183959983, 4.719495769008063]",space,0.6102445280412212,,,,,,,II,001,2019_Jul_24_1507,rev-kura_tap_2blocks,3.0.6,60.12126062071328,
./stimuli_1/tmp/strong_100_1.wav,100,strong,1.2298337616078612,,,,,0,4,4,37,,,,,,,,,,,,,"['space', 'space', 'space', 'space', 'space', 'space', 'space', 'space', 'space', 'space', 'space']","[2.8355772169306874, 3.4525396889075637, 4.052909352001734, 4.691244688001461, 5.336285227909684, 6.037071901955642, 6.658691092976369, 7.27026020095218, 7.953293920960277, 8.58652961498592, 9.240136181004345]",space,0.6030872910050675,,,,,,,II,001,2019_Jul_24_1507,rev-kura_tap_2blocks,3.0.6,60.12126062071328,
./stimuli_1/tmp/weak_95_1.wav,95,weak,1.9726481258285025,,,,,0,5,5,43,,,,,,,,,,,,,"['space', 'space', 'space', 'space', 'space', 'space', 'space', 'space', 'space', 'space']","[3.075668264995329, 3.7700572200119495, 4.403590769972652, 5.003626202000305, 5.653632767032832, 6.33644776197616, 6.987602866021916, 7.65353742800653, 8.354589633992873, 9.0206923650112]",space,0.6284873810363933,,,,,,,II,001,2019_Jul_24_1507,rev-kura_tap_2blocks,3.0.6,60.12126062071328,
./stimuli_1/tmp/vweak_105_2.wav,105,veryweak,1.1450150374808907,,,,,0,6,6,9,,,,,,,,,,,,,"['space', 'space', 'space', 'space', 'space', 'space', 'space', 'space', 'space', 'space']","[3.3026360899675637, 3.8770969529869035, 4.519646011991426, 5.169608699972741, 5.802892116946168, 6.453199987998232, 7.070169494021684, 7.704120805021375, 8.386997180990875, 9.004383063991554]",space,0.41935034096241,,,,,,,II,001,2019_Jul_24_1507,rev-kura_tap_2blocks,3.0.6,60.12126062071328,
./stimuli_1/tmp/perfect_95_0.wav,95,perfect,1.4400885785760469,,,,,0,7,7,26,,,,,,,,,,,,,"['space', 'space', 'space', 'space', 'space']","[3.0359326669713482, 3.6527299870504066, 4.252568989992142, 4.901034674025141, 5.502191302017309]",space,0.6358997540082783,,,,,,,II,001,2019_Jul_24_1507,rev-kura_tap_2blocks,3.0.6,60.12126062071328,
./stimuli_1/tmp/weak_110_2.wav,110,weak,1.1450489585925383,,,,,0,8,8,0,,,,,,,,,,,,,"['space', 'space', 'space', 'space', 'space', 'space', 'space', 'space', 'space', 'space', 'space', 'space', 'space', 'space', 'space']","[2.186025858973153, 2.7032123800599948, 3.2198616680689156, 3.686572649050504, 4.203075101017021, 4.703282108064741, 5.2035411320393905, 5.669525291072205, 6.170169117976911, 6.65335363696795, 7.120346675044857, 7.637686984962784, 8.153685157070868, 8.670626651030034, 9.170745623065159]",space,0.4740740889683366,,,,,,,II,001,2019_Jul_24_1507,rev-kura_tap_2blocks,3.0.6,60.12126062071328,
./stimuli_1/tmp/vweak_95_1.wav,95,veryweak,2.279644213301781,,,,,0,9,9,24,,,,,,,,,,,,,"['space', 'space', 'space', 'space', 'space', 'space', 'space', 'space', 'space', 'space', 'space']","[2.7704786460381, 3.3361633990425617, 3.920152544043958, 4.519654309959151, 5.125967059051618, 5.736982156988233, 6.354144531069323, 6.970779872033745, 7.537402207031846, 8.177849019062705, 8.787511712987907]",space,0.3863899949938059,,,,,,,II,001,2019_Jul_24_1507,rev-kura_tap_2blocks,3.0.6,60.12126062071328,
./stimuli_1/tmp/vweak_100_2.wav,100,veryweak,0.9843923106260049,,,,,0,10,10,5,,,,,,,,,,,,,"['space', 'space', 'space', 'space', 'space', 'space', 'space', 'space', 'space', 'space', 'space']","[2.8576526349643245, 3.4031366399722174, 3.9857206910382956, 4.585646260064095, 5.219374381005764, 5.869738482055254, 6.452593925991096, 7.1532516709994525, 7.803445428027771, 8.409020051010884, 9.03691720601637]",space,0.5694520339602605,,,,,,,II,001,2019_Jul_24_1507,rev-kura_tap_2blocks,3.0.6,60.12126062071328,
./stimuli_1/tmp/strong_105_2.wav,105,strong,0.9615404084728899,,,,,0,11,11,31,,,,,,,,,,,,,"['space', 'space', 'space', 'space', 'space', 'space', 'space', 'space', 'space', 'space']","[3.2702333990018815, 3.886253561009653, 4.486868355073966, 5.136391596053727, 5.736694014049135, 6.420052280998789, 7.05399219202809, 7.7037467589834705, 8.38698338298127, 9.02045494900085]",space,0.6364647060399875,,,,,,,II,001,2019_Jul_24_1507,rev-kura_tap_2blocks,3.0.6,60.12126062071328,
./stimuli_1/tmp/perfect_105_0.wav,105,perfect,2.376167666662905,,,,,0,12,12,11,,,,,,,,,,,,,"['space', 'space', 'space', 'space', 'space']","[2.500949554028921, 3.069559182971716, 3.669266860000789, 4.219596083974466, 4.845297473948449]",space,0.6192837649723515,,,,,,,II,001,2019_Jul_24_1507,rev-kura_tap_2blocks,3.0.6,60.12126062071328,
./stimuli_1/tmp/perfect_90_1.wav,90,perfect,0.8790589196072783,,,,,0,13,13,39,,,,,,,,,,,,,"['space', 'space', 'space', 'space', 'space', 'space']","[3.415662251994945, 4.081873311079107, 4.71468385506887, 5.3487268660683185, 6.014797987067141, 6.715581141994335]",space,0.7115743990289047,,,,,,,II,001,2019_Jul_24_1507,rev-kura_tap_2blocks,3.0.6,60.12126062071328,
./stimuli_1/tmp/strong_95_2.wav,95,strong,1.1173507911145857,,,,,0,14,14,27,,,,,,,,,,,,,"['space', 'space', 'space', 'space', 'space', 'space', 'space', 'space', 'space', 'space']","[3.3190938159823418, 3.9361723290057853, 4.552492868970148, 5.226444144034758, 5.886767926043831, 6.553705730009824, 7.187233846983872, 7.8203775599831715, 8.453274518018588, 9.120545224985108]",space,0.6355367740616202,,,,,,,II,001,2019_Jul_24_1507,rev-kura_tap_2blocks,3.0.6,60.12126062071328,
./stimuli_1/tmp/weak_105_2.wav,105,weak,2.065051120273794,,,,,0,15,15,48,,,,,,,,,,,,,"['space', 'space', 'space', 'space', 'space', 'space', 'space', 'space', 'space', 'space', 'space', 'space']","[2.502557831001468, 3.0860224990174174, 3.635994330048561, 4.318921554018743, 5.186354669975117, 5.794412930961698, 6.386607342981733, 6.936104238964617, 7.536265040049329, 8.120076930965297, 8.711151440977119, 9.353599403984845]",space,0.4753505199914798,,,,,,,II,001,2019_Jul_24_1507,rev-kura_tap_2blocks,3.0.6,60.12126062071328,
./stimuli_1/tmp/medium_110_1.wav,110,medium,1.6223651347148935,,,,,0,16,16,10,,,,,,,,,,,,,"['space', 'space', 'space', 'space', 'space', 'space', 'space', 'space', 'space', 'space', 'space', 'space']","[3.014677657978609, 3.5305689410306513, 4.098260478000157, 4.6814517240272835, 5.2648839929606766, 5.831158202025108, 6.414829466957599, 6.965212019975297, 7.565117088030092, 8.14843425899744, 8.681652304949239, 9.299329190980643]",space,0.36180470196995884,,,,,,,II,001,2019_Jul_24_1507,rev-kura_tap_2blocks,3.0.6,60.12126062071328,
./stimuli_1/tmp/medium_90_2.wav,90,medium,2.1384331573709567,,,,,0,17,17,46,,,,,,,,,,,,,"['space', 'space', 'space', 'space', 'space', 'space', 'space', 'space', 'space', 'space']","[3.1864376770099625, 3.803034550976008, 4.519619895960204, 5.169846958015114, 5.852740454953164, 6.519772897940129, 7.18697646597866, 7.88458073802758, 8.58717589697335, 9.270484587992541]",space,1.0856954449554905,,,,,,,II,001,2019_Jul_24_1507,rev-kura_tap_2blocks,3.0.6,60.12126062071328,
./stimuli_1/tmp/weak_100_2.wav,100,weak,0.9744812486321696,,,,,0,18,18,20,,,,,,,,,,,,,"['space', 'space', 'space', 'space', 'space', 'space', 'space', 'space', 'space', 'space', 'space', 'space']","[2.58400346909184, 3.1367399300215766, 3.7700492420699447, 4.3861780050210655, 5.01041879307013, 5.670558872981928, 6.303625000989996, 6.837379100034013, 7.470102886087261, 8.053796545020305, 8.703072815085761, 9.35393569408916]",space,0.4188503560144454,,,,,,,II,001,2019_Jul_24_1507,rev-kura_tap_2blocks,3.0.6,60.12126062071328,
./stimuli_1/tmp/strong_110_2.wav,110,strong,1.9369911731854192,,,,,0,19,19,6,,,,,,,,,,,,,"['space', 'space', 'space', 'space', 'space', 'space', 'space', 'space', 'space', 'space', 'space', 'space']","[2.9028188050724566, 3.4534488130593672, 4.009203745052218, 4.61994908307679, 5.208041307050735, 5.819934391067363, 6.369604586972855, 6.937067297985777, 7.5177307040430605, 8.10357290902175, 8.67060820700135, 9.320722943055443]",space,0.6022304010111839,,,,,,,II,001,2019_Jul_24_1507,rev-kura_tap_2blocks,3.0.6,60.12126062071328,
./stimuli_1/tmp/perfect_110_1.wav,110,perfect,1.7704271467992068,,,,,0,20,20,18,,,,,,,,,,,,,"['space', 'space', 'space', 'space']","[2.7974949019262567, 3.2973613719223067, 3.8715685720089823, 4.414468662929721]",space,0.7338033199775964,,,,,,,II,001,2019_Jul_24_1507,rev-kura_tap_2blocks,3.0.6,60.12126062071328,
./stimuli_1/tmp/weak_90_1.wav,90,weak,1.282481392037714,,,,,0,21,21,29,,,,,,,,,,,,,"['space', 'space', 'space', 'space', 'space', 'space', 'space', 'space', 'space', 'space', 'space', 'space']","[3.10078022594098, 3.6673488109372556, 4.252727782935835, 4.902696845936589, 5.525196793023497, 6.0189296919852495, 6.603186678956263, 7.153460960951634, 7.752962428028695, 8.386471798992716, 8.974933865014464, 9.603769907029346]",space,0.38597855798434466,,,,,,,II,001,2019_Jul_24_1507,rev-kura_tap_2blocks,3.0.6,60.12126062071328,
./stimuli_1/tmp/perfect_90_0.wav,90,perfect,1.6568604876231643,,,,,0,22,22,35,,,,,,,,,,,,,"['space', 'space', 'space', 'space', 'space', 'space']","[3.4157050730427727, 4.048279953072779, 4.699305017013103, 5.39840428205207, 6.014697366044857, 6.648235302069224]",space,0.7026959001086652,,,,,,,II,001,2019_Jul_24_1507,rev-kura_tap_2blocks,3.0.6,60.12126062071328,
./stimuli_1/tmp/vweak_90_2.wav,90,veryweak,1.0044987578235975,,,,,0,23,23,40,,,,,,,,,,,,,"['space', 'space', 'space', 'space', 'space', 'space', 'space', 'space', 'space', 'space', 'space', 'space']","[3.0028177249478176, 3.570063640945591, 4.185792444040999, 4.886538226972334, 5.479080229997635, 6.0867219499778, 6.669680487946607, 7.2870338909560814, 7.804051721934229, 8.27047995198518, 8.775343697983772, 9.371597616933286]",space,0.40321082703303546,,,,,,,II,001,2019_Jul_24_1507,rev-kura_tap_2blocks,3.0.6,60.12126062071328,
./stimuli_1/tmp/perfect_100_0.wav,100,perfect,2.1771183722066985,,,,,0,24,24,2,,,,,,,,,,,,,"['space', 'space', 'space', 'space', 'space', 'space']","[2.7840286870487034, 3.3364585500676185, 3.9364733720431104, 4.537022090051323, 5.119348252075724, 5.743317018030211]",space,0.48600940604228526,,,,,,,II,001,2019_Jul_24_1507,rev-kura_tap_2blocks,3.0.6,60.12126062071328,
./stimuli_1/tmp/vweak_110_2.wav,110,veryweak,1.2375564653250335,,,,,0,25,25,28,,,,,,,,,,,,,"['space', 'space', 'space', 'space', 'space', 'space', 'space', 'space', 'space', 'space', 'space', 'space']","[2.7533700020285323, 3.240243138046935, 3.786076255957596, 4.285741467028856, 4.8526087660575286, 5.453328793984838, 6.036771027022041, 6.736441939021461, 7.403370696003549, 8.019615074037574, 8.536823158035986, 9.087366309016943]",space,0.4196141029242426,,,,,,,II,001,2019_Jul_24_1507,rev-kura_tap_2blocks,3.0.6,60.12126062071328,
./stimuli_1/tmp/perfect_95_1.wav,95,perfect,0.8659592093324232,,,,,0,26,26,22,,,,,,,,,,,,,"['space', 'space', 'space', 'space', 'space']","[3.036100215977058, 3.6197874000063166, 4.252964352956042, 4.9191966919461265, 5.502972163958475]",space,0.5097847550641745,,,,,,,II,001,2019_Jul_24_1507,rev-kura_tap_2blocks,3.0.6,60.12126062071328,
./stimuli_1/tmp/vweak_105_1.wav,105,veryweak,2.000868469173824,,,,,0,27,27,7,,,,,,,,,,,,,"['space', 'space', 'space', 'space', 'space', 'space', 'space', 'space', 'space', 'space', 'space']","[3.102796143037267, 3.6855061770183966, 4.236017732066102, 4.836208287044428, 5.441175854997709, 6.002874103025533, 6.562178460066207, 7.184638739097863, 7.770042943069711, 8.353143293061294, 8.984866878017783]",space,0.8529247010592371,,,,,,,II,001,2019_Jul_24_1507,rev-kura_tap_2blocks,3.0.6,60.12126062071328,
./stimuli_1/tmp/weak_100_1.wav,100,weak,0.9200911357943652,,,,,0,28,28,15,,,,,,,,,,,,,"['space', 'space', 'space', 'space', 'space', 'space', 'space', 'space', 'space', 'space', 'space']","[2.9870627159252763, 3.5857697169994935, 4.136147114913911, 4.752568071940914, 5.34155492298305, 5.9194282599492, 6.536582530010492, 7.136618921998888, 7.787062695948407, 8.420217302977107, 9.053341883001849]",space,0.8697224640054628,,,,,,,II,001,2019_Jul_24_1507,rev-kura_tap_2blocks,3.0.6,60.12126062071328,
./stimuli_1/tmp/vweak_100_1.wav,100,veryweak,1.441965324529146,,,,,0,29,29,4,,,,,,,,,,,,,"['space', 'space', 'space', 'space', 'space']","[7.153991239960305, 7.637067315052263, 8.354083937010728, 8.959088717005216, 9.503886637976393]",space,0.36226757999975234,,,,,,,II,001,2019_Jul_24_1507,rev-kura_tap_2blocks,3.0.6,60.12126062071328,
./stimuli_1/tmp/medium_110_2.wav,110,medium,1.962096670593472,,,,,0,30,30,12,,,,,,,,,,,,,"['space', 'space', 'space', 'space', 'space', 'space', 'space', 'space', 'space', 'space', 'space', 'space']","[2.5525296799605712, 3.151744481991045, 3.7353861490264535, 4.208992474945262, 4.769457638030872, 5.352900005993433, 5.886436510947533, 6.519897833932191, 7.119600308011286, 7.708315443014726, 8.303604927961715, 8.986394693958573]",space,0.5359894770663232,,,,,,,II,001,2019_Jul_24_1507,rev-kura_tap_2blocks,3.0.6,60.12126062071328,
./stimuli_1/tmp/weak_95_2.wav,95,weak,1.3391653351857111,,,,,0,31,31,38,,,,,,,,,,,,,"['space', 'space', 'space', 'space', 'space', 'space', 'space', 'space', 'space', 'space']","[2.8363419950474054, 3.4611925970530137, 4.186995262047276, 4.903462892048992, 5.603720300015993, 6.287458903971128, 7.002418047981337, 7.771372203947976, 8.454531069961376, 9.137790963985026]",space,0.38587597000878304,,,,,,,II,001,2019_Jul_24_1507,rev-kura_tap_2blocks,3.0.6,60.12126062071328,
./stimuli_1/tmp/medium_105_2.wav,105,medium,0.8825097572066065,,,,,0,32,32,17,,,,,,,,,,,,,"['space', 'space', 'space', 'space', 'space', 'space', 'space', 'space', 'space', 'space', 'space']","[3.094195475918241, 3.5870535370195284, 4.126727095921524, 4.670770240016282, 5.220340054947883, 5.78699727403, 6.37047740991693, 7.020326944999397, 7.820765482028946, 8.470735131995752, 9.154560765018687]",space,0.4186317479470745,,,,,,,II,001,2019_Jul_24_1507,rev-kura_tap_2blocks,3.0.6,60.12126062071328,
./stimuli_1/tmp/medium_100_2.wav,100,medium,1.5709881706161974,,,,,0,33,33,44,,,,,,,,,,,,,"['space', 'space', 'space', 'space', 'space', 'space', 'space', 'space', 'space', 'space', 'space']","[2.6028757320018485, 3.167522206902504, 3.7455393539275974, 4.352734582964331, 5.0865217939717695, 5.853214262984693, 6.488000534009188, 7.070271145901643, 7.821125435992144, 8.603671680903062, 9.168775937985629]",space,0.43566608405672014,,,,,,,II,001,2019_Jul_24_1507,rev-kura_tap_2blocks,3.0.6,60.12126062071328,
./stimuli_1/tmp/weak_110_1.wav,110,weak,2.302762081100819,,,,,0,34,34,3,,,,,,,,,,,,,"['space', 'space', 'space', 'space', 'space', 'space', 'space', 'space', 'space', 'space', 'space', 'space']","[2.99825107306242, 3.5029815069865435, 4.129149873973802, 4.690873063984327, 5.264845230965875, 5.88180990004912, 6.431792195071466, 6.965656743035652, 7.520461949985474, 8.148096112068743, 8.781535831047222, 9.348717276006937]",space,0.43498266104143113,,,,,,,II,001,2019_Jul_24_1507,rev-kura_tap_2blocks,3.0.6,60.12126062071328,
./stimuli_1/tmp/medium_105_1.wav,105,medium,1.6663985327680324,,,,,0,35,35,21,,,,,,,,,,,,,"['space', 'space', 'space', 'space', 'space', 'space', 'space', 'space', 'space', 'space', 'space', 'space', 'space']","[2.4648290609475225, 3.0144313869532198, 3.548675645957701, 4.090603236923926, 4.681232897914015, 5.265341997961514, 5.831917457981035, 6.398284125956707, 6.948674471932463, 7.588735485915095, 8.13220565195661, 8.69876869698055, 9.265638134907931]",space,0.6023585370276123,,,,,,,II,001,2019_Jul_24_1507,rev-kura_tap_2blocks,3.0.6,60.12126062071328,
./stimuli_1/tmp/strong_90_2.wav,90,strong,1.29545815814535,,,,,0,36,36,36,,,,,,,,,,,,,"['space', 'space', 'space', 'space', 'space', 'space', 'space', 'space', 'space', 'space', 'space']","[2.9029019919689745, 3.536134987953119, 4.202836218988523, 4.853074455051683, 5.486602943041362, 6.159309851936996, 6.77042066201102, 7.419758280972019, 8.103204758022912, 8.728005373035558, 9.336958377971314]",space,0.48365730000659823,,,,,,,II,001,2019_Jul_24_1507,rev-kura_tap_2blocks,3.0.6,60.12126062071328,
./stimuli_1/tmp/weak_105_1.wav,105,weak,2.3476680969619683,,,,,0,37,37,45,,,,,,,,,,,,,"['space', 'space', 'space', 'space', 'space', 'space', 'space', 'space', 'space', 'space']","[3.335881476989016, 3.9242057689698413, 4.635733672068454, 5.219759177067317, 5.952920362004079, 6.634501965017989, 7.203533662017435, 7.9257518700324, 8.653344276011921, 9.286179287009872]",space,0.4776152200065553,,,,,,,II,001,2019_Jul_24_1507,rev-kura_tap_2blocks,3.0.6,60.12126062071328,
./stimuli_1/tmp/vweak_95_2.wav,95,veryweak,1.1399322262275913,,,,,0,38,38,30,,,,,,,,,,,,,"['space', 'space', 'space', 'space', 'space', 'space', 'space', 'space', 'space', 'space', 'space']","[3.2183221159502864, 3.8423857529414818, 4.4180921299848706, 5.018434899975546, 5.61865225690417, 6.234856019960716, 6.835442226962186, 7.519017300917767, 8.085387923987582, 8.719087039935403, 9.352220309898257]",space,0.3693199410336092,,,,,,,II,001,2019_Jul_24_1507,rev-kura_tap_2blocks,3.0.6,60.12126062071328,
./stimuli_1/tmp/strong_90_1.wav,90,strong,1.0878185010355936,,,,,0,39,39,41,,,,,,,,,,,,,"['space', 'space', 'space', 'space', 'space', 'space', 'space', 'space', 'space', 'space']","[3.1865368760190904, 3.8513837170321494, 4.570365417050198, 5.219533259049058, 5.870074867038056, 6.603658340056427, 7.353859807015397, 8.053789814002812, 8.72055274003651, 9.470685667009093]",space,1.462292411015369,,,,,,,II,001,2019_Jul_24_1507,rev-kura_tap_2blocks,3.0.6,60.12126062071328,
./stimuli_1/tmp/strong_110_1.wav,110,strong,2.342405954917332,,,,,0,40,40,8,,,,,,,,,,,,,"['space', 'space', 'space', 'space', 'space', 'space', 'space', 'space', 'space', 'space', 'space', 'space']","[2.920131982071325, 3.4192350880475715, 3.9508780220057815, 4.569220836041495, 5.1941469280282035, 5.736400057096034, 6.335447930032387, 6.936443921062164, 7.503090177080594, 8.037209770060144, 8.625561736058444, 9.220395451993681]",space,2.0693517229519784,,,,,,,II,001,2019_Jul_24_1507,rev-kura_tap_2blocks,3.0.6,60.12126062071328,
./stimuli_1/tmp/medium_90_1.wav,90,medium,1.3827594725962091,,,,,0,41,41,49,,,,,,,,,,,,,"['space', 'space', 'space', 'space', 'space', 'space', 'space', 'space', 'space']","[3.5341868329560384, 4.169447915977798, 4.852956869988702, 5.586583828902803, 6.258275039959699, 6.969431686913595, 7.686277942964807, 8.353364555980079, 9.070396655937657]",space,0.4959168420173228,,,,,,,II,001,2019_Jul_24_1507,rev-kura_tap_2blocks,3.0.6,60.12126062071328,
./stimuli_1/tmp/weak_90_2.wav,90,weak,2.0384375203910188,,,,,0,42,42,23,,,,,,,,,,,,,"['space', 'space', 'space', 'space', 'space', 'space', 'space', 'space', 'space', 'space', 'space']","[3.136352021014318, 3.7361568540800363, 4.357767848065123, 5.020055745029822, 5.7198724950430915, 6.34138865408022, 6.986282987054437, 7.6372830889886245, 8.253349949023686, 8.903137878980488, 9.586632410995662]",space,0.7862453339621425,,,,,,,II,001,2019_Jul_24_1507,rev-kura_tap_2blocks,3.0.6,60.12126062071328,
./stimuli_1/tmp/medium_95_1.wav,95,medium,1.3706215803300168,,,,,0,43,43,19,,,,,,,,,,,,,"['space', 'space', 'space', 'space', 'space', 'space', 'space', 'space', 'space', 'space']","[3.069549212930724, 3.605052063940093, 4.286651537986472, 4.96947301691398, 5.653064128942788, 6.320018135011196, 7.003814013907686, 7.6700630619889125, 8.329732142970897, 9.00308908498846]",space,0.6755841199774295,,,,,,,II,001,2019_Jul_24_1507,rev-kura_tap_2blocks,3.0.6,60.12126062071328,
./stimuli_1/tmp/medium_95_2.wav,95,medium,2.475357682924177,,,,,0,44,44,14,,,,,,,,,,,,,"['space', 'space', 'space', 'space', 'space', 'space', 'space', 'space', 'space']","[3.50287428998854, 4.184183756937273, 4.836570700979792, 5.503090086043812, 6.222743442980573, 6.953508667997085, 7.63735745404847, 8.319709128001705, 8.987431967048906]",space,0.4360315900994465,,,,,,,II,001,2019_Jul_24_1507,rev-kura_tap_2blocks,3.0.6,60.12126062071328,
./stimuli_1/tmp/strong_95_1.wav,95,strong,1.2238592690797745,,,,,0,45,45,33,,,,,,,,,,,,,"['space', 'space', 'space', 'space', 'space', 'space', 'space', 'space', 'space', 'space', 'space']","[3.154398752027191, 3.753601414966397, 4.320687811006792, 4.8879239819943905, 5.504767889040522, 6.089036655961536, 6.721671198029071, 7.337807827978395, 7.943186130956747, 8.536918647005223, 9.136137710069306]",space,0.7127136150375009,,,,,,,II,001,2019_Jul_24_1507,rev-kura_tap_2blocks,3.0.6,60.12126062071328,
./stimuli_1/tmp/vweak_110_1.wav,110,veryweak,1.3407186132175697,,,,,0,46,46,32,,,,,,,,,,,,,"['space', 'space', 'space', 'space', 'space', 'space', 'space', 'space', 'space', 'space']","[4.286443979945034, 4.952784458990209, 5.585801844019443, 6.110569266951643, 6.619775919942185, 7.119307623943314, 7.769429174950346, 8.35283181304112, 8.90322386904154, 9.458202057983726]",space,0.3623837810009718,,,,,,,II,001,2019_Jul_24_1507,rev-kura_tap_2blocks,3.0.6,60.12126062071328,
./stimuli_1/tmp/vweak_90_1.wav,90,veryweak,0.8362780865168179,,,,,0,47,47,34,,,,,,,,,,,,,"['space', 'space', 'space', 'space', 'space', 'space', 'space', 'space', 'space']","[3.5696630920283496, 4.337097869953141, 5.053785078926012, 5.7182405409403145, 6.453638511011377, 7.170386275975034, 7.8872878479305655, 8.620704710949212, 9.337440495961346]",space,0.4496463070390746,,,,,,,II,001,2019_Jul_24_1507,rev-kura_tap_2blocks,3.0.6,60.12126062071328,
./stimuli_1/tmp/perfect_100_1.wav,100,perfect,2.462429502310373,,,,,0,48,48,1,,,,,,,,,,,,,"['space', 'space', 'space', 'space', 'space']","[2.7458103470271453, 3.3294295240193605, 3.9153483889531344, 4.532597866025753, 5.1653340719640255]",space,0.58406758797355,,,,,,,II,001,2019_Jul_24_1507,rev-kura_tap_2blocks,3.0.6,60.12126062071328,
./stimuli_1/tmp/strong_100_2.wav,100,strong,1.5994648074282498,,,,,0,49,49,42,,,,,,,,,,,,,"['space', 'space', 'space', 'space', 'space', 'space', 'space', 'space', 'space', 'space', 'space']","[3.136591382906772, 3.719997394946404, 4.336199095007032, 4.9693971269298345, 5.55297158495523, 6.102805755916052, 6.719965177006088, 7.327325399965048, 7.9863182889530435, 8.570621577906422, 9.187181039014831]",space,0.5109751980053261,,,,,,,II,001,2019_Jul_24_1507,rev-kura_tap_2blocks,3.0.6,60.12126062071328,
,,,,,,,,,,,,,,,,,,,,,,,,,,,,space,42.1083270580275,,,,,II,001,2019_Jul_24_1507,rev-kura_tap_2blocks,3.0.6,60.12126062071328,
./stimuli_2/tmp/medium_90_4.wav,90,medium,1.4187547606829107,,,,,,,,,0,0,0,39,,,,,,,,,,,,,,,"['space', 'space', 'space', 'space', 'space', 'space', 'space', 'space', 'space', 'space']","[3.262852163054049, 3.8477660149801522, 4.462960093980655, 5.086919145076536, 5.665110831032507, 6.298172906041145, 6.948819907032885, 7.581848954083398, 8.282935576979071, 8.882176621002145]",space,0.5571398879401386,II,001,2019_Jul_24_1507,rev-kura_tap_2blocks,3.0.6,60.12126062071328,
./stimuli_2/tmp/perfect_95_1.wav,95,perfect,1.6931350678865988,,,,,,,,,0,1,1,26,,,,,,,,,,,,,,,"['space', 'space', 'space', 'space', 'space']","[3.0537200369872153, 3.6195168839767575, 4.203357013990171, 4.819402740919031, 5.458317748969421]",space,0.5151703819865361,II,001,2019_Jul_24_1507,rev-kura_tap_2blocks,3.0.6,60.12126062071328,
./stimuli_2/tmp/perfect_95_0.wav,95,perfect,2.0105466277142785,,,,,,,,,0,2,2,30,,,,,,,,,,,,,,,"['space', 'space', 'space', 'space', 'space']","[3.0533410700736567, 3.6531667900271714, 4.25356045702938, 4.869550963048823, 5.510525302030146]",space,0.5282134970184416,II,001,2019_Jul_24_1507,rev-kura_tap_2blocks,3.0.6,60.12126062071328,
./stimuli_2/tmp/vweak_110_4.wav,110,veryweak,1.4056094097142195,,,,,,,,,0,3,3,20,,,,,,,,,,,,,,,"['space', 'space', 'space', 'space', 'space', 'space', 'space', 'space', 'space', 'space', 'space', 'space', 'space']","[2.852934238035232, 3.402130963979289, 3.953244650037959, 4.475724542979151, 4.9690613149432465, 5.524581387988292, 6.103261017939076, 6.653411856037565, 7.204029356944375, 7.742610265966505, 8.269736018031836, 8.836865796940401, 9.387216300005093]",space,0.3307636370882392,II,001,2019_Jul_24_1507,rev-kura_tap_2blocks,3.0.6,60.12126062071328,
./stimuli_2/tmp/perfect_110_0.wav,110,perfect,1.6760608294086363,,,,,,,,,0,4,4,14,,,,,,,,,,,,,,,"['space', 'space', 'space', 'space']","[2.798180375015363, 3.2974342899397016, 3.831245965906419, 4.414719368913211]",space,0.38647956296335906,II,001,2019_Jul_24_1507,rev-kura_tap_2blocks,3.0.6,60.12126062071328,
./stimuli_2/tmp/weak_95_3.wav,95,weak,1.2112449492962023,,,,,,,,,0,5,5,36,,,,,,,,,,,,,,,"['space', 'space', 'space', 'space', 'space', 'space', 'space', 'space', 'space']","[3.491677889949642, 4.137000048998743, 4.786967840977013, 5.436557432985865, 6.159542220993899, 6.8201843169517815, 7.5043726079165936, 8.219864752027206, 8.954282313003205]",space,0.6589822099776939,II,001,2019_Jul_24_1507,rev-kura_tap_2blocks,3.0.6,60.12126062071328,
./stimuli_2/tmp/vweak_95_4.wav,95,veryweak,1.2922043074511544,,,,,,,,,0,6,6,22,,,,,,,,,,,,,,,"['space', 'space', 'space', 'space', 'space', 'space', 'space', 'space', 'space', 'space', 'space']","[3.053263494046405, 3.574304669047706, 4.167994044953957, 4.767219668952748, 5.420041137025692, 6.002829605946317, 6.603218395030126, 7.186406405991875, 7.819736671983264, 8.47005685896147, 9.070710988016799]",space,0.5027233820874244,II,001,2019_Jul_24_1507,rev-kura_tap_2blocks,3.0.6,60.12126062071328,
./stimuli_2/tmp/perfect_110_1.wav,110,perfect,1.960810456770172,,,,,,,,,0,7,7,17,,,,,,,,,,,,,,,"['space', 'space', 'space', 'space']","[2.7777435049647465, 3.3190288270125166, 3.8430906319990754, 4.4199339599581435]",space,0.3861176879145205,II,001,2019_Jul_24_1507,rev-kura_tap_2blocks,3.0.6,60.12126062071328,
./stimuli_2/tmp/vweak_90_3.wav,90,veryweak,0.8098621072043313,,,,,,,,,0,8,8,42,,,,,,,,,,,,,,,"['space', 'space', 'space', 'space', 'space', 'space', 'space', 'space', 'space', 'space', 'space', 'space']","[2.6148688179673627, 3.1708476589992642, 3.7648758119903505, 4.414431576966308, 5.072833758895285, 5.64829263498541, 6.232262078905478, 6.702817222918384, 7.212638563942164, 7.798294027918018, 8.413677487988025, 8.981774084968492]",space,0.5417001759633422,II,001,2019_Jul_24_1507,rev-kura_tap_2blocks,3.0.6,60.12126062071328,
./stimuli_2/tmp/medium_95_4.wav,95,medium,1.5689377747074644,,,,,,,,,0,9,9,27,,,,,,,,,,,,,,,"['space', 'space', 'space', 'space', 'space', 'space', 'space', 'space', 'space', 'space']","[3.1863884649937972, 3.7693764319410548, 4.453152439906262, 5.178620802005753, 5.8511445159092546, 6.475064534926787, 7.136914803995751, 7.820441951975226, 8.558668031939305, 9.27077108900994]",space,1.5439845750806853,II,001,2019_Jul_24_1507,rev-kura_tap_2blocks,3.0.6,60.12126062071328,
./stimuli_2/tmp/weak_100_4.wav,100,weak,1.8643156091783653,,,,,,,,,0,10,10,33,,,,,,,,,,,,,,,"['space', 'space', 'space', 'space', 'space', 'space', 'space', 'space', 'space', 'space', 'space']","[2.9191290490562096, 3.552535779075697, 4.202656929031946, 4.793858412071131, 5.386418555048294, 6.053076025098562, 6.719775655074045, 7.302733574993908, 7.951042213011533, 8.570393733098172, 9.19190759700723]",space,0.5687581259990111,II,001,2019_Jul_24_1507,rev-kura_tap_2blocks,3.0.6,60.12126062071328,
./stimuli_2/tmp/medium_100_4.wav,100,medium,1.1108721091211078,,,,,,,,,0,11,11,35,,,,,,,,,,,,,,,"['space', 'space', 'space', 'space', 'space', 'space', 'space', 'space', 'space', 'space', 'space']","[2.835838612052612, 3.4355986340669915, 4.074687354033813, 4.735997264971957, 5.369702795986086, 6.0013461579801515, 6.619633827009238, 7.285979063017294, 7.970336186001077, 8.600988182006404, 9.207473017042503]",space,0.41884957102593035,II,001,2019_Jul_24_1507,rev-kura_tap_2blocks,3.0.6,60.12126062071328,
./stimuli_2/tmp/medium_105_3.wav,105,medium,0.9417007635762324,,,,,,,,,0,12,12,15,,,,,,,,,,,,,,,"['space', 'space', 'space', 'space', 'space', 'space', 'space', 'space', 'space', 'space', 'space', 'space']","[2.4186031989520416, 2.969770197989419, 3.5201953939395025, 4.05294723494444, 4.670107768033631, 5.243873000959866, 5.837039998965338, 6.486851632944308, 7.221255974960513, 7.8707627799594775, 8.48738476797007, 9.036856652004644]",space,0.38357223698403686,II,001,2019_Jul_24_1507,rev-kura_tap_2blocks,3.0.6,60.12126062071328,
./stimuli_2/tmp/strong_105_3.wav,105,strong,1.2846849156286215,,,,,,,,,0,13,13,31,,,,,,,,,,,,,,,"['space', 'space', 'space', 'space', 'space', 'space', 'space', 'space', 'space', 'space', 'space', 'space', 'space']","[2.6248125180136412, 3.1205495330505073, 3.675889772013761, 4.219931808998808, 4.853048481978476, 5.43644556007348, 6.003226152970456, 6.568686550017446, 7.126534303068183, 7.670559577993117, 8.186719888006337, 8.804219715995714, 9.38738289102912]",space,0.36874231102410704,II,001,2019_Jul_24_1507,rev-kura_tap_2blocks,3.0.6,60.12126062071328,
./stimuli_2/tmp/medium_110_4.wav,110,medium,1.2412593574024813,,,,,,,,,0,14,14,8,,,,,,,,,,,,,,,"['space', 'space', 'space', 'space', 'space', 'space', 'space', 'space', 'space', 'space', 'space', 'space']","[2.660328058991581, 3.2369924529921263, 3.7700077899498865, 4.35315417998936, 4.869969759951346, 5.436329817981459, 5.954353941953741, 6.586895357002504, 7.178552008932456, 7.686844848911278, 8.28507402795367, 8.853272070991807]",space,0.36911593994591385,II,001,2019_Jul_24_1507,rev-kura_tap_2blocks,3.0.6,60.12126062071328,
./stimuli_2/tmp/strong_100_4.wav,100,strong,1.3398198733573277,,,,,,,,,0,15,15,48,,,,,,,,,,,,,,,"['space', 'space', 'space', 'space', 'space', 'space', 'space', 'space', 'space', 'space', 'space']","[3.069167552050203, 3.686678700032644, 4.317703452077694, 4.886691909050569, 5.552825034013949, 6.120229427004233, 6.736428362084553, 7.392882394022308, 8.020217607030645, 8.637198808020912, 9.318337981007062]",space,0.31898048310540617,II,001,2019_Jul_24_1507,rev-kura_tap_2blocks,3.0.6,60.12126062071328,
./stimuli_2/tmp/weak_95_4.wav,95,weak,1.59401142701977,,,,,,,,,0,16,16,46,,,,,,,,,,,,,,,"['space', 'space', 'space', 'space', 'space', 'space', 'space', 'space', 'space']","[3.796981535037048, 4.530659678042866, 5.13784304400906, 5.897844782099128, 6.614135084091686, 7.347492826054804, 8.065311499056406, 8.798382564098574, 9.548452455084771]",space,0.30053914489690214,II,001,2019_Jul_24_1507,rev-kura_tap_2blocks,3.0.6,60.12126062071328,
./stimuli_2/tmp/medium_105_4.wav,105,medium,1.8823047760740792,,,,,,,,,0,17,17,28,,,,,,,,,,,,,,,"['space', 'space', 'space', 'space', 'space', 'space', 'space', 'space', 'space', 'space', 'space', 'space']","[2.555662637925707, 3.135882418951951, 3.7023794079432264, 4.26890458597336, 4.869731739978306, 5.469626465928741, 6.0732854480156675, 6.636448586941697, 7.235822251997888, 7.7702702319948, 8.336641698959284, 8.936859861947596]",space,3.7115920319920406,II,001,2019_Jul_24_1507,rev-kura_tap_2blocks,3.0.6,60.12126062071328,
./stimuli_2/tmp/strong_95_3.wav,95,strong,2.368023631857328,,,,,,,,,0,18,18,24,,,,,,,,,,,,,,,"['space', 'space', 'space', 'space', 'space', 'space', 'space', 'space', 'space', 'space']","[3.3322516049956903, 3.948349441983737, 4.598412696039304, 5.214949588058516, 5.815335753024556, 6.403674805071205, 7.032341463956982, 7.631697391043417, 8.332276544068009, 8.898751119966619]",space,0.3855911110294983,II,001,2019_Jul_24_1507,rev-kura_tap_2blocks,3.0.6,60.12126062071328,
./stimuli_2/tmp/weak_110_3.wav,110,weak,1.4034951095242638,,,,,,,,,0,19,19,0,,,,,,,,,,,,,,,"['space', 'space', 'space', 'space', 'space', 'space', 'space', 'space', 'space', 'space', 'space', 'space', 'space']","[2.719161413027905, 3.2775183940539137, 3.920114723034203, 4.486990113044158, 5.020086123957299, 5.570348980021663, 6.0029499819502234, 6.470163041027263, 7.020164650049992, 7.568175193038769, 8.086734932032414, 8.603315609041601, 9.087499683955684]",space,0.3694181580794975,II,001,2019_Jul_24_1507,rev-kura_tap_2blocks,3.0.6,60.12126062071328,
./stimuli_2/tmp/vweak_105_4.wav,105,veryweak,1.6327958275835193,,,,,,,,,0,20,20,12,,,,,,,,,,,,,,,"['space', 'space', 'space', 'space', 'space', 'space', 'space', 'space', 'space', 'space', 'space', 'space']","[2.5202041099546477, 3.0192832179600373, 3.569734366959892, 4.15310655394569, 4.758500950993039, 5.353499209973961, 5.953435024945065, 6.536767774960026, 7.16961291898042, 7.720185086946003, 8.354001611936837, 8.895540402969345]",space,0.3019701479934156,II,001,2019_Jul_24_1507,rev-kura_tap_2blocks,3.0.6,60.12126062071328,
./stimuli_2/tmp/perfect_105_0.wav,105,perfect,2.471825489115851,,,,,,,,,0,21,21,10,,,,,,,,,,,,,,,"['space', 'space', 'space', 'space', 'space']","[2.530973225948401, 3.0817790299188346, 3.581672879983671, 4.164316697977483, 4.731096824980341]",space,0.40182193205691874,II,001,2019_Jul_24_1507,rev-kura_tap_2blocks,3.0.6,60.12126062071328,
./stimuli_2/tmp/weak_100_3.wav,100,weak,0.8397616430138637,,,,,,,,,0,22,22,21,,,,,,,,,,,,,,,"['space', 'space', 'space', 'space', 'space', 'space', 'space', 'space', 'space', 'space', 'space', 'space']","[3.169305560993962, 3.736284581013024, 4.291570345987566, 4.8679825300350785, 5.4029958279570565, 5.944023531046696, 6.486771860043518, 7.0373571190284565, 7.669865777017549, 8.251470051007345, 8.836979200015776, 9.426132536958903]",space,0.7790839669760317,II,001,2019_Jul_24_1507,rev-kura_tap_2blocks,3.0.6,60.12126062071328,
./stimuli_2/tmp/weak_105_4.wav,105,weak,2.3797932117961262,,,,,,,,,0,23,23,40,,,,,,,,,,,,,,,"['space', 'space', 'space', 'space', 'space', 'space', 'space', 'space', 'space', 'space', 'space']","[3.0533347920281813, 3.5698231620481238, 4.169586020987481, 4.852322218008339, 5.503303055069409, 6.120372541015968, 6.703563731047325, 7.241665970068425, 7.803281394997612, 8.403986197081394, 8.970248014084063]",space,0.50083002098836,II,001,2019_Jul_24_1507,rev-kura_tap_2blocks,3.0.6,60.12126062071328,
./stimuli_2/tmp/strong_110_4.wav,110,strong,1.9935472881648024,,,,,,,,,0,24,24,9,,,,,,,,,,,,,,,"['space', 'space', 'space', 'space', 'space', 'space', 'space', 'space', 'space', 'space', 'space', 'space']","[2.5259859419893473, 3.0693883270723745, 3.636267886031419, 4.2201600960688666, 4.852401146083139, 5.4358515770873055, 5.986086844000965, 6.601502017001621, 7.186094981036149, 7.791444650036283, 8.403098423033953, 9.036310109077021]",space,1.855880146031268,II,001,2019_Jul_24_1507,rev-kura_tap_2blocks,3.0.6,60.12126062071328,
./stimuli_2/tmp/weak_105_3.wav,105,weak,1.8785671226313851,,,,,,,,,0,25,25,49,,,,,,,,,,,,,,,"['space', 'space', 'space', 'space', 'space', 'space', 'space', 'space', 'space', 'space', 'space', 'space']","[1.920000036014244, 2.519509491045028, 3.260234436020255, 3.920049112988636, 4.603522659977898, 5.274061809992418, 5.936974933021702, 6.6091472579864785, 7.304110447061248, 8.003429076983593, 8.69497210602276, 9.403860202990472]",space,0.335796428960748,II,001,2019_Jul_24_1507,rev-kura_tap_2blocks,3.0.6,60.12126062071328,
./stimuli_2/tmp/vweak_100_4.wav,100,veryweak,1.7061160215264062,,,,,,,,,0,26,26,2,,,,,,,,,,,,,,,"['space', 'space', 'space', 'space', 'space', 'space', 'space', 'space', 'space', 'space', 'space']","[2.819875633926131, 3.302909978898242, 3.8028349119704217, 4.370320627000183, 5.052846368984319, 5.7792068619746715, 6.470102334977128, 7.176527284900658, 7.836937482934445, 8.51973486400675, 9.142530306940898]",space,0.285514147952199,II,001,2019_Jul_24_1507,rev-kura_tap_2blocks,3.0.6,60.12126062071328,
./stimuli_2/tmp/weak_90_4.wav,90,weak,2.0685733483084743,,,,,,,,,0,27,27,16,,,,,,,,,,,,,,,"['space', 'space', 'space', 'space', 'space', 'space', 'space', 'space', 'space', 'space']","[3.269849385949783, 3.886103161959909, 4.537067407043651, 5.202826785971411, 5.875242064939812, 6.536180755938403, 7.18680782103911, 7.858295317972079, 8.553012290969491, 9.236392944934778]",space,0.5091868080198765,II,001,2019_Jul_24_1507,rev-kura_tap_2blocks,3.0.6,60.12126062071328,
./stimuli_2/tmp/strong_90_3.wav,90,strong,1.6244125943376004,,,,,,,,,0,28,28,37,,,,,,,,,,,,,,,"['space', 'space', 'space', 'space', 'space', 'space', 'space', 'space', 'space', 'space']","[3.353040911955759, 3.9855788949644193, 4.619546171976253, 5.303218107903376, 6.002658187993802, 6.669685088912956, 7.3347263699397445, 8.019359979894944, 8.752431556000374, 9.43624277797062]",space,0.42580510291736573,II,001,2019_Jul_24_1507,rev-kura_tap_2blocks,3.0.6,60.12126062071328,
./stimuli_2/tmp/perfect_105_1.wav,105,perfect,1.9598890814615504,,,,,,,,,0,29,29,13,,,,,,,,,,,,,,,"['space', 'space', 'space', 'space', 'space']","[2.5285549060208723, 3.035834515001625, 3.5719863560516387, 4.187298172037117, 4.719517295015976]",space,0.5865431070560589,II,001,2019_Jul_24_1507,rev-kura_tap_2blocks,3.0.6,60.12126062071328,
./stimuli_2/tmp/perfect_100_0.wav,100,perfect,1.3424117839845908,,,,,,,,,0,30,30,3,,,,,,,,,,,,,,,"['space', 'space', 'space', 'space', 'space']","[2.802492022048682, 3.319467229070142, 3.9515696320449933, 4.552628663019277, 5.1698714720550925]",space,0.5351123131113127,II,001,2019_Jul_24_1507,rev-kura_tap_2blocks,3.0.6,60.12126062071328,
./stimuli_2/tmp/medium_90_3.wav,90,medium,2.469674326004891,,,,,,,,,0,31,31,43,,,,,,,,,,,,,,,"['space', 'space', 'space', 'space', 'space', 'space', 'space', 'space', 'space', 'space']","[3.1366302649257705, 3.769326556008309, 4.402571602957323, 5.12453570892103, 5.7698306939564645, 6.369537459919229, 7.003636871930212, 7.721264345920645, 8.420377183007076, 9.004091577953659]",space,0.684394374024123,II,001,2019_Jul_24_1507,rev-kura_tap_2blocks,3.0.6,60.12126062071328,
./stimuli_2/tmp/vweak_110_3.wav,110,veryweak,1.9493514140483303,,,,,,,,,0,32,32,25,,,,,,,,,,,,,,,"['space', 'space', 'space', 'space', 'space', 'space', 'space', 'space', 'space', 'space']","[2.6637331600068137, 3.31346459093038, 3.9967376799322665, 4.780296835931949, 5.552294219960459, 6.263833170989528, 6.847411451977678, 7.530712326988578, 8.398025742964819, 9.09769486694131]",space,0.4159215670078993,II,001,2019_Jul_24_1507,rev-kura_tap_2blocks,3.0.6,60.12126062071328,
./stimuli_2/tmp/strong_90_4.wav,90,strong,0.9547797326956972,,,,,,,,,0,33,33,44,,,,,,,,,,,,,,,"['space', 'space', 'space', 'space', 'space', 'space', 'space', 'space', 'space', 'space']","[3.24136241490487, 3.8691027489257976, 4.520254108007066, 5.2365610509878024, 5.936312321922742, 6.587174042942934, 7.253416450927034, 7.987278354004957, 8.621044658008032, 9.344211477902718]",space,0.4027660599676892,II,001,2019_Jul_24_1507,rev-kura_tap_2blocks,3.0.6,60.12126062071328,
./stimuli_2/tmp/vweak_100_3.wav,100,veryweak,0.8472696952655959,,,,,,,,,0,34,34,5,,,,,,,,,,,,,,,"['space', 'space', 'space', 'space', 'space', 'space', 'space', 'space', 'space', 'space', 'space']","[2.930999676929787, 3.5147084379568696, 4.14821100095287, 4.814900241908617, 5.4148948160000145, 6.029774171998724, 6.71529661596287, 7.348095745895989, 8.132339026895352, 8.732256243936718, 9.348899059928954]",space,0.41928607400041074,II,001,2019_Jul_24_1507,rev-kura_tap_2blocks,3.0.6,60.12126062071328,
./stimuli_2/tmp/medium_110_3.wav,110,medium,1.2616218191127295,,,,,,,,,0,35,35,11,,,,,,,,,,,,,,,"['space', 'space', 'space', 'space', 'space', 'space', 'space', 'space', 'space', 'space', 'space']","[2.7197738740360364, 3.251031612046063, 3.8579821900930256, 4.486610342049971, 5.086491759982891, 5.736600892036222, 6.303070295020007, 6.975490359007381, 7.635275078006089, 8.270250582019798, 8.856141424039379]",space,0.46905904496088624,II,001,2019_Jul_24_1507,rev-kura_tap_2blocks,3.0.6,60.12126062071328,
./stimuli_2/tmp/medium_95_3.wav,95,medium,0.9787884089584356,,,,,,,,,0,36,36,18,,,,,,,,,,,,,,,"['space', 'space', 'space', 'space', 'space', 'space', 'space', 'space', 'space', 'space', 'space', 'space']","[3.198546738945879, 3.814759769011289, 4.437101745977998, 5.0809899809537455, 5.6818748119985685, 6.298339655040763, 6.948448174982332, 7.648352890973911, 8.282102443045005, 8.882282022037543, 9.588710887008347, 10.265593467047438]",space,0.46246571303345263,II,001,2019_Jul_24_1507,rev-kura_tap_2blocks,3.0.6,60.12126062071328,
./stimuli_2/tmp/weak_110_4.wav,110,weak,1.2158046753843554,,,,,,,,,0,37,37,4,,,,,,,,,,,,,,,"['space', 'space', 'space', 'space', 'space', 'space', 'space', 'space', 'space', 'space', 'space', 'space']","[2.835994901950471, 3.3358174730092287, 3.841267570038326, 4.436644179048017, 5.036357979988679, 5.586659163003787, 6.136446994030848, 6.653308850014582, 7.271251088008285, 7.853460378013551, 8.434978535049595, 8.954082750016823]",space,0.3360414719209075,II,001,2019_Jul_24_1507,rev-kura_tap_2blocks,3.0.6,60.12126062071328,
./stimuli_2/tmp/strong_110_3.wav,110,strong,2.128797507874421,,,,,,,,,0,38,38,6,,,,,,,,,,,,,,,"['space', 'space', 'space', 'space', 'space', 'space', 'space', 'space', 'space', 'space', 'space', 'space', 'space']","[2.6872180480277166, 3.2201708670472726, 3.753482041065581, 4.270130736986175, 4.7701906020520255, 5.301573537988588, 5.803830967983231, 6.354151251958683, 6.902052507037297, 7.4035933159757406, 7.920521422987804, 8.47127676405944, 9.004155579954386]",space,0.38559384597465396,II,001,2019_Jul_24_1507,rev-kura_tap_2blocks,3.0.6,60.12126062071328,
./stimuli_2/tmp/vweak_90_4.wav,90,veryweak,2.01675312210347,,,,,,,,,0,39,39,47,,,,,,,,,,,,,,,"['space', 'space', 'space', 'space', 'space', 'space', 'space', 'space', 'space']","[3.519655368058011, 4.136697025038302, 4.753869694075547, 5.4535548380808905, 6.212259073043242, 6.987088410067372, 7.687074650079012, 8.40365004807245, 9.271218894980848]",space,0.7674800499808043,II,001,2019_Jul_24_1507,rev-kura_tap_2blocks,3.0.6,60.12126062071328,
./stimuli_2/tmp/strong_100_3.wav,100,strong,1.4654700353387642,,,,,,,,,0,40,40,41,,,,,,,,,,,,,,,"['space', 'space', 'space', 'space', 'space', 'space', 'space', 'space', 'space', 'space']","[3.4056401840643957, 3.9815101070562378, 4.581572809955105, 5.2481651089619845, 5.937527525005862, 6.548340979963541, 7.249652346014045, 7.920537714031525, 8.516543718986213, 9.165362569037825]",space,0.3849236200330779,II,001,2019_Jul_24_1507,rev-kura_tap_2blocks,3.0.6,60.12126062071328,
./stimuli_2/tmp/perfect_100_1.wav,100,perfect,1.900582361571024,,,,,,,,,0,41,41,1,,,,,,,,,,,,,,,"['space', 'space', 'space', 'space', 'space']","[2.7691174870124087, 3.3364760549739003, 3.9024284760234877, 4.553023859043606, 5.140875773038715]",space,0.618407030007802,II,001,2019_Jul_24_1507,rev-kura_tap_2blocks,3.0.6,60.12126062071328,
./stimuli_2/tmp/vweak_95_3.wav,95,veryweak,2.160580057702042,,,,,,,,,0,42,42,32,,,,,,,,,,,,,,,"['space', 'space', 'space', 'space', 'space', 'space', 'space', 'space', 'space', 'space', 'space', 'space']","[2.9963559639872983, 3.6131073619471863, 4.1803901239763945, 4.796265191049315, 5.329953928012401, 5.928289097035304, 6.501847891951911, 7.18035397795029, 7.763626483036205, 8.364042469998822, 8.913880120031536, 9.520169312949292]",space,0.4693471399368718,II,001,2019_Jul_24_1507,rev-kura_tap_2blocks,3.0.6,60.12126062071328,
./stimuli_2/tmp/perfect_90_0.wav,90,perfect,1.8471350139820657,,,,,,,,,0,43,43,34,,,,,,,,,,,,,,,"['space', 'space', 'space', 'space', 'space', 'space']","[3.3693552600452676, 3.9856534299906343, 4.641782691003755, 5.336428116075695, 6.001494706026278, 6.669829447986558]",space,0.5031370039796457,II,001,2019_Jul_24_1507,rev-kura_tap_2blocks,3.0.6,60.12126062071328,
./stimuli_2/tmp/perfect_90_1.wav,90,perfect,0.9437088291454946,,,,,,,,,0,44,44,38,,,,,,,,,,,,,,,"['space', 'space', 'space', 'space', 'space']","[3.423639292945154, 4.019856798928231, 4.653050074004568, 5.335862073930912, 5.986074836924672]",space,0.5193454769905657,II,001,2019_Jul_24_1507,rev-kura_tap_2blocks,3.0.6,60.12126062071328,
./stimuli_2/tmp/weak_90_3.wav,90,weak,1.336733561564532,,,,,,,,,0,45,45,29,,,,,,,,,,,,,,,"['space', 'space', 'space', 'space', 'space', 'space', 'space', 'space', 'space', 'space']","[3.136111101019196, 3.752893486060202, 4.420011243084446, 5.0540570199955255, 5.73669208609499, 6.403140282025561, 7.0422009530011564, 7.7538585850270465, 8.475572059047408, 9.037730420008302]",space,1.178930766065605,II,001,2019_Jul_24_1507,rev-kura_tap_2blocks,3.0.6,60.12126062071328,
./stimuli_2/tmp/strong_105_4.wav,105,strong,1.0619213958525664,,,,,,,,,0,46,46,23,,,,,,,,,,,,,,,"['space', 'space', 'space', 'space', 'space', 'space', 'space', 'space', 'space', 'space', 'space', 'space', 'space']","[2.453809704980813, 3.0361413459759206, 3.6198464069748297, 4.203493832028471, 4.8203827099641785, 5.354145072051324, 5.935185658046976, 6.536528398049995, 7.0547636930132285, 7.637397757032886, 8.203581230016425, 8.754326732014306, 9.554526173975319]",space,1.402945489040576,II,001,2019_Jul_24_1507,rev-kura_tap_2blocks,3.0.6,60.12126062071328,
./stimuli_2/tmp/strong_95_4.wav,95,strong,1.3122188661972012,,,,,,,,,0,47,47,19,,,,,,,,,,,,,,,"['space', 'space', 'space', 'space', 'space', 'space', 'space', 'space', 'space', 'space']","[2.9035444179316983, 3.591070781927556, 4.269492327934131, 4.919295990956016, 5.62559239694383, 6.31937023694627, 7.019355057971552, 7.708504013950005, 8.436237258953042, 9.136766175972298]",space,0.8020710450364277,II,001,2019_Jul_24_1507,rev-kura_tap_2blocks,3.0.6,60.12126062071328,
./stimuli_2/tmp/medium_100_3.wav,100,medium,0.9227517929886035,,,,,,,,,0,48,48,45,,,,,,,,,,,,,,,"['space', 'space', 'space', 'space', 'space', 'space', 'space', 'space', 'space', 'space', 'space', 'space', 'space', 'space']","[2.403174770064652, 2.9026056739967316, 3.4091193879721686, 3.9007935050176457, 4.486311494023539, 4.969428444979712, 5.491581885027699, 6.036570142023265, 6.559016207000241, 7.086655338993296, 7.620379485073499, 8.137250914005563, 8.670510516967624, 9.219657848007046]",space,0.40248000097926706,II,001,2019_Jul_24_1507,rev-kura_tap_2blocks,3.0.6,60.12126062071328,
./stimuli_2/tmp/vweak_105_3.wav,105,veryweak,1.505363686413271,,,,,,,,,0,49,49,7,,,,,,,,,,,,,,,"['space', 'space', 'space', 'space', 'space', 'space', 'space', 'space', 'space', 'space', 'space']","[2.9842354779830202, 3.6203076489036903, 4.208567010937259, 4.786259443964809, 5.402464680955745, 6.1248931009322405, 6.720467161969282, 7.318649158929475, 7.9865252419840544, 8.592616028967313, 9.154010640922934]",space,0.9187371319858357,II,001,2019_Jul_24_1507,rev-kura_tap_2blocks,3.0.6,60.12126062071328,
