sndfile,tempo,cond,delay,trials_practice.thisRepN,trials_practice.thisTrialN,trials_practice.thisN,trials_practice.thisIndex,trials.thisRepN,trials.thisTrialN,trials.thisN,trials.thisIndex,trials_2.thisRepN,trials_2.thisTrialN,trials_2.thisN,trials_2.thisIndex,key_resp_2.keys,key_resp_2.rt,key_resp_4.keys,key_resp_4.rt,key_resp_3.keys,key_resp_3.rt,key_resp_7.keys,key_resp_7.rt,key_resp_9.keys,key_resp_9.rt,key_resp_5.keys,key_resp_5.rt,key_resp_8.keys,key_resp_8.rt,key_resp_10.keys,key_resp_10.rt,key_resp_6.keys,key_resp_6.rt,participant,session,date,expName,psychopyVersion,frameRate,
,,,,,,,,,,,,,,,,space,28.115728421951644,,,,,,,,,,,,,,,,,JJ,001,2019_Jul_24_1535,rev-kura_tap_2blocks,3.0.6,59.90298865155041,
./stimuli_1/tmp/vweak_105_1.wav,105,veryweak,1.91267155,0,0,0,3,,,,,,,,,,,"['space', 'space', 'space', 'space']","[7.182086669025011, 7.848876636009663, 8.447023867047392, 9.032124588964507]",space,5.970758737064898,,,,,,,,,,,,,JJ,001,2019_Jul_24_1535,rev-kura_tap_2blocks,3.0.6,59.90298865155041,
./stimuli_1/tmp/strong_90_1.wav,90,strong,1.013023596,0,1,1,1,,,,,,,,,,,"['space', 'space', 'space', 'space', 'space', 'space', 'space', 'space', 'space', 'space', 'space', 'space', 'space']","[1.0029702780302614, 1.6910302670439705, 2.435950874001719, 3.1221192250959575, 3.836173110990785, 4.557935797027312, 5.237599456100725, 5.93637661205139, 6.653519159066491, 7.353718504076824, 8.036681055091321, 8.756257338100113, 9.45408842607867]",space,1.7198473869357258,,,,,,,,,,,,,JJ,001,2019_Jul_24_1535,rev-kura_tap_2blocks,3.0.6,59.90298865155041,
./stimuli_1/tmp/medium_110_1.wav,110,medium,0.970866786,0,2,2,2,,,,,,,,,,,"['space', 'space', 'space', 'space', 'space', 'space', 'space', 'space', 'space', 'space', 'space', 'space', 'space', 'space', 'space', 'space']","[0.4981421240372583, 1.198173084994778, 1.7818578940350562, 2.364032253040932, 2.9529092099983245, 3.532111322041601, 4.116087018977851, 4.6649456560844555, 5.265002246014774, 5.865202278015204, 6.431234681047499, 6.987096655997448, 7.565207972074859, 8.131869812030345, 8.748409486026503, 9.299123161006719]",space,1.0391653849510476,,,,,,,,,,,,,JJ,001,2019_Jul_24_1535,rev-kura_tap_2blocks,3.0.6,59.90298865155041,
./stimuli_1/tmp/medium_100_1.wav,100,medium,1.797198505,0,3,3,0,,,,,,,,,,,"['space', 'space', 'space', 'space', 'space', 'space', 'space', 'space', 'space', 'space', 'space', 'space', 'space', 'space']","[0.4870468999724835, 1.0365041479235515, 1.743566814926453, 2.402870513033122, 3.0694557189708576, 3.669522473937832, 4.403492763987742, 5.086955691920593, 5.703428903943859, 6.361237730947323, 7.004121619975194, 7.659727627993561, 8.318864082917571, 9.00423534202855]",space,0.8431473370874301,,,,,,,,,,,,,JJ,001,2019_Jul_24_1535,rev-kura_tap_2blocks,3.0.6,59.90298865155041,
./stimuli_1/tmp/medium_110_1.wav,110,medium,1.222685394,0,4,4,4,,,,,,,,,,,"['space', 'space', 'space', 'space', 'space', 'space', 'space', 'space', 'space', 'space', 'space', 'space', 'space', 'space', 'space', 'space']","[0.4687880598939955, 1.1687210509553552, 1.7586177008925006, 2.335686369915493, 2.952522595995106, 3.5192444879794493, 4.068760850932449, 4.652932548895478, 5.257853397983126, 5.8196321949362755, 6.420118334935978, 7.017659502918832, 7.601068494957872, 8.186994511983357, 8.742210772936232, 9.253047517966479]",space,0.8076923970365897,,,,,,,,,,,,,JJ,001,2019_Jul_24_1535,rev-kura_tap_2blocks,3.0.6,59.90298865155041,
,,,,,,,,,,,,,,,,,,,,,,space,12.91658624901902,,,,,,,,,,,JJ,001,2019_Jul_24_1535,rev-kura_tap_2blocks,3.0.6,59.90298865155041,
./stimuli_1/tmp/weak_110_2.wav,110,weak,1.1450489585925383,,,,,0,0,0,0,,,,,,,,,,,,,"['space', 'space', 'space', 'space', 'space', 'space', 'space', 'space', 'space', 'space', 'space', 'space', 'space', 'space', 'space', 'space', 'space', 'space']","[0.43373114394489676, 1.250559551990591, 1.6503036939539015, 2.166855995892547, 2.751577736926265, 3.200819236924872, 3.6342659059446305, 4.165611881995574, 4.684294820996001, 5.184465309954248, 5.634662918979302, 6.148814563988708, 6.634490928961895, 7.134648243896663, 7.635297417989932, 8.185181749984622, 8.68456399999559, 9.168219445971772]",space,0.9944715969031677,,,,,,,JJ,001,2019_Jul_24_1535,rev-kura_tap_2blocks,3.0.6,59.90298865155041,
./stimuli_1/tmp/medium_105_2.wav,105,medium,0.8825097572066065,,,,,0,1,1,17,,,,,,,,,,,,,"['space', 'space', 'space', 'space', 'space', 'space', 'space', 'space', 'space', 'space', 'space', 'space', 'space', 'space', 'space']","[0.4519843920134008, 0.9361085119890049, 1.6527897359337658, 2.2526138350367546, 2.885637726983987, 3.4522617689799517, 4.024433142971247, 4.602786462986842, 5.1922385499347, 5.736873738933355, 6.3696017869515345, 7.05334781203419, 7.7271055289311334, 8.520207077963278, 9.1607302200282]",space,1.6090856270166114,,,,,,,JJ,001,2019_Jul_24_1535,rev-kura_tap_2blocks,3.0.6,59.90298865155041,
./stimuli_1/tmp/vweak_105_2.wav,105,veryweak,1.1450150374808907,,,,,0,2,2,9,,,,,,,,,,,,,"['space', 'space', 'space', 'space', 'space', 'space', 'space', 'space', 'space', 'space', 'space', 'space', 'space', 'space']","[0.41931360797025263, 1.2032624050043523, 1.909157985006459, 2.6036369299981743, 3.2366467099636793, 3.9098017459036782, 4.570025591994636, 5.235267713898793, 5.8039169809781015, 6.493886676966213, 7.104309994960204, 7.771094039897434, 8.437914651003666, 9.07118822389748]",space,1.129700168967247,,,,,,,JJ,001,2019_Jul_24_1535,rev-kura_tap_2blocks,3.0.6,59.90298865155041,
./stimuli_1/tmp/weak_95_2.wav,95,weak,1.3391653351857111,,,,,0,3,3,38,,,,,,,,,,,,,"['space', 'space', 'space', 'space', 'space', 'space', 'space', 'space', 'space', 'space', 'space', 'space', 'space']","[0.3532866599271074, 1.1010744599625468, 2.053572301985696, 2.7198913989122957, 3.4871016409015283, 4.20350546494592, 4.936865958967246, 5.5692369129974395, 6.270686481962912, 7.003394580911845, 7.837064752005972, 8.470626123948023, 9.093232718994841]",space,0.8123419008916244,,,,,,,JJ,001,2019_Jul_24_1535,rev-kura_tap_2blocks,3.0.6,59.90298865155041,
./stimuli_1/tmp/weak_100_2.wav,100,weak,0.9744812486321696,,,,,0,4,4,20,,,,,,,,,,,,,"['space', 'space', 'space', 'space', 'space', 'space', 'space', 'space', 'space', 'space', 'space', 'space', 'space', 'space', 'space', 'space']","[0.42015521007124335, 1.0526561259757727, 1.7370112610515207, 2.1908773119794205, 2.836197015014477, 3.2744042159756646, 3.853486155043356, 4.45399713201914, 5.086148260044865, 5.703672104049474, 6.303511561010964, 6.844720054999925, 7.470526149030775, 8.103465395979583, 8.737204481964, 9.37539329903666]",space,0.5689850070048124,,,,,,,JJ,001,2019_Jul_24_1535,rev-kura_tap_2blocks,3.0.6,59.90298865155041,
./stimuli_1/tmp/vweak_100_1.wav,100,veryweak,1.441965324529146,,,,,0,5,5,4,,,,,,,,,,,,,"['space', 'space', 'space', 'space', 'space', 'space', 'space', 'space', 'space', 'space', 'space', 'space', 'space', 'space', 'space', 'space', 'space', 'space']","[0.4518660649191588, 1.351981910993345, 1.9350359989330173, 2.357321036979556, 2.83567974192556, 3.33592736790888, 3.841051416937262, 4.383458265918307, 5.019230837002397, 5.385168812004849, 5.874239322962239, 6.318835148005746, 6.818858070997521, 7.2586294040083885, 7.703138996963389, 8.185935093904845, 8.736532128998078, 9.258665064931847]",space,0.5191852620337158,,,,,,,JJ,001,2019_Jul_24_1535,rev-kura_tap_2blocks,3.0.6,59.90298865155041,
./stimuli_1/tmp/strong_105_1.wav,105,strong,1.8750845453371756,,,,,0,6,6,25,,,,,,,,,,,,,"['space', 'space', 'space', 'space', 'space', 'space', 'space', 'space', 'space', 'space', 'space', 'space', 'space', 'space', 'space', 'space']","[1.1365427769487724, 1.6687465260038152, 2.1695595079800114, 2.7362775090150535, 3.286792877013795, 3.853220066986978, 4.403678550967015, 4.969842955004424, 5.525808053906076, 6.036378362914547, 6.603790879948065, 7.153509737923741, 7.7365427549229935, 8.253793113981374, 8.770147179951891, 9.370394587982446]",space,0.8199834030820057,,,,,,,JJ,001,2019_Jul_24_1535,rev-kura_tap_2blocks,3.0.6,59.90298865155041,
./stimuli_1/tmp/perfect_105_1.wav,105,perfect,1.612711409659772,,,,,0,7,7,13,,,,,,,,,,,,,"['space', 'space', 'space', 'space', 'space', 'space', 'space', 'space']","[0.9191778800450265, 1.302308878977783, 1.8690755249699578, 2.4527719559846446, 3.053440924966708, 3.6345773600041866, 4.191427767975256, 4.769559100968763]",space,1.7695327049586922,,,,,,,JJ,001,2019_Jul_24_1535,rev-kura_tap_2blocks,3.0.6,59.90298865155041,
./stimuli_1/tmp/perfect_105_0.wav,105,perfect,2.376167666662905,,,,,0,8,8,11,,,,,,,,,,,,,"['space', 'space', 'space', 'space', 'space', 'space', 'space', 'space', 'space']","[0.4692190020577982, 0.8192696160404012, 1.318685167003423, 1.9032589070266113, 2.4920673749875277, 3.052637554006651, 3.636080651078373, 4.203067886061035, 4.752703082980588]",space,1.7960168940480798,,,,,,,JJ,001,2019_Jul_24_1535,rev-kura_tap_2blocks,3.0.6,59.90298865155041,
./stimuli_1/tmp/weak_100_1.wav,100,weak,0.9200911357943652,,,,,0,9,9,15,,,,,,,,,,,,,"['space', 'space', 'space', 'space', 'space', 'space', 'space', 'space', 'space', 'space', 'space', 'space', 'space', 'space']","[0.9691928989486769, 1.6540358329657465, 2.274687525932677, 2.8532278389902785, 3.5364828900201246, 4.169675974990241, 4.836354780010879, 5.284660098957829, 5.9413841859204695, 6.536563994013704, 7.186640437925234, 7.7918513040058315, 8.437218377948739, 9.103813614929095]",space,0.8520655930042267,,,,,,,JJ,001,2019_Jul_24_1535,rev-kura_tap_2blocks,3.0.6,59.90298865155041,
./stimuli_1/tmp/strong_110_1.wav,110,strong,2.342405954917332,,,,,0,10,10,8,,,,,,,,,,,,,"['space', 'space', 'space', 'space', 'space', 'space', 'space', 'space', 'space', 'space', 'space', 'space', 'space', 'space', 'space']","[1.1522429059259593, 1.6687182430177927, 2.241526001947932, 2.835954440990463, 3.427072600927204, 3.985751873929985, 4.569638325017877, 5.140139843919314, 5.736479187966324, 6.303228824981488, 6.8701299539534375, 7.453259221976623, 8.035070625017397, 8.569620794965886, 9.20395280199591]",space,1.1856077989796177,,,,,,,JJ,001,2019_Jul_24_1535,rev-kura_tap_2blocks,3.0.6,59.90298865155041,
./stimuli_1/tmp/vweak_100_2.wav,100,veryweak,0.9843923106260049,,,,,0,11,11,5,,,,,,,,,,,,,"['space', 'space', 'space', 'space', 'space', 'space', 'space', 'space', 'space', 'space', 'space', 'space', 'space', 'space', 'space']","[0.8126077569322661, 1.3647914530010894, 1.996060610981658, 2.689657795941457, 3.3308468159521, 3.9482938919682056, 4.596143694012426, 5.247820234973915, 5.865096186986193, 6.481744069955312, 7.115572419017553, 7.7969530809205025, 8.415188387967646, 9.070406978949904, 9.832244736026041]",space,0.7020545359700918,,,,,,,JJ,001,2019_Jul_24_1535,rev-kura_tap_2blocks,3.0.6,59.90298865155041,
./stimuli_1/tmp/medium_90_2.wav,90,medium,2.1384331573709567,,,,,0,12,12,46,,,,,,,,,,,,,"['space', 'space', 'space', 'space', 'space', 'space', 'space', 'space', 'space', 'space', 'space', 'space', 'space']","[0.9362122199963778, 1.7693632759619504, 2.435899147996679, 3.10356394702103, 3.758169222972356, 4.453735303948633, 5.203723174985498, 5.844323758967221, 6.503349571023136, 7.1873077399795875, 7.887106026057154, 8.570359966019168, 9.294052800047211]",space,0.8437957069836557,,,,,,,JJ,001,2019_Jul_24_1535,rev-kura_tap_2blocks,3.0.6,59.90298865155041,
./stimuli_1/tmp/perfect_110_0.wav,110,perfect,1.8837210676143408,,,,,0,13,13,16,,,,,,,,,,,,,"['space', 'space', 'space', 'space', 'space', 'space', 'space', 'space', 'space']","[0.5200589679880068, 1.18641214503441, 1.6868543910095468, 2.2197437289869413, 2.7700335200643167, 3.3036399410339072, 3.8531089699827135, 4.403734516003169, 4.9870870889863]",space,1.0356732829241082,,,,,,,JJ,001,2019_Jul_24_1535,rev-kura_tap_2blocks,3.0.6,59.90298865155041,
./stimuli_1/tmp/medium_95_1.wav,95,medium,1.3706215803300168,,,,,0,14,14,19,,,,,,,,,,,,,"['space', 'space', 'space', 'space', 'space', 'space', 'space', 'space', 'space', 'space', 'space', 'space', 'space']","[1.0198676500003785, 1.5030602210899815, 2.2413759940536693, 2.902898236992769, 3.5199876620899886, 4.24164257501252, 4.9372061940375715, 5.687359978095628, 6.336942807072774, 7.037074687075801, 7.720008194097318, 8.387476713047363, 9.070934868068434]",space,0.7692738639889285,,,,,,,JJ,001,2019_Jul_24_1535,rev-kura_tap_2blocks,3.0.6,59.90298865155041,
./stimuli_1/tmp/vweak_95_1.wav,95,veryweak,2.279644213301781,,,,,0,15,15,24,,,,,,,,,,,,,"['space', 'space', 'space', 'space', 'space', 'space', 'space', 'space', 'space', 'space', 'space', 'space', 'space', 'space', 'space']","[0.9190059490501881, 1.5355872849468142, 2.1184360389597714, 2.701989991008304, 3.3199999779462814, 3.9243982899934053, 4.536294116056524, 5.169782496988773, 5.7866111260373145, 6.403433058061637, 7.00309994595591, 7.687351151020266, 8.256849749013782, 8.854163113050163, 9.470623448025435]",space,0.5692119440063834,,,,,,,JJ,001,2019_Jul_24_1535,rev-kura_tap_2blocks,3.0.6,59.90298865155041,
./stimuli_1/tmp/medium_110_2.wav,110,medium,1.962096670593472,,,,,0,16,16,12,,,,,,,,,,,,,"['space', 'space', 'space', 'space', 'space', 'space', 'space', 'space', 'space', 'space', 'space', 'space', 'space', 'space', 'space', 'space', 'space']","[0.9026322559220716, 1.352398341987282, 1.875956557923928, 2.4361891909502447, 3.152926303911954, 3.686484818928875, 4.136446618940681, 4.569974593934603, 5.069544994970784, 5.504486938007176, 5.953426316962577, 6.519955993979238, 7.020605272962712, 7.5035799839533865, 8.020079219946638, 8.520591403939761, 9.154746842919849]",space,0.619538014056161,,,,,,,JJ,001,2019_Jul_24_1535,rev-kura_tap_2blocks,3.0.6,59.90298865155041,
./stimuli_1/tmp/strong_95_2.wav,95,strong,1.1173507911145857,,,,,0,17,17,27,,,,,,,,,,,,,"['space', 'space', 'space', 'space', 'space', 'space', 'space', 'space', 'space', 'space', 'space', 'space']","[1.871005192049779, 2.53642373601906, 3.1915142530342564, 3.8530619390076026, 4.52041184308473, 5.220684229047038, 5.871329065063037, 6.536968862055801, 7.187588916043751, 7.870759666082449, 8.521074996097013, 9.121087516075931]",space,0.6945492499507964,,,,,,,JJ,001,2019_Jul_24_1535,rev-kura_tap_2blocks,3.0.6,59.90298865155041,
./stimuli_1/tmp/medium_90_1.wav,90,medium,1.3827594725962091,,,,,0,18,18,49,,,,,,,,,,,,,"['space', 'space', 'space', 'space', 'space', 'space', 'space', 'space', 'space', 'space', 'space', 'space', 'space']","[0.8336546010104939, 1.3995789459440857, 2.1161575770238414, 2.832763527985662, 3.5165994489798322, 4.233514477964491, 4.934271794976667, 5.583635388989933, 6.266681405948475, 7.000719586038031, 7.667769534979016, 8.350462191971019, 9.08405855903402]",space,0.5355639669578522,,,,,,,JJ,001,2019_Jul_24_1535,rev-kura_tap_2blocks,3.0.6,59.90298865155041,
./stimuli_1/tmp/medium_100_2.wav,100,medium,1.5709881706161974,,,,,0,19,19,44,,,,,,,,,,,,,"['space', 'space', 'space', 'space', 'space', 'space', 'space', 'space', 'space', 'space', 'space', 'space', 'space', 'space', 'space', 'space']","[0.9839520369423553, 1.4195099800126627, 1.9530352789442986, 2.4528033859096467, 3.036225131014362, 3.687563062994741, 4.25256268796511, 4.820330066955648, 5.219462955021299, 5.736790785915218, 6.453181475983001, 7.053727985010482, 7.5365780889987946, 8.008486514911056, 8.48668676498346, 8.954049282008782]",space,0.9340158250415698,,,,,,,JJ,001,2019_Jul_24_1535,rev-kura_tap_2blocks,3.0.6,59.90298865155041,
./stimuli_1/tmp/strong_100_1.wav,100,strong,1.2298337616078612,,,,,0,20,20,37,,,,,,,,,,,,,"['space', 'space', 'space', 'space', 'space', 'space', 'space', 'space', 'space', 'space', 'space', 'space', 'space', 'space']","[0.835300414939411, 1.3700803199317306, 2.1200107450131327, 2.8363890419714153, 3.486683862982318, 4.136595515999943, 4.7679360850015655, 5.402998958947137, 6.078155272989534, 6.719966104021296, 7.3348993950057775, 7.959652896039188, 8.636909244931303, 9.28680326603353]",space,0.9692945029819384,,,,,,,JJ,001,2019_Jul_24_1535,rev-kura_tap_2blocks,3.0.6,59.90298865155041,
./stimuli_1/tmp/perfect_90_1.wav,90,perfect,0.8790589196072783,,,,,0,21,21,39,,,,,,,,,,,,,"['space', 'space', 'space', 'space', 'space', 'space', 'space', 'space', 'space', 'space']","[0.8861447619274259, 1.3364604469388723, 2.03462954191491, 2.6864538840018213, 3.3698780039558187, 4.020543119986542, 4.6870757029391825, 5.353610323974863, 6.0043606229592115, 6.737511742976494]",space,0.717071246006526,,,,,,,JJ,001,2019_Jul_24_1535,rev-kura_tap_2blocks,3.0.6,59.90298865155041,
./stimuli_1/tmp/strong_105_2.wav,105,strong,0.9615404084728899,,,,,0,22,22,31,,,,,,,,,,,,,"['space', 'space', 'space', 'space', 'space', 'space', 'space', 'space', 'space', 'space', 'space', 'space', 'space']","[1.2366405570646748, 1.8525539690162987, 2.519821726018563, 3.1530039419885725, 3.8366070409538224, 4.525053189019673, 5.1533194039948285, 5.787646339042112, 6.386602416983806, 7.0536288500297815, 7.687294200994074, 8.370405229041353, 9.037329170969315]",space,0.7867392870830372,,,,,,,JJ,001,2019_Jul_24_1535,rev-kura_tap_2blocks,3.0.6,59.90298865155041,
./stimuli_1/tmp/weak_95_1.wav,95,weak,1.9726481258285025,,,,,0,23,23,43,,,,,,,,,,,,,"['space', 'space', 'space', 'space', 'space', 'space', 'space', 'space', 'space', 'space', 'space', 'space', 'space', 'space', 'space']","[0.5192408829461783, 1.0196375439409167, 1.602073669899255, 2.2855580078903586, 2.9693719029892236, 3.636305633932352, 4.291278803953901, 4.936814707936719, 5.619440829963423, 6.269439335912466, 6.936126627959311, 7.653030183981173, 8.353420034982264, 9.003276958945207, 9.653688236954622]",space,3.3842960820766166,,,,,,,JJ,001,2019_Jul_24_1535,rev-kura_tap_2blocks,3.0.6,59.90298865155041,
./stimuli_1/tmp/perfect_110_1.wav,110,perfect,1.7704271467992068,,,,,0,24,24,18,,,,,,,,,,,,,"['space', 'space', 'space', 'space', 'space', 'space', 'space', 'space', 'space']","[0.8529294860782102, 1.2193165309727192, 1.7077749730087817, 2.253229191992432, 2.79108645406086, 3.336385159054771, 3.8699945580447093, 4.403459127061069, 4.936364565975964]",space,0.7598434280371293,,,,,,,JJ,001,2019_Jul_24_1535,rev-kura_tap_2blocks,3.0.6,59.90298865155041,
./stimuli_1/tmp/vweak_90_2.wav,90,veryweak,1.0044987578235975,,,,,0,25,25,40,,,,,,,,,,,,,"['space', 'space', 'space', 'space', 'space', 'space', 'space', 'space', 'space', 'space', 'space', 'space', 'space', 'space']","[1.0266683889785782, 1.6034584729932249, 2.2198792040580884, 2.9027600360568613, 3.5201828429708257, 4.153333956026472, 4.887385686975904, 5.486393756000325, 6.109726922004484, 6.73732229298912, 7.4376984590198845, 8.143625610042363, 8.735635877004825, 9.371417875983752]",space,0.580738120013848,,,,,,,JJ,001,2019_Jul_24_1535,rev-kura_tap_2blocks,3.0.6,59.90298865155041,
./stimuli_1/tmp/medium_95_2.wav,95,medium,2.475357682924177,,,,,0,26,26,14,,,,,,,,,,,,,"['space', 'space', 'space', 'space', 'space', 'space', 'space', 'space', 'space', 'space', 'space', 'space']","[0.8856329139089212, 1.3523704749532044, 2.836400939966552, 3.5363304489292204, 4.269643854000606, 4.91951119794976, 5.593033843906596, 6.337269082898274, 7.017605585977435, 7.6865101989824325, 8.370198928983882, 9.0587449449813]",space,0.4124779918929562,,,,,,,JJ,001,2019_Jul_24_1535,rev-kura_tap_2blocks,3.0.6,59.90298865155041,
./stimuli_1/tmp/medium_105_1.wav,105,medium,1.6663985327680324,,,,,0,27,27,21,,,,,,,,,,,,,"['space', 'space', 'space', 'space', 'space', 'space', 'space', 'space', 'space', 'space', 'space', 'space', 'space', 'space', 'space', 'space']","[0.44194302789401263, 1.1356009799055755, 1.9195985199185088, 2.4862512309337035, 3.0245748929446563, 3.6029207239625975, 4.152883471921086, 4.669871517922729, 5.220109980902635, 5.837354136980139, 6.4031194190029055, 6.986862638965249, 7.591924330918118, 8.187002138001844, 8.669995869975537, 9.254110756912269]",space,0.6855286860372871,,,,,,,JJ,001,2019_Jul_24_1535,rev-kura_tap_2blocks,3.0.6,59.90298865155041,
./stimuli_1/tmp/weak_110_1.wav,110,weak,2.302762081100819,,,,,0,28,28,3,,,,,,,,,,,,,"['space', 'space', 'space', 'space', 'space', 'space', 'space', 'space', 'space', 'space', 'space', 'space', 'space', 'space', 'space', 'space']","[0.4337239731103182, 1.1405410110019147, 1.7687478160951287, 2.336120975087397, 2.885726404027082, 3.4688542870571837, 4.057489971048199, 4.685914206085727, 5.25232423201669, 5.8362823110073805, 6.436585888033733, 7.01782466401346, 7.625173763022758, 8.218275892082602, 8.836359697044827, 9.403486029012129]",space,0.769369125016965,,,,,,,JJ,001,2019_Jul_24_1535,rev-kura_tap_2blocks,3.0.6,59.90298865155041,
./stimuli_1/tmp/perfect_100_1.wav,100,perfect,2.462429502310373,,,,,0,29,29,1,,,,,,,,,,,,,"['space', 'space', 'space', 'space', 'space', 'space', 'space', 'space', 'space']","[0.5530311270849779, 0.9861561690922827, 1.5373413170455024, 2.1528262650826946, 2.7345777100417763, 3.3195993580156937, 3.9263630349887535, 4.536863505025394, 5.136602494982071]",space,0.5857047130120918,,,,,,,JJ,001,2019_Jul_24_1535,rev-kura_tap_2blocks,3.0.6,59.90298865155041,
./stimuli_1/tmp/medium_110_1.wav,110,medium,1.6223651347148935,,,,,0,30,30,10,,,,,,,,,,,,,"['space', 'space', 'space', 'space', 'space', 'space', 'space', 'space', 'space', 'space', 'space', 'space', 'space', 'space', 'space']","[1.0189569409703836, 1.7235670640366152, 2.3191345049999654, 2.919652597978711, 3.4855346550466493, 4.067444739979692, 4.668053328990936, 5.235876259976067, 5.826444037025794, 6.385933896992356, 6.9871258540079, 7.587084640050307, 8.120289026992396, 8.720061862026341, 9.25892206595745]",space,0.5865046459948644,,,,,,,JJ,001,2019_Jul_24_1535,rev-kura_tap_2blocks,3.0.6,59.90298865155041,
./stimuli_1/tmp/vweak_105_1.wav,105,veryweak,2.000868469173824,,,,,0,31,31,7,,,,,,,,,,,,,"['space', 'space', 'space', 'space', 'space', 'space', 'space', 'space', 'space', 'space', 'space', 'space', 'space', 'space', 'space']","[0.46959249302744865, 1.1197564860340208, 1.7359973510028794, 2.4032459339359775, 3.0198116640094668, 3.6032165579963475, 4.209244703990407, 4.7700219749240205, 5.3529634199803695, 5.969961441936903, 6.503910123952664, 7.087033506017178, 7.720060930005275, 8.371056322939694, 8.95449140202254]",space,0.7360443830257282,,,,,,,JJ,001,2019_Jul_24_1535,rev-kura_tap_2blocks,3.0.6,59.90298865155041,
./stimuli_1/tmp/strong_110_2.wav,110,strong,1.9369911731854192,,,,,0,32,32,6,,,,,,,,,,,,,"['space', 'space', 'space', 'space', 'space', 'space', 'space', 'space', 'space', 'space', 'space', 'space', 'space', 'space', 'space', 'space']","[0.6784262219443917, 1.0860955599928275, 1.6697550399694592, 2.253532797913067, 2.8368985989363864, 3.4192628419259563, 4.019360537989996, 4.636589478934184, 5.219688828918152, 5.8037222129059955, 6.387346108909696, 6.969932822976261, 7.544250351958908, 8.120054680970497, 8.687222130014561, 9.337255594902672]",space,0.5024174860445783,,,,,,,JJ,001,2019_Jul_24_1535,rev-kura_tap_2blocks,3.0.6,59.90298865155041,
./stimuli_1/tmp/perfect_95_1.wav,95,perfect,0.8659592093324232,,,,,0,33,33,22,,,,,,,,,,,,,"['space', 'space', 'space', 'space', 'space', 'space', 'space', 'space']","[1.1199713390087709, 1.7025994220748544, 2.386878250981681, 2.970584476017393, 3.6197033050702885, 4.286699759075418, 4.886645396007225, 5.536776210996322]",space,0.8864833919797093,,,,,,,JJ,001,2019_Jul_24_1535,rev-kura_tap_2blocks,3.0.6,59.90298865155041,
./stimuli_1/tmp/vweak_110_1.wav,110,veryweak,1.3407186132175697,,,,,0,34,34,32,,,,,,,,,,,,,"['space', 'space', 'space', 'space', 'space', 'space', 'space', 'space', 'space', 'space', 'space', 'space', 'space', 'space', 'space', 'space']","[0.4986803790088743, 1.2973293549148366, 2.312231726013124, 2.9973746669711545, 4.264171752962284, 4.948739830986597, 5.331349538988434, 5.5149595299735665, 5.948261911980808, 6.3147274849470705, 6.799167532008141, 7.282123659970239, 7.698316465946846, 8.199738607974723, 8.698405660921708, 9.315687926951796]",space,0.5532608949579298,,,,,,,JJ,001,2019_Jul_24_1535,rev-kura_tap_2blocks,3.0.6,59.90298865155041,
./stimuli_1/tmp/perfect_95_0.wav,95,perfect,1.4400885785760469,,,,,0,35,35,26,,,,,,,,,,,,,"['space', 'space', 'space', 'space', 'space', 'space', 'space', 'space', 'space']","[0.6951922359876335, 1.0523795098997653, 1.7030606549233198, 2.336323415976949, 2.9868185579543933, 3.603021813905798, 4.251054822932929, 4.853108308976516, 5.486423530965112]",space,0.4688644160050899,,,,,,,JJ,001,2019_Jul_24_1535,rev-kura_tap_2blocks,3.0.6,59.90298865155041,
./stimuli_1/tmp/vweak_95_2.wav,95,veryweak,1.1399322262275913,,,,,0,36,36,30,,,,,,,,,,,,,"['space', 'space', 'space', 'space', 'space', 'space', 'space', 'space', 'space', 'space', 'space', 'space', 'space', 'space']","[1.2356636020122096, 1.869177864980884, 2.5360038720536977, 3.135623855981976, 3.7693363550351933, 4.383875582017936, 4.98631908907555, 5.625303962035105, 6.252904657041654, 6.836204071063548, 7.520167249022052, 8.124986259033903, 8.736777194077149, 9.368444413063116]",space,1.2430112499278039,,,,,,,JJ,001,2019_Jul_24_1535,rev-kura_tap_2blocks,3.0.6,59.90298865155041,
./stimuli_1/tmp/strong_95_1.wav,95,strong,1.2238592690797745,,,,,0,37,37,33,,,,,,,,,,,,,"['space', 'space', 'space', 'space', 'space', 'space', 'space', 'space', 'space', 'space', 'space', 'space', 'space', 'space', 'space']","[0.7947392429923639, 1.2850819709710777, 1.8920907080173492, 2.485217991983518, 3.102275055949576, 3.718989133951254, 4.352665368001908, 4.935684391995892, 5.569684293936007, 6.1541607399703935, 6.769148768973537, 7.370542138000019, 7.969887337996624, 8.603630552999675, 9.17493715591263]",space,0.8862825579708442,,,,,,,JJ,001,2019_Jul_24_1535,rev-kura_tap_2blocks,3.0.6,59.90298865155041,
./stimuli_1/tmp/weak_105_2.wav,105,weak,2.065051120273794,,,,,0,38,38,48,,,,,,,,,,,,,"['space', 'space', 'space', 'space', 'space', 'space', 'space', 'space', 'space', 'space', 'space', 'space', 'space', 'space', 'space', 'space']","[0.40701006702147424, 0.9023365949979052, 1.4357684339629486, 2.019074512994848, 2.5690196600044146, 3.238862670958042, 3.8364152159774676, 4.486122980015352, 5.119394246954471, 5.7365306050051, 6.353390306001529, 6.907629497000016, 7.552691004006192, 8.086587335914373, 8.686658094986342, 9.38716004602611]",space,0.4124918830348179,,,,,,,JJ,001,2019_Jul_24_1535,rev-kura_tap_2blocks,3.0.6,59.90298865155041,
./stimuli_1/tmp/weak_90_2.wav,90,weak,2.0384375203910188,,,,,0,39,39,23,,,,,,,,,,,,,"['space', 'space', 'space', 'space', 'space', 'space', 'space', 'space', 'space', 'space', 'space', 'space', 'space', 'space']","[0.5141911369282752, 1.0312587349908426, 1.7481152130058035, 2.4314077359158546, 3.0313604219118133, 3.6821719829458743, 4.364645008929074, 4.9983889039140195, 5.715317469905131, 6.398491853964515, 7.022051043924876, 7.6656883269315585, 8.33251577289775, 9.022990025929175]",space,1.040420668083243,,,,,,,JJ,001,2019_Jul_24_1535,rev-kura_tap_2blocks,3.0.6,59.90298865155041,
./stimuli_1/tmp/perfect_100_0.wav,100,perfect,2.1771183722066985,,,,,0,40,40,2,,,,,,,,,,,,,"['space', 'space', 'space', 'space', 'space', 'space', 'space', 'space', 'space']","[0.5354309380054474, 1.0688224890036508, 1.5693996630143374, 2.1526193319587037, 2.7533953519305214, 3.342387232929468, 3.919407072942704, 4.5029288289370015, 5.1199896179605275]",space,0.3690596759552136,,,,,,,JJ,001,2019_Jul_24_1535,rev-kura_tap_2blocks,3.0.6,59.90298865155041,
./stimuli_1/tmp/strong_90_2.wav,90,strong,1.29545815814535,,,,,0,41,41,36,,,,,,,,,,,,,"['space', 'space', 'space', 'space', 'space', 'space', 'space', 'space', 'space', 'space', 'space', 'space', 'space', 'space', 'space']","[0.45346468104980886, 0.9700465040514246, 1.5530432580271736, 2.2088705830974504, 2.853306865086779, 3.520149628049694, 4.191766862990335, 4.836631805053912, 5.470783113036305, 6.137000255053863, 6.770776242017746, 7.42065847304184, 8.05457386909984, 8.721289762994274, 9.371652809088118]",space,0.8027288391022012,,,,,,,JJ,001,2019_Jul_24_1535,rev-kura_tap_2blocks,3.0.6,59.90298865155041,
./stimuli_1/tmp/strong_90_1.wav,90,strong,1.0878185010355936,,,,,0,42,42,41,,,,,,,,,,,,,"['space', 'space', 'space', 'space', 'space', 'space', 'space', 'space', 'space', 'space', 'space', 'space', 'space']","[0.9027367850067094, 1.702420013025403, 2.3862864259863272, 3.067602282972075, 3.8027464270126075, 4.507949164020829, 5.17032031097915, 5.920204647933133, 6.637995839933865, 7.286571708973497, 8.053719043033198, 8.736969867022708, 9.451858786982484]",space,0.45216910203453153,,,,,,,JJ,001,2019_Jul_24_1535,rev-kura_tap_2blocks,3.0.6,59.90298865155041,
./stimuli_1/tmp/weak_105_1.wav,105,weak,2.3476680969619683,,,,,0,43,43,45,,,,,,,,,,,,,"['space', 'space', 'space', 'space', 'space', 'space', 'space', 'space', 'space', 'space', 'space', 'space', 'space', 'space', 'space', 'space', 'space']","[0.41743279399815947, 1.1408364919479936, 2.053143930970691, 2.5694569109473377, 3.286297988030128, 3.88679504301399, 4.491398848942481, 5.186133577954024, 5.653151125996374, 6.136240973952226, 6.4916032259352505, 6.871022528968751, 7.641722399042919, 7.936943801003508, 8.254346914938651, 8.486906214035116, 9.121646807994694]",space,0.33617876400239766,,,,,,,JJ,001,2019_Jul_24_1535,rev-kura_tap_2blocks,3.0.6,59.90298865155041,
./stimuli_1/tmp/medium_100_1.wav,100,medium,0.9469441789171564,,,,,0,44,44,47,,,,,,,,,,,,,"['space', 'space', 'space', 'space', 'space', 'space', 'space', 'space', 'space', 'space', 'space', 'space', 'space', 'space']","[0.4866158419754356, 1.0207292350241914, 1.7709669020259753, 2.423275104025379, 3.0870033480459824, 3.7202281459467486, 4.375250610988587, 5.036937205935828, 5.670247153029777, 6.33706249401439, 6.970133444992825, 7.604365924955346, 8.270955392974429, 8.904253719025292]",space,0.7198179160477594,,,,,,,JJ,001,2019_Jul_24_1535,rev-kura_tap_2blocks,3.0.6,59.90298865155041,
./stimuli_1/tmp/vweak_110_2.wav,110,veryweak,1.2375564653250335,,,,,0,45,45,28,,,,,,,,,,,,,"['space', 'space', 'space', 'space', 'space', 'space', 'space', 'space', 'space', 'space', 'space', 'space', 'space', 'space', 'space', 'space']","[0.5277893670136109, 1.0445572900353, 1.5281813220353797, 2.011493460042402, 2.5774196051061153, 3.1284686430590227, 3.66130126605276, 4.243237318005413, 4.811421825084835, 5.4114425390725955, 6.09479108103551, 6.712317569064908, 7.362514695036225, 7.995329824043438, 8.550728506059386, 9.128849850036204]",space,0.31902749196160585,,,,,,,JJ,001,2019_Jul_24_1535,rev-kura_tap_2blocks,3.0.6,59.90298865155041,
./stimuli_1/tmp/weak_90_1.wav,90,weak,1.282481392037714,,,,,0,46,46,29,,,,,,,,,,,,,"['space', 'space', 'space', 'space', 'space', 'space', 'space', 'space', 'space', 'space', 'space', 'space', 'space', 'space', 'space']","[0.46224314405117184, 0.919100197032094, 1.384171070996672, 2.119804640999064, 2.8525322059867904, 3.553480381029658, 4.152774563990533, 4.8030964640202, 5.458092337008566, 6.0027157560689375, 6.603317028027959, 7.137077254010364, 7.7370108920149505, 8.370161817991175, 9.025734708062373]",space,0.3121873210184276,,,,,,,JJ,001,2019_Jul_24_1535,rev-kura_tap_2blocks,3.0.6,59.90298865155041,
./stimuli_1/tmp/strong_100_2.wav,100,strong,1.5994648074282498,,,,,0,47,47,42,,,,,,,,,,,,,"['space', 'space', 'space', 'space', 'space', 'space', 'space', 'space', 'space', 'space', 'space', 'space', 'space', 'space', 'space', 'space']","[0.4819858189439401, 0.7975100259063765, 1.2642452659783885, 1.8646763649303466, 2.4977821270003915, 3.0537417619489133, 3.680924473912455, 4.298408114002086, 4.953340247971937, 5.596844471991062, 6.1155547589296475, 6.7315937239909545, 7.531762738944963, 8.149015881936066, 8.605561490985565, 9.232883040909655]",space,0.5791388070210814,,,,,,,JJ,001,2019_Jul_24_1535,rev-kura_tap_2blocks,3.0.6,59.90298865155041,
./stimuli_1/tmp/perfect_90_0.wav,90,perfect,1.6568604876231643,,,,,0,48,48,35,,,,,,,,,,,,,"['space', 'space', 'space', 'space', 'space', 'space', 'space', 'space', 'space', 'space']","[0.46954123803880066, 0.7686104569584131, 1.3194908950245008, 2.0529482240090147, 2.7027792669832706, 3.353300421964377, 4.019677373929881, 4.702937650959939, 5.342875457950868, 6.020161469932646]",space,0.7507452210411429,,,,,,,JJ,001,2019_Jul_24_1535,rev-kura_tap_2blocks,3.0.6,59.90298865155041,
./stimuli_1/tmp/vweak_90_1.wav,90,veryweak,0.8362780865168179,,,,,0,49,49,34,,,,,,,,,,,,,"['space', 'space', 'space', 'space', 'space', 'space', 'space', 'space', 'space', 'space', 'space', 'space']","[0.502415694994852, 1.2241773949936032, 2.085942832985893, 2.8370348589960486, 3.553259604028426, 4.2863684460753575, 5.003230993053876, 5.753522490034811, 6.486911147017963, 7.220065288012847, 7.925133801996708, 8.636725425021723]",space,0.46963362500537187,,,,,,,JJ,001,2019_Jul_24_1535,rev-kura_tap_2blocks,3.0.6,59.90298865155041,
,,,,,,,,,,,,,,,,,,,,,,,,,,,,space,6.704166901065037,,,,,JJ,001,2019_Jul_24_1535,rev-kura_tap_2blocks,3.0.6,59.90298865155041,
./stimuli_2/tmp/vweak_105_3.wav,105,veryweak,1.505363686413271,,,,,,,,,0,0,0,7,,,,,,,,,,,,,,,"['space', 'space', 'space', 'space', 'space', 'space', 'space', 'space', 'space', 'space', 'space', 'space', 'space', 'space', 'space']","[0.5024622679920867, 1.2020129640586674, 1.7419795060995966, 2.3359471750445664, 3.0022731710923836, 3.6100140470080078, 4.253002097015269, 4.870665301103145, 5.469384620082565, 6.187275223084725, 6.788080842001364, 7.387021886068396, 8.053832813049667, 8.687335324008018, 9.288065453991294]",space,0.3663953149225563,JJ,001,2019_Jul_24_1535,rev-kura_tap_2blocks,3.0.6,59.90298865155041,
./stimuli_2/tmp/medium_100_4.wav,100,medium,1.1108721091211078,,,,,,,,,0,1,1,35,,,,,,,,,,,,,,,"['space', 'space', 'space', 'space', 'space', 'space', 'space', 'space', 'space', 'space', 'space', 'space', 'space', 'space']","[0.8544746789848432, 1.4880319599760696, 2.1545876290183514, 2.754656700999476, 3.3886865649838, 4.054882124066353, 4.721873619011603, 5.371714706998318, 6.0059734410606325, 6.640002046013251, 7.25526866002474, 7.938908944022842, 8.555559915024787, 9.205490780994296]",space,0.41863993601873517,JJ,001,2019_Jul_24_1535,rev-kura_tap_2blocks,3.0.6,59.90298865155041,
./stimuli_2/tmp/weak_100_4.wav,100,weak,1.8643156091783653,,,,,,,,,0,2,2,33,,,,,,,,,,,,,,,"['space', 'space', 'space', 'space', 'space', 'space', 'space', 'space', 'space', 'space', 'space', 'space', 'space', 'space', 'space']","[0.4857769130030647, 0.9518628290388733, 1.6273180310381576, 2.218985207960941, 2.8527218949748203, 3.490654970984906, 4.21921198698692, 4.836078722029924, 5.470260080997832, 6.057552558952011, 6.686599635984749, 7.319415505044162, 7.953046386945061, 8.591523110982962, 9.237103953957558]",space,0.46865368890576065,JJ,001,2019_Jul_24_1535,rev-kura_tap_2blocks,3.0.6,59.90298865155041,
./stimuli_2/tmp/strong_110_3.wav,110,strong,2.128797507874421,,,,,,,,,0,3,3,6,,,,,,,,,,,,,,,"['space', 'space', 'space', 'space', 'space', 'space', 'space', 'space', 'space', 'space', 'space', 'space', 'space', 'space', 'space', 'space', 'space']","[0.469974595005624, 1.2185941020725295, 1.6522699850611389, 2.152916975086555, 2.685644056997262, 3.2027509080944583, 3.7200625269906595, 4.267801198991947, 4.804167908034287, 5.319592765066773, 5.836490371031687, 6.369576215045527, 6.886120358016342, 7.437478217063472, 7.939591535017826, 8.471543655032292, 8.969990404089913]",space,0.642514806939289,JJ,001,2019_Jul_24_1535,rev-kura_tap_2blocks,3.0.6,59.90298865155041,
./stimuli_2/tmp/vweak_95_4.wav,95,veryweak,1.2922043074511544,,,,,,,,,0,4,4,22,,,,,,,,,,,,,,,"['space', 'space', 'space', 'space', 'space', 'space', 'space', 'space', 'space', 'space', 'space', 'space', 'space', 'space', 'space']","[0.9127325869631022, 1.7965209250105545, 2.362484548939392, 2.9975013899384066, 3.6294972429750487, 4.188903423026204, 4.762745438027196, 5.4465106800198555, 6.029988305992447, 6.6529678869992495, 7.2802189260255545, 7.8800342419417575, 8.513615777948871, 9.152902233996429, 9.76393436093349]",space,0.6532496669096872,JJ,001,2019_Jul_24_1535,rev-kura_tap_2blocks,3.0.6,59.90298865155041,
./stimuli_2/tmp/vweak_100_4.wav,100,veryweak,1.7061160215264062,,,,,,,,,0,5,5,2,,,,,,,,,,,,,,,"['space', 'space', 'space', 'space', 'space', 'space', 'space', 'space', 'space', 'space', 'space', 'space', 'space', 'space']","[0.895330942934379, 1.4852380210068077, 2.035995065001771, 2.6018906999379396, 3.3190491819987074, 4.086035075946711, 4.412826451938599, 4.968638267018832, 5.886114681954496, 6.65285195899196, 7.253688546014018, 7.950786195928231, 8.57096190797165, 9.136652688961476]",space,0.3456362229771912,JJ,001,2019_Jul_24_1535,rev-kura_tap_2blocks,3.0.6,59.90298865155041,
./stimuli_2/tmp/strong_95_4.wav,95,strong,1.3122188661972012,,,,,,,,,0,6,6,19,,,,,,,,,,,,,,,"['space', 'space', 'space', 'space', 'space', 'space', 'space', 'space', 'space', 'space', 'space', 'space', 'space', 'space']","[0.4020299579715356, 0.8036268450086936, 1.4541129879653454, 2.2250216329703107, 2.9024591359775513, 3.6524145120056346, 4.3341963610146195, 5.085201454930939, 5.7534559309715405, 6.453859689994715, 7.1421252139844, 7.854127430939116, 8.538466167985462, 9.287819340941496]",space,0.3353849300183356,JJ,001,2019_Jul_24_1535,rev-kura_tap_2blocks,3.0.6,59.90298865155041,
./stimuli_2/tmp/vweak_110_3.wav,110,veryweak,1.9493514140483303,,,,,,,,,0,7,7,25,,,,,,,,,,,,,,,"['space', 'space', 'space', 'space', 'space', 'space', 'space', 'space', 'space', 'space', 'space', 'space', 'space', 'space', 'space', 'space', 'space']","[0.42588999995496124, 1.0019287499599159, 1.6354734710184857, 2.402724354993552, 2.803267603041604, 3.385942492983304, 4.024265840998851, 4.7368676599580795, 5.20267652196344, 5.507981215021573, 5.936471672030166, 6.335920076002367, 6.6366342309629545, 7.0533620859496295, 7.652947888942435, 8.203188881045207, 9.093458698946051]",space,0.32028306601569057,JJ,001,2019_Jul_24_1535,rev-kura_tap_2blocks,3.0.6,59.90298865155041,
./stimuli_2/tmp/weak_90_4.wav,90,weak,2.0685733483084743,,,,,,,,,0,8,8,16,,,,,,,,,,,,,,,"['space', 'space', 'space', 'space', 'space', 'space', 'space', 'space', 'space', 'space', 'space', 'space', 'space', 'space']","[0.48579719802364707, 1.0681515580508858, 1.8355542800854892, 2.4853634310420603, 3.203050177078694, 3.900607811054215, 4.586206281092018, 5.235573454061523, 5.969442603061907, 6.603240321041085, 7.252471884014085, 7.969573309994303, 8.653789989999495, 9.336727751069702]",space,0.4520976919448003,JJ,001,2019_Jul_24_1535,rev-kura_tap_2blocks,3.0.6,59.90298865155041,
./stimuli_2/tmp/perfect_105_1.wav,105,perfect,1.9598890814615504,,,,,,,,,0,9,9,13,,,,,,,,,,,,,,,"['space', 'space', 'space', 'space', 'space', 'space', 'space', 'space']","[0.8860899690771475, 1.419061649008654, 1.9189872540300712, 2.4860766930505633, 3.0530527470400557, 3.6194512030342594, 4.169067227980122, 4.752649949979968]",space,0.3912578469607979,JJ,001,2019_Jul_24_1535,rev-kura_tap_2blocks,3.0.6,59.90298865155041,
./stimuli_2/tmp/vweak_100_3.wav,100,veryweak,0.8472696952655959,,,,,,,,,0,10,10,5,,,,,,,,,,,,,,,"['space', 'space', 'space', 'space', 'space', 'space', 'space', 'space', 'space', 'space', 'space', 'space', 'space', 'space']","[0.903019389952533, 1.5031470109242946, 2.1698030430125073, 2.869609478977509, 3.469989854027517, 4.220113269984722, 4.820106528000906, 5.453284011920914, 6.186969742993824, 6.8203368509421125, 7.4703260969836265, 8.170268776942976, 8.77084016497247, 9.420982301933691]",space,0.3529628829564899,JJ,001,2019_Jul_24_1535,rev-kura_tap_2blocks,3.0.6,59.90298865155041,
./stimuli_2/tmp/medium_100_3.wav,100,medium,0.9227517929886035,,,,,,,,,0,11,11,45,,,,,,,,,,,,,,,"['space', 'space', 'space', 'space', 'space', 'space', 'space', 'space', 'space', 'space', 'space', 'space', 'space', 'space', 'space', 'space', 'space']","[0.9191987719386816, 1.368991749943234, 1.8739869609707966, 2.4187316299648955, 2.935874963994138, 3.452702382928692, 3.9593593809986487, 4.485794747015461, 4.98641545092687, 5.536160195013508, 6.069655236904509, 6.586218465003185, 7.119822455919348, 7.65352178690955, 8.169863553950563, 8.669588860939257, 9.237179879914038]",space,0.3189477400155738,JJ,001,2019_Jul_24_1535,rev-kura_tap_2blocks,3.0.6,59.90298865155041,
./stimuli_2/tmp/vweak_95_3.wav,95,veryweak,2.160580057702042,,,,,,,,,0,12,12,32,,,,,,,,,,,,,,,"['space', 'space', 'space', 'space', 'space', 'space', 'space', 'space', 'space', 'space', 'space', 'space', 'space', 'space']","[1.1030497340252623, 1.7503440500004217, 2.3509322949685156, 2.941934715025127, 3.585665383026935, 4.2028688580030575, 4.868976710014977, 5.441447874065489, 5.969787908950821, 6.602718060021289, 7.1865225819638, 7.786512863007374, 8.436978225014172, 9.044770902954042]",space,0.4861266210209578,JJ,001,2019_Jul_24_1535,rev-kura_tap_2blocks,3.0.6,59.90298865155041,
./stimuli_2/tmp/vweak_110_4.wav,110,veryweak,1.4056094097142195,,,,,,,,,0,13,13,20,,,,,,,,,,,,,,,"['space', 'space', 'space', 'space', 'space', 'space', 'space', 'space', 'space', 'space', 'space', 'space', 'space', 'space', 'space', 'space', 'space']","[0.502727776998654, 1.1529007169883698, 1.736541196005419, 2.335870619979687, 2.8355898919980973, 3.3196340759750456, 3.8695029120426625, 4.436396275064908, 4.9367029500426725, 5.437237386009656, 5.9865018730051816, 6.554193336050957, 7.137077794992365, 7.658456300967373, 8.23660608602222, 8.786639636033215, 9.353774997987784]",space,0.4693415679503232,JJ,001,2019_Jul_24_1535,rev-kura_tap_2blocks,3.0.6,59.90298865155041,
./stimuli_2/tmp/weak_110_4.wav,110,weak,1.2158046753843554,,,,,,,,,0,14,14,4,,,,,,,,,,,,,,,"['space', 'space', 'space', 'space', 'space', 'space', 'space', 'space', 'space', 'space', 'space', 'space', 'space', 'space', 'space', 'space']","[0.44119822897482663, 0.91977209597826, 1.677475347998552, 2.2200612779706717, 2.8200677030254155, 3.353303440962918, 3.8540631970390677, 4.475594887044281, 5.020216356031597, 5.578236169996671, 6.18706501298584, 6.753626083023846, 7.337505653966218, 7.903960074065253, 8.47606072796043, 9.037388850003481]",space,0.9745465159649029,JJ,001,2019_Jul_24_1535,rev-kura_tap_2blocks,3.0.6,59.90298865155041,
./stimuli_2/tmp/perfect_110_1.wav,110,perfect,1.960810456770172,,,,,,,,,0,15,15,17,,,,,,,,,,,,,,,"['space', 'space', 'space', 'space', 'space', 'space', 'space', 'space']","[0.7691848169779405, 1.1691274689510465, 1.6742232309188694, 2.2364100619452074, 2.7689605189953, 3.3196949779521674, 3.9032599759520963, 4.386732033919543]",space,0.3705900580389425,JJ,001,2019_Jul_24_1535,rev-kura_tap_2blocks,3.0.6,59.90298865155041,
./stimuli_2/tmp/medium_90_4.wav,90,medium,1.4187547606829107,,,,,,,,,0,16,16,39,,,,,,,,,,,,,,,"['space', 'space', 'space', 'space', 'space', 'space', 'space', 'space', 'space', 'space', 'space', 'space', 'space', 'space']","[0.7856938230106607, 1.2018949600169435, 1.869682447053492, 2.4754761710064486, 3.1697929460788146, 3.769847239018418, 4.453060366096906, 5.103426912100986, 5.703653305070475, 6.320164103060961, 6.936809615115635, 7.636985594057478, 8.287506433087401, 8.870284487027675]",space,0.9167615410406142,JJ,001,2019_Jul_24_1535,rev-kura_tap_2blocks,3.0.6,59.90298865155041,
./stimuli_2/tmp/strong_105_3.wav,105,strong,1.2846849156286215,,,,,,,,,0,17,17,31,,,,,,,,,,,,,,,"['space', 'space', 'space', 'space', 'space', 'space', 'space', 'space', 'space', 'space', 'space', 'space', 'space', 'space', 'space', 'space']","[0.8531513049965724, 1.4365564889740199, 1.9693496060790494, 2.6029110440285876, 3.1360196419991553, 3.6691267440328375, 4.319359952001832, 4.869622461032122, 5.436907559051178, 6.003602006006986, 6.53694652300328, 7.103727278066799, 7.674190605990589, 8.252104623010382, 8.803808656986803, 9.435363710974343]",space,0.435623480938375,JJ,001,2019_Jul_24_1535,rev-kura_tap_2blocks,3.0.6,59.90298865155041,
./stimuli_2/tmp/strong_100_3.wav,100,strong,1.4654700353387642,,,,,,,,,0,18,18,41,,,,,,,,,,,,,,,"['space', 'space', 'space', 'space', 'space', 'space', 'space', 'space', 'space', 'space', 'space', 'space', 'space', 'space', 'space']","[0.4766588880447671, 0.8019578560488299, 1.2689580410951748, 2.036212860024534, 2.685700174071826, 3.3579991480801255, 3.9860585710266605, 4.619460202055052, 5.285707782022655, 5.952895580092445, 6.619602550053969, 7.252971173031256, 7.886591218993999, 8.553351065027528, 9.237230757018551]",space,0.669810923980549,JJ,001,2019_Jul_24_1535,rev-kura_tap_2blocks,3.0.6,59.90298865155041,
./stimuli_2/tmp/perfect_110_0.wav,110,perfect,1.6760608294086363,,,,,,,,,0,19,19,14,,,,,,,,,,,,,,,"['space', 'space', 'space', 'space', 'space', 'space', 'space', 'space', 'space', 'space']","[0.5001099780201912, 0.8005346370628104, 1.1664566680556163, 1.7005970210302621, 2.2185933709843084, 2.7669605050468817, 3.333459753077477, 3.8504672800190747, 4.417251646053046, 4.966913255979307]",space,0.386291958973743,JJ,001,2019_Jul_24_1535,rev-kura_tap_2blocks,3.0.6,59.90298865155041,
./stimuli_2/tmp/perfect_100_0.wav,100,perfect,1.3424117839845908,,,,,,,,,0,20,20,3,,,,,,,,,,,,,,,"['space', 'space', 'space', 'space', 'space', 'space', 'space', 'space', 'space']","[0.503088116995059, 0.9073995889630169, 1.5535956530366093, 2.1032325860578567, 2.7025027569616213, 3.3529122959589586, 3.9348028199747205, 4.5095568059477955, 5.137220068019815]",space,1.9429023150587454,JJ,001,2019_Jul_24_1535,rev-kura_tap_2blocks,3.0.6,59.90298865155041,
./stimuli_2/tmp/weak_110_3.wav,110,weak,1.4034951095242638,,,,,,,,,0,21,21,0,,,,,,,,,,,,,,,"['space', 'space', 'space', 'space', 'space', 'space', 'space', 'space', 'space', 'space', 'space', 'space', 'space', 'space', 'space', 'space']","[0.486621679039672, 0.8865237550344318, 1.353201722027734, 1.903066179016605, 2.60359958501067, 3.2181030460633337, 3.8535795480711386, 4.503266521031037, 5.1038354979828, 5.758183286059648, 6.403434604057111, 7.003599239047617, 7.570280423969962, 8.170636738068424, 8.870858357055113, 9.569058260996826]",space,0.7857453500619158,JJ,001,2019_Jul_24_1535,rev-kura_tap_2blocks,3.0.6,59.90298865155041,
./stimuli_2/tmp/perfect_95_1.wav,95,perfect,1.6931350678865988,,,,,,,,,0,22,22,26,,,,,,,,,,,,,,,"['space', 'space', 'space', 'space', 'space', 'space', 'space', 'space', 'space']","[0.6573828569380566, 1.1355436379089952, 1.7527501869481057, 2.402411664952524, 3.002367215929553, 3.667954198899679, 4.258209493942559, 4.904186322935857, 5.504461442003958]",space,0.4198883780045435,JJ,001,2019_Jul_24_1535,rev-kura_tap_2blocks,3.0.6,59.90298865155041,
./stimuli_2/tmp/weak_100_3.wav,100,weak,0.8397616430138637,,,,,,,,,0,23,23,21,,,,,,,,,,,,,,,"['space', 'space', 'space', 'space', 'space', 'space', 'space', 'space', 'space', 'space', 'space', 'space', 'space', 'space', 'space', 'space']","[0.8502313380595297, 1.3190623190021142, 1.8855225259903818, 2.4196290919790044, 3.0527819329872727, 3.6698391530662775, 4.236627936013974, 4.802442072075792, 5.352803791989572, 5.936061377055012, 6.47105280100368, 7.052857729024254, 7.619700132054277, 8.175305731012486, 8.819571990985423, 9.420489093987271]",space,0.4191835490055382,JJ,001,2019_Jul_24_1535,rev-kura_tap_2blocks,3.0.6,59.90298865155041,
./stimuli_2/tmp/strong_95_3.wav,95,strong,2.368023631857328,,,,,,,,,0,24,24,24,,,,,,,,,,,,,,,"['space', 'space', 'space', 'space', 'space', 'space', 'space', 'space', 'space', 'space', 'space', 'space', 'space', 'space']","[0.8523959410376847, 1.3360865550348535, 1.9854172450723127, 2.618382372078486, 3.252196744084358, 3.9233324150554836, 4.535717445076443, 5.203131504007615, 5.785776554024778, 6.402744641061872, 7.07029088109266, 7.6860543839866295, 8.286653222050518, 8.942027922021225]",space,0.4357259350363165,JJ,001,2019_Jul_24_1535,rev-kura_tap_2blocks,3.0.6,59.90298865155041,
./stimuli_2/tmp/medium_110_4.wav,110,medium,1.2412593574024813,,,,,,,,,0,25,25,8,,,,,,,,,,,,,,,"['space', 'space', 'space', 'space', 'space', 'space', 'space', 'space', 'space', 'space', 'space', 'space', 'space', 'space', 'space', 'space']","[0.4684764170087874, 0.9020734550431371, 1.4666158059844747, 2.0353874360444024, 2.6191423749551177, 3.203160180011764, 3.7940175449475646, 4.302627829019912, 4.852892815019004, 5.402942894026637, 5.985869764001109, 6.586536293034442, 7.153414724045433, 7.719858317985199, 8.292643154039979, 8.83699310105294]",space,0.43626552005298436,JJ,001,2019_Jul_24_1535,rev-kura_tap_2blocks,3.0.6,59.90298865155041,
./stimuli_2/tmp/strong_100_4.wav,100,strong,1.3398198733573277,,,,,,,,,0,26,26,48,,,,,,,,,,,,,,,"['space', 'space', 'space', 'space', 'space', 'space', 'space', 'space', 'space', 'space', 'space', 'space', 'space', 'space', 'space']","[0.7473049260443076, 1.1809113320196047, 1.7808964629657567, 2.463563592056744, 3.064286664011888, 3.680793283972889, 4.313782499986701, 4.948056351044215, 5.557826793054119, 6.164979750057682, 6.7978769190376624, 7.395751852076501, 8.022646064055152, 8.631803889060393, 9.24925993103534]",space,0.6590877859853208,JJ,001,2019_Jul_24_1535,rev-kura_tap_2blocks,3.0.6,59.90298865155041,
./stimuli_2/tmp/vweak_90_3.wav,90,veryweak,0.8098621072043313,,,,,,,,,0,27,27,42,,,,,,,,,,,,,,,"['space', 'space', 'space', 'space', 'space', 'space', 'space', 'space', 'space', 'space', 'space', 'space', 'space', 'space', 'space']","[0.8527851839317009, 1.3025541290408, 1.9027878829510882, 2.503270982997492, 3.140764839015901, 3.669416286982596, 4.3857989920070395, 4.952626892016269, 5.553197236964479, 6.144889191025868, 6.668000873993151, 7.220449334010482, 7.770356490975246, 8.35306103201583, 8.986838069977239]",space,0.6575657669454813,JJ,001,2019_Jul_24_1535,rev-kura_tap_2blocks,3.0.6,59.90298865155041,
./stimuli_2/tmp/strong_110_4.wav,110,strong,1.9935472881648024,,,,,,,,,0,28,28,9,,,,,,,,,,,,,,,"['space', 'space', 'space', 'space', 'space', 'space', 'space', 'space', 'space', 'space', 'space', 'space', 'space', 'space', 'space', 'space', 'space']","[0.0002579860156401992, 0.3976260449271649, 0.831656615016982, 1.2979848429095, 1.8648470299085602, 2.469868525979109, 3.0816711289808154, 3.6648583660135046, 4.298451285925694, 4.915084590902552, 5.487589964992367, 6.098849503905512, 6.666486597969197, 7.298793169902638, 7.865401699906215, 8.482852092012763, 9.066332269925624]",space,0.28560476296115667,JJ,001,2019_Jul_24_1535,rev-kura_tap_2blocks,3.0.6,59.90298865155041,
./stimuli_2/tmp/perfect_105_0.wav,105,perfect,2.471825489115851,,,,,,,,,0,29,29,10,,,,,,,,,,,,,,,"['space', 'space', 'space', 'space', 'space', 'space', 'space', 'space']","[0.8028172699268907, 1.356252533965744, 1.9195782139431685, 2.7238536999793723, 3.085670302971266, 3.619167480035685, 4.21930118103046, 4.790934887016192]",space,0.3905097079696134,JJ,001,2019_Jul_24_1535,rev-kura_tap_2blocks,3.0.6,59.90298865155041,
./stimuli_2/tmp/medium_95_3.wav,95,medium,0.9787884089584356,,,,,,,,,0,30,30,18,,,,,,,,,,,,,,,"['space', 'space', 'space', 'space', 'space', 'space', 'space', 'space', 'space', 'space', 'space', 'space', 'space', 'space']","[0.7504745040787384, 1.2191617239732295, 1.9019982180325314, 2.5409041329985484, 3.1698875710135326, 3.8377536340849474, 4.452887500054203, 5.1028343490324914, 5.753195815021172, 6.353058091015555, 7.070279451087117, 7.653367758030072, 8.30305818200577, 8.958386117010377]",space,0.6954245090018958,JJ,001,2019_Jul_24_1535,rev-kura_tap_2blocks,3.0.6,59.90298865155041,
./stimuli_2/tmp/strong_105_4.wav,105,strong,1.0619213958525664,,,,,,,,,0,31,31,23,,,,,,,,,,,,,,,"['space', 'space', 'space', 'space', 'space', 'space', 'space', 'space', 'space', 'space', 'space', 'space', 'space', 'space', 'space']","[0.829892797046341, 1.3695106820669025, 1.9202418910572305, 2.46973163401708, 3.037487645051442, 3.619937131064944, 4.186664246022701, 4.758352079079486, 5.321003321092576, 5.936896350001916, 6.487562761991285, 7.0365471499972045, 7.604598659090698, 8.171966755995527, 8.754106244072318]",space,0.4096807629102841,JJ,001,2019_Jul_24_1535,rev-kura_tap_2blocks,3.0.6,59.90298865155041,
./stimuli_2/tmp/vweak_90_4.wav,90,veryweak,2.01675312210347,,,,,,,,,0,32,32,47,,,,,,,,,,,,,,,"['space', 'space', 'space', 'space', 'space', 'space', 'space', 'space', 'space', 'space', 'space', 'space']","[1.2859378220746294, 2.1027316170511767, 2.892238929052837, 3.518994166981429, 4.086418261984363, 4.819985227077268, 5.619715704000555, 6.324672318063676, 7.07004856702406, 7.875339207006618, 8.57061589800287, 9.325524860061705]",space,3.3874121350236237,JJ,001,2019_Jul_24_1535,rev-kura_tap_2blocks,3.0.6,59.90298865155041,
./stimuli_2/tmp/weak_105_4.wav,105,weak,2.3797932117961262,,,,,,,,,0,33,33,40,,,,,,,,,,,,,,,"['space', 'space', 'space', 'space', 'space', 'space', 'space', 'space', 'space', 'space', 'space', 'space', 'space', 'space']","[1.1019811810692772, 1.6687715509906411, 2.352094989037141, 3.0528959600487724, 3.624501749058254, 4.2691111620515585, 4.952929282095283, 5.536094038048759, 6.174944119993597, 6.802874471992254, 7.4026186290429905, 7.970028827083297, 8.552768966997974, 9.169999791076407]",space,0.6023530339589342,JJ,001,2019_Jul_24_1535,rev-kura_tap_2blocks,3.0.6,59.90298865155041,
./stimuli_2/tmp/strong_90_4.wav,90,strong,0.9547797326956972,,,,,,,,,0,34,34,44,,,,,,,,,,,,,,,"['space', 'space', 'space', 'space', 'space', 'space', 'space', 'space', 'space', 'space', 'space', 'space', 'space']","[1.1253590380074456, 1.7670058959629387, 2.435832454939373, 3.2271335020195693, 3.835655273986049, 4.51979534199927, 5.20288514601998, 5.886923206038773, 6.5699891679687425, 7.253822293016128, 7.9370066720293835, 8.60341740201693, 9.270269786939025]",space,2.227287909016013,JJ,001,2019_Jul_24_1535,rev-kura_tap_2blocks,3.0.6,59.90298865155041,
./stimuli_2/tmp/perfect_100_1.wav,100,perfect,1.900582361571024,,,,,,,,,0,35,35,1,,,,,,,,,,,,,,,"['space', 'space', 'space', 'space', 'space', 'space', 'space', 'space']","[0.985955657903105, 1.5242434740066528, 2.1528123999014497, 2.72424643591512, 3.336173955933191, 3.9524104739539325, 4.519522730959579, 5.168058731942438]",space,0.4026269679889083,JJ,001,2019_Jul_24_1535,rev-kura_tap_2blocks,3.0.6,59.90298865155041,
./stimuli_2/tmp/weak_95_4.wav,95,weak,1.59401142701977,,,,,,,,,0,36,36,46,,,,,,,,,,,,,,,"['space', 'space', 'space', 'space', 'space', 'space', 'space', 'space', 'space', 'space', 'space', 'space']","[1.4200838720425963, 2.2092923149466515, 2.936488516977988, 3.6578480979660526, 4.469821179984137, 5.124542613048106, 5.837064870982431, 6.570034042000771, 7.336670845048502, 8.07074117299635, 8.79473997396417, 9.587071152986027]",space,0.36930304497946054,JJ,001,2019_Jul_24_1535,rev-kura_tap_2blocks,3.0.6,59.90298865155041,
./stimuli_2/tmp/vweak_105_4.wav,105,veryweak,1.6327958275835193,,,,,,,,,0,37,37,12,,,,,,,,,,,,,,,"['space', 'space', 'space', 'space', 'space', 'space', 'space', 'space', 'space', 'space', 'space', 'space', 'space', 'space', 'space']","[0.4692121970001608, 1.3522264281054959, 1.9356858070241287, 2.486015555099584, 3.0526753989979625, 3.568821623106487, 4.157432134030387, 4.8037408030359074, 5.41844644502271, 5.969237153069116, 6.553306225105189, 7.169311316101812, 7.769722065073438, 8.357490446069278, 8.953093888005242]",space,0.402543667005375,JJ,001,2019_Jul_24_1535,rev-kura_tap_2blocks,3.0.6,59.90298865155041,
./stimuli_2/tmp/medium_90_3.wav,90,medium,2.469674326004891,,,,,,,,,0,38,38,43,,,,,,,,,,,,,,,"['space', 'space', 'space', 'space', 'space', 'space', 'space', 'space', 'space', 'space', 'space', 'space', 'space']","[1.1197854140773416, 1.8358873720280826, 2.4747449260903522, 3.084661824046634, 3.7531422590836883, 4.486709768068977, 5.136397647089325, 5.786687365034595, 6.4211520260432735, 7.070956572075374, 7.737800711998716, 8.42002835101448, 9.055591101991013]",space,0.3949249379802495,JJ,001,2019_Jul_24_1535,rev-kura_tap_2blocks,3.0.6,59.90298865155041,
./stimuli_2/tmp/medium_105_3.wav,105,medium,0.9417007635762324,,,,,,,,,0,39,39,15,,,,,,,,,,,,,,,"['space', 'space', 'space', 'space', 'space', 'space', 'space', 'space', 'space', 'space', 'space', 'space', 'space', 'space', 'space', 'space']","[0.5031836659181863, 1.0212803909089416, 1.5856190630001947, 2.46975135197863, 3.0191462349612266, 3.5392495919950306, 4.053338823956437, 4.669616168946959, 5.245191417983733, 5.836683815927245, 6.569978284998797, 7.3196436379803345, 7.88675752596464, 8.419615580001846, 8.953544792952016, 9.520185570931062]",space,0.36946168704889715,JJ,001,2019_Jul_24_1535,rev-kura_tap_2blocks,3.0.6,59.90298865155041,
./stimuli_2/tmp/medium_110_3.wav,110,medium,1.2616218191127295,,,,,,,,,0,40,40,11,,,,,,,,,,,,,,,"['space', 'space', 'space', 'space', 'space', 'space', 'space', 'space', 'space', 'space', 'space', 'space', 'space', 'space', 'space', 'space']","[0.4197038870770484, 0.7687122269999236, 1.353139721089974, 1.968992726993747, 2.603115944075398, 3.219303011079319, 3.8698794490192086, 4.491327958065085, 5.102955289068632, 5.786524806986563, 6.4201707320753485, 7.076690490008332, 7.703569504083134, 8.320222234004177, 8.936627788003534, 9.54243964201305]",space,0.4033785799983889,JJ,001,2019_Jul_24_1535,rev-kura_tap_2blocks,3.0.6,59.90298865155041,
./stimuli_2/tmp/strong_90_3.wav,90,strong,1.6244125943376004,,,,,,,,,0,41,41,37,,,,,,,,,,,,,,,"['space', 'space', 'space', 'space', 'space', 'space', 'space', 'space', 'space', 'space', 'space', 'space', 'space', 'space']","[0.6133828740566969, 1.1466147099854425, 1.8637481220066547, 2.5802816359791905, 3.2967136680381373, 3.9467776069650427, 4.630355398985557, 5.330505650024861, 6.030725538963452, 6.6976032049860805, 7.397264430066571, 8.06437552999705, 8.764949089032598, 9.49618958903011]",space,0.4695711199892685,JJ,001,2019_Jul_24_1535,rev-kura_tap_2blocks,3.0.6,59.90298865155041,
./stimuli_2/tmp/weak_105_3.wav,105,weak,1.8785671226313851,,,,,,,,,0,42,42,49,,,,,,,,,,,,,,,"['space', 'space', 'space', 'space', 'space', 'space', 'space', 'space', 'space', 'space', 'space', 'space', 'space', 'space']","[0.436351974029094, 1.117654214031063, 1.7923112079733983, 2.469356638030149, 3.2373023440595716, 3.9369923650519922, 4.636886502034031, 5.325828608009033, 5.987132132053375, 6.636973452987149, 7.3434954839758575, 8.003687686985359, 8.724545527016744, 9.354262407985516]",space,0.31929062597919255,JJ,001,2019_Jul_24_1535,rev-kura_tap_2blocks,3.0.6,59.90298865155041,
./stimuli_2/tmp/weak_90_3.wav,90,weak,1.336733561564532,,,,,,,,,0,43,43,29,,,,,,,,,,,,,,,"['space', 'space', 'space', 'space', 'space', 'space', 'space', 'space', 'space', 'space', 'space', 'space', 'space', 'space']","[0.5032186469761655, 1.0915052680065855, 1.687509802985005, 2.452944474061951, 3.071595084038563, 3.7536296469625086, 4.401699731010012, 5.13715250196401, 5.803233672049828, 6.437230909010395, 7.120195070980117, 7.8542429259978235, 8.50385419500526, 9.154042194015346]",space,0.8688352010212839,JJ,001,2019_Jul_24_1535,rev-kura_tap_2blocks,3.0.6,59.90298865155041,
./stimuli_2/tmp/perfect_95_0.wav,95,perfect,2.0105466277142785,,,,,,,,,0,44,44,30,,,,,,,,,,,,,,,"['space', 'space', 'space', 'space', 'space', 'space', 'space', 'space', 'space']","[1.0858680289238691, 1.719827838940546, 2.3695786700118333, 2.969726764014922, 3.6198097090236843, 4.291873192996718, 4.886719657923095, 5.570760046015494, 9.454953445936553]",space,0.41105831298045814,JJ,001,2019_Jul_24_1535,rev-kura_tap_2blocks,3.0.6,59.90298865155041,
./stimuli_2/tmp/medium_95_4.wav,95,medium,1.5689377747074644,,,,,,,,,0,45,45,27,,,,,,,,,,,,,,,"['space', 'space', 'space', 'space', 'space', 'space', 'space', 'space', 'space', 'space', 'space', 'space', 'space']","[1.0506521579809487, 1.8024299839744344, 2.4363730190088972, 3.119872609968297, 3.770739877014421, 4.436268902965821, 5.186496983049437, 5.820939266006462, 6.486973043065518, 7.218303745961748, 7.870122527005151, 8.58713107497897, 9.253478561993688]",space,0.5024138790322468,JJ,001,2019_Jul_24_1535,rev-kura_tap_2blocks,3.0.6,59.90298865155041,
./stimuli_2/tmp/weak_95_3.wav,95,weak,1.2112449492962023,,,,,,,,,0,46,46,36,,,,,,,,,,,,,,,"['space', 'space', 'space', 'space', 'space', 'space', 'space', 'space', 'space', 'space', 'space', 'space', 'space']","[0.46873690199572593, 1.3860529450466856, 2.0694678489817306, 2.7930224570445716, 3.4530845900299028, 4.153145842021331, 4.81973766698502, 5.43617544695735, 6.169287830009125, 6.8700635499553755, 7.552936117048375, 8.21989022300113, 9.020086967968382]",space,0.4691222980618477,JJ,001,2019_Jul_24_1535,rev-kura_tap_2blocks,3.0.6,59.90298865155041,
./stimuli_2/tmp/perfect_90_0.wav,90,perfect,1.8471350139820657,,,,,,,,,0,47,47,34,,,,,,,,,,,,,,,"['space', 'space', 'space', 'space', 'space', 'space', 'space', 'space', 'space', 'space']","[0.8694616799475625, 1.3525493550114334, 2.051130461972207, 2.7029003729112446, 3.370275735971518, 4.020084528950974, 4.66999785695225, 5.336411676951684, 5.9884721679845825, 6.636747301905416]",space,0.712658604956232,JJ,001,2019_Jul_24_1535,rev-kura_tap_2blocks,3.0.6,59.90298865155041,
./stimuli_2/tmp/medium_105_4.wav,105,medium,1.8823047760740792,,,,,,,,,0,48,48,28,,,,,,,,,,,,,,,"['space', 'space', 'space', 'space', 'space', 'space', 'space', 'space', 'space', 'space', 'space', 'space', 'space', 'space']","[1.4073281709570438, 1.935232236981392, 2.585728446021676, 3.1353587330086157, 3.7193201599875465, 4.285769668058492, 4.852512959041633, 5.42460004996974, 6.036712337983772, 6.636632318026386, 7.203357691061683, 7.803380061988719, 8.353842481970787, 8.953742566984147]",space,1.0685499719111249,JJ,001,2019_Jul_24_1535,rev-kura_tap_2blocks,3.0.6,59.90298865155041,
./stimuli_2/tmp/perfect_90_1.wav,90,perfect,0.9437088291454946,,,,,,,,,0,49,49,38,,,,,,,,,,,,,,,"['space', 'space', 'space', 'space', 'space', 'space', 'space', 'space']","[1.334707461996004, 2.019948169006966, 2.6525908439652994, 3.335790984914638, 4.019692445988767, 4.67065583798103, 5.319944795919582, 6.0082590179517865]",space,0.4025838649831712,JJ,001,2019_Jul_24_1535,rev-kura_tap_2blocks,3.0.6,59.90298865155041,
